onset	duration	trial_num	trial_type	tone_num	tone_type	frequency	response
147.1436	0.0842569373780861	1	systole	1	A	1578.5670027440333	coherent
147.313	0.0842569373780861	1	systole	2	B	500.0	coherent
147.4832	0.0842569373780861	1	systole	3	A	1578.5670027440333	coherent
148.0342	0.0842569373780861	1	systole	4	A	1578.5670027440333	coherent
148.2066	0.0842569373780861	1	systole	5	B	500.0	coherent
148.3796	0.0842569373780861	1	systole	6	A	1578.5670027440333	coherent
148.9676	0.0842569373780861	1	systole	7	A	1578.5670027440333	coherent
149.1437	0.0842569373780861	1	systole	8	B	500.0	coherent
149.3205	0.0842569373780861	1	systole	9	A	1578.5670027440333	coherent
149.82	0.0842569373780861	1	systole	10	A	1578.5670027440333	coherent
150.005	0.0842569373780861	1	systole	11	B	500.0	coherent
150.1906	0.0842569373780861	1	systole	12	A	1578.5670027440333	coherent
150.6175	0.0842569373780861	1	systole	13	A	1578.5670027440333	coherent
150.8099	0.0842569373780861	1	systole	14	B	500.0	coherent
151.003	0.0842569373780861	1	systole	15	A	1578.5670027440333	coherent
151.3874	0.0842569373780861	1	systole	16	A	1578.5670027440333	coherent
151.5798	0.0842569373780861	1	systole	17	B	500.0	coherent
151.7729	0.0842569373780861	1	systole	18	A	1578.5670027440333	coherent
152.1574	0.0842569373780861	1	systole	19	A	1578.5670027440333	coherent
152.3498	0.0842569373780861	1	systole	20	B	500.0	coherent
152.5429	0.0842569373780861	1	systole	21	A	1578.5670027440333	coherent
152.9711	0.0842569373780861	1	systole	22	A	1578.5670027440333	coherent
153.1673	0.0842569373780861	1	systole	23	B	500.0	coherent
153.3641	0.0842569373780861	1	systole	24	A	1578.5670027440333	coherent
153.7694	0.0842569373780861	1	systole	25	A	1578.5670027440333	coherent
153.9678	0.0842569373780861	1	systole	26	B	500.0	coherent
154.1668	0.0842569373780861	1	systole	27	A	1578.5670027440333	coherent
154.5493	0.0842569373780861	1	systole	28	A	1578.5670027440333	coherent
154.7478	0.0842569373780861	1	systole	29	B	500.0	coherent
154.9468	0.0842569373780861	1	systole	30	A	1578.5670027440333	coherent
155.3193	0.0842569373780861	1	systole	31	A	1578.5670027440333	coherent
155.5178	0.0842569373780861	1	systole	32	B	500.0	coherent
155.7168	0.0842569373780861	1	systole	33	A	1578.5670027440333	coherent
156.0893	0.0842569373780861	1	systole	34	A	1578.5670027440333	coherent
156.2878	0.0842569373780861	1	systole	35	B	500.0	coherent
156.4868	0.0842569373780861	1	systole	36	A	1578.5670027440333	coherent
164.421	0.0868782561738044	2	diastole	1	A	1578.5670027440333	coherent
164.5919	0.0868782561738044	2	diastole	2	B	500.0	coherent
164.7635	0.0868782561738044	2	diastole	3	A	1578.5670027440333	coherent
165.0906	0.0868782561738044	2	diastole	4	A	1578.5670027440333	coherent
165.2615	0.0868782561738044	2	diastole	5	B	500.0	coherent
165.4331	0.0868782561738044	2	diastole	6	A	1578.5670027440333	coherent
165.7768	0.0868782561738044	2	diastole	7	A	1578.5670027440333	coherent
165.9468	0.0868782561738044	2	diastole	8	B	500.0	coherent
166.1174	0.0868782561738044	2	diastole	9	A	1578.5670027440333	coherent
166.4294	0.0868782561738044	2	diastole	10	A	1578.5670027440333	coherent
166.5965	0.0868782561738044	2	diastole	11	B	500.0	coherent
166.7643	0.0868782561738044	2	diastole	12	A	1578.5670027440333	coherent
167.0977	0.0868782561738044	2	diastole	13	A	1578.5670027440333	coherent
167.2649	0.0868782561738044	2	diastole	14	B	500.0	coherent
167.4326	0.0868782561738044	2	diastole	15	A	1578.5670027440333	coherent
167.7466	0.0868782561738044	2	diastole	16	A	1578.5670027440333	coherent
167.9135	0.0868782561738044	2	diastole	17	B	500.0	coherent
168.081	0.0868782561738044	2	diastole	18	A	1578.5670027440333	coherent
168.4176	0.0868782561738044	2	diastole	19	A	1578.5670027440333	coherent
168.5848	0.0868782561738044	2	diastole	20	B	500.0	coherent
168.7525	0.0868782561738044	2	diastole	21	A	1578.5670027440333	coherent
169.0876	0.0868782561738044	2	diastole	22	A	1578.5670027440333	coherent
169.2547	0.0868782561738044	2	diastole	23	B	500.0	coherent
169.4225	0.0868782561738044	2	diastole	24	A	1578.5670027440333	coherent
169.7576	0.0868782561738044	2	diastole	25	A	1578.5670027440333	coherent
169.9247	0.0868782561738044	2	diastole	26	B	500.0	coherent
170.0925	0.0868782561738044	2	diastole	27	A	1578.5670027440333	coherent
170.4275	0.0868782561738044	2	diastole	28	A	1578.5670027440333	coherent
170.5946	0.0868782561738044	2	diastole	29	B	500.0	coherent
170.7624	0.0868782561738044	2	diastole	30	A	1578.5670027440333	coherent
171.0764	0.0868782561738044	2	diastole	31	A	1578.5670027440333	coherent
171.2434	0.0868782561738044	2	diastole	32	B	500.0	coherent
171.4109	0.0868782561738044	2	diastole	33	A	1578.5670027440333	coherent
171.7886	0.0868782561738044	2	diastole	34	A	1578.5670027440333	coherent
171.9555	0.0868782561738044	2	diastole	35	B	500.0	coherent
172.1231	0.0868782561738044	2	diastole	36	A	1578.5670027440333	coherent
172.4327	0.0868782561738044	2	diastole	37	A	1578.5670027440333	coherent
172.5987	0.0868782561738044	2	diastole	38	B	500.0	coherent
172.7653	0.0868782561738044	2	diastole	39	A	1578.5670027440333	coherent
173.0828	0.0868782561738044	2	diastole	40	A	1578.5670027440333	coherent
173.2487	0.0868782561738044	2	diastole	41	B	500.0	coherent
173.4153	0.0868782561738044	2	diastole	42	A	1578.5670027440333	coherent
176.9597	0.0762801284727174	3	systole	1	A	2180.0224995339627	coherent
177.1123	0.0762801284727174	3	systole	2	B	500.0	coherent
177.2648	0.0762801284727174	3	systole	3	A	2180.0224995339627	coherent
177.6297	0.0762801284727174	3	systole	4	A	2180.0224995339627	coherent
177.7823	0.0762801284727174	3	systole	5	B	500.0	coherent
177.9348	0.0762801284727174	3	systole	6	A	2180.0224995339627	coherent
178.2997	0.0762801284727174	3	systole	7	A	2180.0224995339627	coherent
178.4524	0.0762801284727174	3	systole	8	B	500.0	coherent
178.6048	0.0762801284727174	3	systole	9	A	2180.0224995339627	coherent
179.4198	0.0762801284727174	3	systole	10	A	2180.0224995339627	coherent
179.5724	0.0762801284727174	3	systole	11	B	500.0	coherent
179.7249	0.0762801284727174	3	systole	12	A	2180.0224995339627	coherent
180.5398	0.0762801284727174	3	systole	13	A	2180.0224995339627	coherent
180.6924	0.0762801284727174	3	systole	14	B	500.0	coherent
180.8449	0.0762801284727174	3	systole	15	A	2180.0224995339627	coherent
181.6598	0.0762801284727174	3	systole	16	A	2180.0224995339627	coherent
181.8125	0.0762801284727174	3	systole	17	B	500.0	coherent
181.9649	0.0762801284727174	3	systole	18	A	2180.0224995339627	coherent
182.4628	0.0762801284727174	3	systole	19	A	2180.0224995339627	coherent
182.6216	0.0762801284727174	3	systole	20	B	500.0	coherent
182.7804	0.0762801284727174	3	systole	21	A	2180.0224995339627	coherent
183.325	0.0762801284727174	3	systole	22	A	2180.0224995339627	coherent
183.5063	0.0762801284727174	3	systole	23	B	500.0	coherent
183.6875	0.0762801284727174	3	systole	24	A	2180.0224995339627	coherent
184.105	0.0762801284727174	3	systole	25	A	2180.0224995339627	coherent
184.2863	0.0762801284727174	3	systole	26	B	500.0	coherent
184.4675	0.0762801284727174	3	systole	27	A	2180.0224995339627	coherent
184.9208	0.0762801284727174	3	systole	28	A	2180.0224995339627	coherent
185.1146	0.0762801284727174	3	systole	29	B	500.0	coherent
185.3083	0.0762801284727174	3	systole	30	A	2180.0224995339627	coherent
185.6809	0.0762801284727174	3	systole	31	A	2180.0224995339627	coherent
185.8747	0.0762801284727174	3	systole	32	B	500.0	coherent
186.0684	0.0762801284727174	3	systole	33	A	2180.0224995339627	coherent
187.7356	0.0974993215641006	4	systole	1	A	1987.9452401467304	coherent
187.9306	0.0974993215641006	4	systole	2	B	500.0	coherent
188.1256	0.0974993215641006	4	systole	3	A	1987.9452401467304	coherent
188.5301	0.0974993215641006	4	systole	4	A	1987.9452401467304	coherent
188.7264	0.0974993215641006	4	systole	5	B	500.0	coherent
188.9226	0.0974993215641006	4	systole	6	A	1987.9452401467304	coherent
189.2898	0.0974993215641006	4	systole	7	A	1987.9452401467304	coherent
189.486	0.0974993215641006	4	systole	8	B	500.0	coherent
189.6823	0.0974993215641006	4	systole	9	A	1987.9452401467304	coherent
190.0494	0.0974993215641006	4	systole	10	A	1987.9452401467304	coherent
190.2457	0.0974993215641006	4	systole	11	B	500.0	coherent
190.4419	0.0974993215641006	4	systole	12	A	1987.9452401467304	coherent
190.7395	0.0974993215641006	4	systole	13	A	1987.9452401467304	coherent
190.9357	0.0974993215641006	4	systole	14	B	500.0	coherent
191.1319	0.0974993215641006	4	systole	15	A	1987.9452401467304	coherent
191.4295	0.0974993215641006	4	systole	16	A	1987.9452401467304	coherent
191.6257	0.0974993215641006	4	systole	17	B	500.0	coherent
191.822	0.0974993215641006	4	systole	18	A	1987.9452401467304	coherent
192.1129	0.0974993215641006	4	systole	19	A	1987.9452401467304	coherent
192.3042	0.0974993215641006	4	systole	20	B	500.0	coherent
192.4955	0.0974993215641006	4	systole	21	A	1987.9452401467304	coherent
192.8146	0.0974993215641006	4	systole	22	A	1987.9452401467304	coherent
193.0059	0.0974993215641006	4	systole	23	B	500.0	coherent
193.1972	0.0974993215641006	4	systole	24	A	1987.9452401467304	coherent
193.5224	0.0974993215641006	4	systole	25	A	1987.9452401467304	coherent
193.7137	0.0974993215641006	4	systole	26	B	500.0	coherent
193.9049	0.0974993215641006	4	systole	27	A	1987.9452401467304	coherent
194.1639	0.0974993215641006	4	systole	28	A	1987.9452401467304	coherent
194.3473	0.0974993215641006	4	systole	29	B	500.0	coherent
194.5308	0.0974993215641006	4	systole	30	A	1987.9452401467304	coherent
194.834	0.0974993215641006	4	systole	31	A	1987.9452401467304	coherent
195.0174	0.0974993215641006	4	systole	32	B	500.0	coherent
195.2009	0.0974993215641006	4	systole	33	A	1987.9452401467304	coherent
195.536	0.0974993215641006	4	systole	34	A	1987.9452401467304	coherent
195.7145	0.0974993215641006	4	systole	35	B	500.0	coherent
195.8931	0.0974993215641006	4	systole	36	A	1987.9452401467304	coherent
196.256	0.0974993215641006	4	systole	37	A	1987.9452401467304	coherent
196.4345	0.0974993215641006	4	systole	38	B	500.0	coherent
196.613	0.0974993215641006	4	systole	39	A	1987.9452401467304	coherent
196.976	0.0974993215641006	4	systole	40	A	1987.9452401467304	coherent
197.1545	0.0974993215641006	4	systole	41	B	500.0	coherent
197.333	0.0974993215641006	4	systole	42	A	1987.9452401467304	coherent
197.6476	0.0974993215641006	4	systole	43	A	1987.9452401467304	coherent
197.8238	0.0974993215641006	4	systole	44	B	500.0	coherent
198.0	0.0974993215641006	4	systole	45	A	1987.9452401467304	coherent
201.1619	0.0887526803126093	5	systole	1	A	2942.014383864825	streaming
201.337	0.0887526803126093	5	systole	2	B	500.0	streaming
201.5119	0.0887526803126093	5	systole	3	A	2942.014383864825	streaming
201.8474	0.0887526803126093	5	systole	4	A	2942.014383864825	streaming
202.0211	0.0887526803126093	5	systole	5	B	500.0	streaming
202.1948	0.0887526803126093	5	systole	6	A	2942.014383864825	streaming
202.5572	0.0887526803126093	5	systole	7	A	2942.014383864825	streaming
202.731	0.0887526803126093	5	systole	8	B	500.0	streaming
202.9046	0.0887526803126093	5	systole	9	A	2942.014383864825	streaming
203.2671	0.0887526803126093	5	systole	10	A	2942.014383864825	streaming
203.4408	0.0887526803126093	5	systole	11	B	500.0	streaming
203.6145	0.0887526803126093	5	systole	12	A	2942.014383864825	streaming
203.937	0.0887526803126093	5	systole	13	A	2942.014383864825	streaming
204.1108	0.0887526803126093	5	systole	14	B	500.0	streaming
204.2844	0.0887526803126093	5	systole	15	A	2942.014383864825	streaming
204.6416	0.0887526803126093	5	systole	16	A	2942.014383864825	streaming
204.8166	0.0887526803126093	5	systole	17	B	500.0	streaming
204.9915	0.0887526803126093	5	systole	18	A	2942.014383864825	streaming
205.3717	0.0887526803126093	5	systole	19	A	2942.014383864825	streaming
205.5468	0.0887526803126093	5	systole	20	B	500.0	streaming
205.7218	0.0887526803126093	5	systole	21	A	2942.014383864825	streaming
206.3162	0.0887526803126093	5	systole	22	A	2942.014383864825	streaming
206.4925	0.0887526803126093	5	systole	23	B	500.0	streaming
206.6687	0.0887526803126093	5	systole	24	A	2942.014383864825	streaming
207.0782	0.0887526803126093	5	systole	25	A	2942.014383864825	streaming
207.2582	0.0887526803126093	5	systole	26	B	500.0	streaming
207.438	0.0887526803126093	5	systole	27	A	2942.014383864825	streaming
207.828	0.0887526803126093	5	systole	28	A	2942.014383864825	streaming
208.0081	0.0887526803126093	5	systole	29	B	500.0	streaming
208.188	0.0887526803126093	5	systole	30	A	2942.014383864825	streaming
208.6057	0.0887526803126093	5	systole	31	A	2942.014383864825	streaming
208.7905	0.0887526803126093	5	systole	32	B	500.0	streaming
208.9753	0.0887526803126093	5	systole	33	A	2942.014383864825	streaming
209.3656	0.0887526803126093	5	systole	34	A	2942.014383864825	streaming
209.5505	0.0887526803126093	5	systole	35	B	500.0	streaming
209.7352	0.0887526803126093	5	systole	36	A	2942.014383864825	streaming
210.1247	0.0887526803126093	5	systole	37	A	2942.014383864825	streaming
210.312	0.0887526803126093	5	systole	38	B	500.0	streaming
210.4992	0.0887526803126093	5	systole	39	A	2942.014383864825	streaming
213.8412	0.0962533999118022	6	diastole	1	A	2180.0224995339627	streaming
214.0338	0.0962533999118022	6	diastole	2	B	500.0	streaming
214.2262	0.0962533999118022	6	diastole	3	A	2180.0224995339627	streaming
214.6712	0.0962533999118022	6	diastole	4	A	2180.0224995339627	streaming
214.8638	0.0962533999118022	6	diastole	5	B	500.0	streaming
215.0562	0.0962533999118022	6	diastole	6	A	2180.0224995339627	streaming
215.5012	0.0962533999118022	6	diastole	7	A	2180.0224995339627	streaming
215.6938	0.0962533999118022	6	diastole	8	B	500.0	streaming
215.8862	0.0962533999118022	6	diastole	9	A	2180.0224995339627	streaming
216.3414	0.0962533999118022	6	diastole	10	A	2180.0224995339627	streaming
216.534	0.0962533999118022	6	diastole	11	B	500.0	streaming
216.7264	0.0962533999118022	6	diastole	12	A	2180.0224995339627	streaming
217.1526	0.0962533999118022	6	diastole	13	A	2180.0224995339627	streaming
217.349	0.0962533999118022	6	diastole	14	B	500.0	streaming
217.5452	0.0962533999118022	6	diastole	15	A	2180.0224995339627	streaming
217.9426	0.0962533999118022	6	diastole	16	A	2180.0224995339627	streaming
218.139	0.0962533999118022	6	diastole	17	B	500.0	streaming
218.3351	0.0962533999118022	6	diastole	18	A	2180.0224995339627	streaming
218.7026	0.0962533999118022	6	diastole	19	A	2180.0224995339627	streaming
218.8989	0.0962533999118022	6	diastole	20	B	500.0	streaming
219.0951	0.0962533999118022	6	diastole	21	A	2180.0224995339627	streaming
219.6078	0.0962533999118022	6	diastole	22	A	2180.0224995339627	streaming
219.8103	0.0962533999118022	6	diastole	23	B	500.0	streaming
220.0128	0.0962533999118022	6	diastole	24	A	2180.0224995339627	streaming
220.4776	0.0962533999118022	6	diastole	25	A	2180.0224995339627	streaming
220.6802	0.0962533999118022	6	diastole	26	B	500.0	streaming
220.8826	0.0962533999118022	6	diastole	27	A	2180.0224995339627	streaming
221.3856	0.0962533999118022	6	diastole	28	A	2180.0224995339627	streaming
221.5931	0.0962533999118022	6	diastole	29	B	500.0	streaming
221.8006	0.0962533999118022	6	diastole	30	A	2180.0224995339627	streaming
222.2652	0.0962533999118022	6	diastole	31	A	2180.0224995339627	streaming
222.4728	0.0962533999118022	6	diastole	32	B	500.0	streaming
222.6802	0.0962533999118022	6	diastole	33	A	2180.0224995339627	streaming
223.037	0.0962533999118022	6	diastole	34	A	2180.0224995339627	streaming
223.2395	0.0962533999118022	6	diastole	35	B	500.0	streaming
223.4419	0.0962533999118022	6	diastole	36	A	2180.0224995339627	streaming
225.7086	0.1006006562383845	7	systole	1	A	1653.0702107864488	coherent
225.9096	0.1006006562383845	7	systole	2	B	500.0	coherent
226.111	0.1006006562383845	7	systole	3	A	1653.0702107864488	coherent
226.559	0.1006006562383845	7	systole	4	A	1653.0702107864488	coherent
226.76	0.1006006562383845	7	systole	5	B	500.0	coherent
226.9614	0.1006006562383845	7	systole	6	A	1653.0702107864488	coherent
227.3448	0.1006006562383845	7	systole	7	A	1653.0702107864488	coherent
227.5445	0.1006006562383845	7	systole	8	B	500.0	coherent
227.7448	0.1006006562383845	7	systole	9	A	1653.0702107864488	coherent
228.1203	0.1006006562383845	7	systole	10	A	1653.0702107864488	coherent
228.3188	0.1006006562383845	7	systole	11	B	500.0	coherent
228.5178	0.1006006562383845	7	systole	12	A	1653.0702107864488	coherent
228.9349	0.1006006562383845	7	systole	13	A	1653.0702107864488	coherent
229.1347	0.1006006562383845	7	systole	14	B	500.0	coherent
229.335	0.1006006562383845	7	systole	15	A	1653.0702107864488	coherent
229.6549	0.1006006562383845	7	systole	16	A	1653.0702107864488	coherent
229.8547	0.1006006562383845	7	systole	17	B	500.0	coherent
230.0549	0.1006006562383845	7	systole	18	A	1653.0702107864488	coherent
230.3749	0.1006006562383845	7	systole	19	A	1653.0702107864488	coherent
230.5746	0.1006006562383845	7	systole	20	B	500.0	coherent
230.7749	0.1006006562383845	7	systole	21	A	1653.0702107864488	coherent
231.09	0.1006006562383845	7	systole	22	A	1653.0702107864488	coherent
231.2886	0.1006006562383845	7	systole	23	B	500.0	coherent
231.4876	0.1006006562383845	7	systole	24	A	1653.0702107864488	coherent
231.791	0.1006006562383845	7	systole	25	A	1653.0702107864488	coherent
231.987	0.1006006562383845	7	systole	26	B	500.0	coherent
232.1836	0.1006006562383845	7	systole	27	A	1653.0702107864488	coherent
232.4211	0.1006006562383845	7	systole	28	A	1653.0702107864488	coherent
232.6171	0.1006006562383845	7	systole	29	B	500.0	coherent
232.8136	0.1006006562383845	7	systole	30	A	1653.0702107864488	coherent
232.9712	0.1006006562383845	7	systole	31	A	1653.0702107864488	coherent
233.1509	0.1006006562383845	7	systole	32	B	500.0	coherent
233.3311	0.1006006562383845	7	systole	33	A	1653.0702107864488	coherent
233.5811	0.1006006562383845	7	systole	34	A	1653.0702107864488	coherent
233.7608	0.1006006562383845	7	systole	35	B	500.0	coherent
233.941	0.1006006562383845	7	systole	36	A	1653.0702107864488	coherent
234.1866	0.1006006562383845	7	systole	37	A	1653.0702107864488	coherent
234.3651	0.1006006562383845	7	systole	38	B	500.0	coherent
234.5441	0.1006006562383845	7	systole	39	A	1653.0702107864488	coherent
235.2355	0.1006006562383845	7	systole	40	A	1653.0702107864488	coherent
235.4028	0.1006006562383845	7	systole	41	B	500.0	coherent
235.5705	0.1006006562383845	7	systole	42	A	1653.0702107864488	coherent
238.8662	0.0837600549857597	8	diastole	1	A	1253.4921645871675	coherent
239.0437	0.0837600549857597	8	diastole	2	B	500.0	coherent
239.2212	0.0837600549857597	8	diastole	3	A	1253.4921645871675	coherent
239.6862	0.0837600549857597	8	diastole	4	A	1253.4921645871675	coherent
239.8637	0.0837600549857597	8	diastole	5	B	500.0	coherent
240.0412	0.0837600549857597	8	diastole	6	A	1253.4921645871675	coherent
240.4872	0.0837600549857597	8	diastole	7	A	1253.4921645871675	coherent
240.6772	0.0837600549857597	8	diastole	8	B	500.0	coherent
240.8673	0.0837600549857597	8	diastole	9	A	1253.4921645871675	coherent
241.1972	0.0837600549857597	8	diastole	10	A	1253.4921645871675	coherent
241.3872	0.0837600549857597	8	diastole	11	B	500.0	coherent
241.5773	0.0837600549857597	8	diastole	12	A	1253.4921645871675	coherent
241.9072	0.0837600549857597	8	diastole	13	A	1253.4921645871675	coherent
242.0972	0.0837600549857597	8	diastole	14	B	500.0	coherent
242.2872	0.0837600549857597	8	diastole	15	A	1253.4921645871675	coherent
242.6272	0.0837600549857597	8	diastole	16	A	1253.4921645871675	coherent
242.8172	0.0837600549857597	8	diastole	17	B	500.0	coherent
243.0072	0.0837600549857597	8	diastole	18	A	1253.4921645871675	coherent
243.3742	0.0837600549857597	8	diastole	19	A	1253.4921645871675	coherent
243.5654	0.0837600549857597	8	diastole	20	B	500.0	coherent
243.7567	0.0837600549857597	8	diastole	21	A	1253.4921645871675	coherent
244.1142	0.0837600549857597	8	diastole	22	A	1253.4921645871675	coherent
244.3054	0.0837600549857597	8	diastole	23	B	500.0	coherent
244.4967	0.0837600549857597	8	diastole	24	A	1253.4921645871675	coherent
244.7918	0.0837600549857597	8	diastole	25	A	1253.4921645871675	coherent
244.9755	0.0837600549857597	8	diastole	26	B	500.0	coherent
245.1593	0.0837600549857597	8	diastole	27	A	1253.4921645871675	coherent
245.5318	0.0837600549857597	8	diastole	28	A	1253.4921645871675	coherent
245.7156	0.0837600549857597	8	diastole	29	B	500.0	coherent
245.8993	0.0837600549857597	8	diastole	30	A	1253.4921645871675	coherent
246.2547	0.0837600549857597	8	diastole	31	A	1253.4921645871675	coherent
246.4372	0.0837600549857597	8	diastole	32	B	500.0	coherent
246.6198	0.0837600549857597	8	diastole	33	A	1253.4921645871675	coherent
246.9447	0.0837600549857597	8	diastole	34	A	1253.4921645871675	coherent
247.1272	0.0837600549857597	8	diastole	35	B	500.0	coherent
247.3097	0.0837600549857597	8	diastole	36	A	1253.4921645871675	coherent
249.6922	0.0900008663302287	9	diastole	1	A	2621.646269519023	streaming
249.8722	0.0900008663302287	9	diastole	2	B	500.0	streaming
250.0522	0.0900008663302287	9	diastole	3	A	2621.646269519023	streaming
250.404	0.0900008663302287	9	diastole	4	A	2621.646269519023	streaming
250.5839	0.0900008663302287	9	diastole	5	B	500.0	streaming
250.764	0.0900008663302287	9	diastole	6	A	2621.646269519023	streaming
251.1082	0.0900008663302287	9	diastole	7	A	2621.646269519023	streaming
251.287	0.0900008663302287	9	diastole	8	B	500.0	streaming
251.4661	0.0900008663302287	9	diastole	9	A	2621.646269519023	streaming
251.8182	0.0900008663302287	9	diastole	10	A	2621.646269519023	streaming
251.9971	0.0900008663302287	9	diastole	11	B	500.0	streaming
252.1761	0.0900008663302287	9	diastole	12	A	2621.646269519023	streaming
252.5562	0.0900008663302287	9	diastole	13	A	2621.646269519023	streaming
252.7351	0.0900008663302287	9	diastole	14	B	500.0	streaming
252.9141	0.0900008663302287	9	diastole	15	A	2621.646269519023	streaming
253.2379	0.0900008663302287	9	diastole	16	A	2621.646269519023	streaming
253.4153	0.0900008663302287	9	diastole	17	B	500.0	streaming
253.5929	0.0900008663302287	9	diastole	18	A	2621.646269519023	streaming
253.9279	0.0900008663302287	9	diastole	19	A	2621.646269519023	streaming
254.1054	0.0900008663302287	9	diastole	20	B	500.0	streaming
254.2829	0.0900008663302287	9	diastole	21	A	2621.646269519023	streaming
254.6363	0.0900008663302287	9	diastole	22	A	2621.646269519023	streaming
254.8138	0.0900008663302287	9	diastole	23	B	500.0	streaming
254.9913	0.0900008663302287	9	diastole	24	A	2621.646269519023	streaming
255.3448	0.0900008663302287	9	diastole	25	A	2621.646269519023	streaming
255.5222	0.0900008663302287	9	diastole	26	B	500.0	streaming
255.6998	0.0900008663302287	9	diastole	27	A	2621.646269519023	streaming
256.0532	0.0900008663302287	9	diastole	28	A	2621.646269519023	streaming
256.2306	0.0900008663302287	9	diastole	29	B	500.0	streaming
256.4082	0.0900008663302287	9	diastole	30	A	2621.646269519023	streaming
256.8642	0.0900008663302287	9	diastole	31	A	2621.646269519023	streaming
257.0454	0.0900008663302287	9	diastole	32	B	500.0	streaming
257.2267	0.0900008663302287	9	diastole	33	A	2621.646269519023	streaming
257.6741	0.0900008663302287	9	diastole	34	A	2621.646269519023	streaming
257.8587	0.0900008663302287	9	diastole	35	B	500.0	streaming
258.0435	0.0900008663302287	9	diastole	36	A	2621.646269519023	streaming
258.4642	0.0900008663302287	9	diastole	37	A	2621.646269519023	streaming
258.6488	0.0900008663302287	9	diastole	38	B	500.0	streaming
258.8335	0.0900008663302287	9	diastole	39	A	2621.646269519023	streaming
261.5099	0.0937244709348306	10	diastole	1	A	1196.9977780158051	streaming
261.6986	0.0937244709348306	10	diastole	2	B	500.0	streaming
261.8874	0.0937244709348306	10	diastole	3	A	1196.9977780158051	streaming
262.1987	0.0937244709348306	10	diastole	4	A	1196.9977780158051	streaming
262.3837	0.0937244709348306	10	diastole	5	B	500.0	streaming
262.5687	0.0937244709348306	10	diastole	6	A	1196.9977780158051	streaming
262.9088	0.0937244709348306	10	diastole	7	A	1196.9977780158051	streaming
263.0937	0.0937244709348306	10	diastole	8	B	500.0	streaming
263.2788	0.0937244709348306	10	diastole	9	A	1196.9977780158051	streaming
263.5946	0.0937244709348306	10	diastole	10	A	1196.9977780158051	streaming
263.7771	0.0937244709348306	10	diastole	11	B	500.0	streaming
263.9596	0.0937244709348306	10	diastole	12	A	1196.9977780158051	streaming
264.2374	0.0937244709348306	10	diastole	13	A	1196.9977780158051	streaming
264.4186	0.0937244709348306	10	diastole	14	B	500.0	streaming
264.5999	0.0937244709348306	10	diastole	15	A	1196.9977780158051	streaming
264.8874	0.0937244709348306	10	diastole	16	A	1196.9977780158051	streaming
265.0686	0.0937244709348306	10	diastole	17	B	500.0	streaming
265.2499	0.0937244709348306	10	diastole	18	A	1196.9977780158051	streaming
265.5033	0.0937244709348306	10	diastole	19	A	1196.9977780158051	streaming
265.6819	0.0937244709348306	10	diastole	20	B	500.0	streaming
265.8607	0.0937244709348306	10	diastole	21	A	1196.9977780158051	streaming
266.1332	0.0937244709348306	10	diastole	22	A	1196.9977780158051	streaming
266.3119	0.0937244709348306	10	diastole	23	B	500.0	streaming
266.4907	0.0937244709348306	10	diastole	24	A	1196.9977780158051	streaming
266.725	0.0937244709348306	10	diastole	25	A	1196.9977780158051	streaming
266.8987	0.0937244709348306	10	diastole	26	B	500.0	streaming
267.0725	0.0937244709348306	10	diastole	27	A	1196.9977780158051	streaming
267.3451	0.0937244709348306	10	diastole	28	A	1196.9977780158051	streaming
267.5188	0.0937244709348306	10	diastole	29	B	500.0	streaming
267.6926	0.0937244709348306	10	diastole	30	A	1196.9977780158051	streaming
267.9296	0.0937244709348306	10	diastole	31	A	1196.9977780158051	streaming
268.0971	0.0937244709348306	10	diastole	32	B	500.0	streaming
268.2646	0.0937244709348306	10	diastole	33	A	1196.9977780158051	streaming
268.6026	0.0937244709348306	10	diastole	34	A	1196.9977780158051	streaming
268.7688	0.0937244709348306	10	diastole	35	B	500.0	streaming
268.9351	0.0937244709348306	10	diastole	36	A	1196.9977780158051	streaming
269.2826	0.0937244709348306	10	diastole	37	A	1196.9977780158051	streaming
269.4488	0.0937244709348306	10	diastole	38	B	500.0	streaming
269.6151	0.0937244709348306	10	diastole	39	A	1196.9977780158051	streaming
269.9926	0.0937244709348306	10	diastole	40	A	1196.9977780158051	streaming
270.1588	0.0937244709348306	10	diastole	41	B	500.0	streaming
270.3251	0.0937244709348306	10	diastole	42	A	1196.9977780158051	streaming
270.7025	0.0937244709348306	10	diastole	43	A	1196.9977780158051	streaming
270.8688	0.0937244709348306	10	diastole	44	B	500.0	streaming
271.0351	0.0937244709348306	10	diastole	45	A	1196.9977780158051	streaming
274.0598	0.0862536239437758	11	diastole	1	A	754.7629107028698	coherent
274.2353	0.0862536239437758	11	diastole	2	B	500.0	coherent
274.4123	0.0862536239437758	11	diastole	3	A	754.7629107028698	coherent
275.2696	0.0862536239437758	11	diastole	4	A	754.7629107028698	coherent
275.4451	0.0862536239437758	11	diastole	5	B	500.0	coherent
275.6221	0.0862536239437758	11	diastole	6	A	754.7629107028698	coherent
276.2696	0.0862536239437758	11	diastole	7	A	754.7629107028698	coherent
276.4452	0.0862536239437758	11	diastole	8	B	500.0	coherent
276.6222	0.0862536239437758	11	diastole	9	A	754.7629107028698	coherent
277.2697	0.0862536239437758	11	diastole	10	A	754.7629107028698	coherent
277.4452	0.0862536239437758	11	diastole	11	B	500.0	coherent
277.6221	0.0862536239437758	11	diastole	12	A	754.7629107028698	coherent
278.0993	0.0862536239437758	11	diastole	13	A	754.7629107028698	coherent
278.2836	0.0862536239437758	11	diastole	14	B	500.0	coherent
278.4694	0.0862536239437758	11	diastole	15	A	754.7629107028698	coherent
278.8794	0.0862536239437758	11	diastole	16	A	754.7629107028698	coherent
279.0637	0.0862536239437758	11	diastole	17	B	500.0	coherent
279.2494	0.0862536239437758	11	diastole	18	A	754.7629107028698	coherent
279.6988	0.0862536239437758	11	diastole	19	A	754.7629107028698	coherent
279.8918	0.0862536239437758	11	diastole	20	B	500.0	coherent
280.0863	0.0862536239437758	11	diastole	21	A	754.7629107028698	coherent
280.4688	0.0862536239437758	11	diastole	22	A	754.7629107028698	coherent
280.6618	0.0862536239437758	11	diastole	23	B	500.0	coherent
280.8563	0.0862536239437758	11	diastole	24	A	754.7629107028698	coherent
281.3001	0.0862536239437758	11	diastole	25	A	754.7629107028698	coherent
281.4969	0.0862536239437758	11	diastole	26	B	500.0	coherent
281.6951	0.0862536239437758	11	diastole	27	A	754.7629107028698	coherent
282.2213	0.0862536239437758	11	diastole	28	A	754.7629107028698	coherent
282.4218	0.0862536239437758	11	diastole	29	B	500.0	coherent
282.6238	0.0862536239437758	11	diastole	30	A	754.7629107028698	coherent
283.2723	0.0862536239437758	11	diastole	31	A	754.7629107028698	coherent
283.4853	0.0862536239437758	11	diastole	32	B	500.0	coherent
283.6998	0.0862536239437758	11	diastole	33	A	754.7629107028698	coherent
285.6009	0.0975033341674134	12	systole	1	A	3457.353363503972	streaming
285.7947	0.0975033341674134	12	systole	2	B	500.0	streaming
285.9884	0.0975033341674134	12	systole	3	A	3457.353363503972	streaming
286.2763	0.0975033341674134	12	systole	4	A	3457.353363503972	streaming
286.4687	0.0975033341674134	12	systole	5	B	500.0	streaming
286.6613	0.0975033341674134	12	systole	6	A	3457.353363503972	streaming
286.9562	0.0975033341674134	12	systole	7	A	3457.353363503972	streaming
287.1486	0.0975033341674134	12	systole	8	B	500.0	streaming
287.3412	0.0975033341674134	12	systole	9	A	3457.353363503972	streaming
287.627	0.0975033341674134	12	systole	10	A	3457.353363503972	streaming
287.817	0.0975033341674134	12	systole	11	B	500.0	streaming
288.007	0.0975033341674134	12	systole	12	A	3457.353363503972	streaming
288.2833	0.0975033341674134	12	systole	13	A	3457.353363503972	streaming
288.4696	0.0975033341674134	12	systole	14	B	500.0	streaming
288.6558	0.0975033341674134	12	systole	15	A	3457.353363503972	streaming
288.9021	0.0975033341674134	12	systole	16	A	3457.353363503972	streaming
289.0771	0.0975033341674134	12	systole	17	B	500.0	streaming
289.2522	0.0975033341674134	12	systole	18	A	3457.353363503972	streaming
289.5622	0.0975033341674134	12	systole	19	A	3457.353363503972	streaming
289.7371	0.0975033341674134	12	systole	20	B	500.0	streaming
289.9122	0.0975033341674134	12	systole	21	A	3457.353363503972	streaming
290.1937	0.0975033341674134	12	systole	22	A	3457.353363503972	streaming
290.3637	0.0975033341674134	12	systole	23	B	500.0	streaming
290.5337	0.0975033341674134	12	systole	24	A	3457.353363503972	streaming
290.8392	0.0975033341674134	12	systole	25	A	3457.353363503972	streaming
291.0079	0.0975033341674134	12	systole	26	B	500.0	streaming
291.1767	0.0975033341674134	12	systole	27	A	3457.353363503972	streaming
291.5145	0.0975033341674134	12	systole	28	A	3457.353363503972	streaming
291.682	0.0975033341674134	12	systole	29	B	500.0	streaming
291.8495	0.0975033341674134	12	systole	30	A	3457.353363503972	streaming
292.1944	0.0975033341674134	12	systole	31	A	3457.353363503972	streaming
292.3619	0.0975033341674134	12	systole	32	B	500.0	streaming
292.5294	0.0975033341674134	12	systole	33	A	3457.353363503972	streaming
292.9045	0.0975033341674134	12	systole	34	A	3457.353363503972	streaming
293.072	0.0975033341674134	12	systole	35	B	500.0	streaming
293.2395	0.0975033341674134	12	systole	36	A	3457.353363503972	streaming
293.6146	0.0975033341674134	12	systole	37	A	3457.353363503972	streaming
293.7821	0.0975033341674134	12	systole	38	B	500.0	streaming
293.9496	0.0975033341674134	12	systole	39	A	3457.353363503972	streaming
294.3246	0.0975033341674134	12	systole	40	A	3457.353363503972	streaming
294.492	0.0975033341674134	12	systole	41	B	500.0	streaming
294.6596	0.0975033341674134	12	systole	42	A	3457.353363503972	streaming
295.0762	0.0975033341674134	12	systole	43	A	3457.353363503972	streaming
295.2437	0.0975033341674134	12	systole	44	B	500.0	streaming
295.4112	0.0975033341674134	12	systole	45	A	3457.353363503972	streaming
297.9012	0.0887459196383133	13	systole	1	A	3457.353363503972	coherent
298.0786	0.0887459196383133	13	systole	2	B	500.0	coherent
298.2562	0.0887459196383133	13	systole	3	A	3457.353363503972	coherent
298.5812	0.0887459196383133	13	systole	4	A	3457.353363503972	coherent
298.7587	0.0887459196383133	13	systole	5	B	500.0	coherent
298.9362	0.0887459196383133	13	systole	6	A	3457.353363503972	coherent
299.2413	0.0887459196383133	13	systole	7	A	3457.353363503972	coherent
299.4187	0.0887459196383133	13	systole	8	B	500.0	coherent
299.5962	0.0887459196383133	13	systole	9	A	3457.353363503972	coherent
299.9012	0.0887459196383133	13	systole	10	A	3457.353363503972	coherent
300.0787	0.0887459196383133	13	systole	11	B	500.0	coherent
300.2562	0.0887459196383133	13	systole	12	A	3457.353363503972	coherent
300.5611	0.0887459196383133	13	systole	13	A	3457.353363503972	coherent
300.7385	0.0887459196383133	13	systole	14	B	500.0	coherent
300.9161	0.0887459196383133	13	systole	15	A	3457.353363503972	coherent
301.2074	0.0887459196383133	13	systole	16	A	3457.353363503972	coherent
301.3811	0.0887459196383133	13	systole	17	B	500.0	coherent
301.5548	0.0887459196383133	13	systole	18	A	3457.353363503972	coherent
301.8737	0.0887459196383133	13	systole	19	A	3457.353363503972	coherent
302.0437	0.0887459196383133	13	systole	20	B	500.0	coherent
302.2137	0.0887459196383133	13	systole	21	A	3457.353363503972	coherent
302.5838	0.0887459196383133	13	systole	22	A	3457.353363503972	coherent
302.7537	0.0887459196383133	13	systole	23	B	500.0	coherent
302.9238	0.0887459196383133	13	systole	24	A	3457.353363503972	coherent
303.2938	0.0887459196383133	13	systole	25	A	3457.353363503972	coherent
303.4638	0.0887459196383133	13	systole	26	B	500.0	coherent
303.6338	0.0887459196383133	13	systole	27	A	3457.353363503972	coherent
304.0039	0.0887459196383133	13	systole	28	A	3457.353363503972	coherent
304.1738	0.0887459196383133	13	systole	29	B	500.0	coherent
304.3439	0.0887459196383133	13	systole	30	A	3457.353363503972	coherent
304.7239	0.0887459196383133	13	systole	31	A	3457.353363503972	coherent
304.8938	0.0887459196383133	13	systole	32	B	500.0	coherent
305.0639	0.0887459196383133	13	systole	33	A	3457.353363503972	coherent
305.4376	0.0887459196383133	13	systole	34	A	3457.353363503972	coherent
305.6113	0.0887459196383133	13	systole	35	B	500.0	coherent
305.7851	0.0887459196383133	13	systole	36	A	3457.353363503972	coherent
306.1376	0.0887459196383133	13	systole	37	A	3457.353363503972	coherent
306.3113	0.0887459196383133	13	systole	38	B	500.0	coherent
306.4851	0.0887459196383133	13	systole	39	A	3457.353363503972	coherent
306.8174	0.0887459196383133	13	systole	40	A	3457.353363503972	coherent
306.9911	0.0887459196383133	13	systole	41	B	500.0	coherent
307.1649	0.0887459196383133	13	systole	42	A	3457.353363503972	coherent
309.7106	0.0862504125107079	14	diastole	1	A	3010.640720484466	coherent
309.8819	0.0862504125107079	14	diastole	2	B	500.0	coherent
310.053	0.0862504125107079	14	diastole	3	A	3010.640720484466	coherent
310.3124	0.0862504125107079	14	diastole	4	A	3010.640720484466	coherent
310.4787	0.0862504125107079	14	diastole	5	B	500.0	coherent
310.6449	0.0862504125107079	14	diastole	6	A	3010.640720484466	coherent
310.9415	0.0862504125107079	14	diastole	7	A	3010.640720484466	coherent
311.1041	0.0862504125107079	14	diastole	8	B	500.0	coherent
311.2665	0.0862504125107079	14	diastole	9	A	3010.640720484466	coherent
311.6015	0.0862504125107079	14	diastole	10	A	3010.640720484466	coherent
311.7641	0.0862504125107079	14	diastole	11	B	500.0	coherent
311.9265	0.0862504125107079	14	diastole	12	A	3010.640720484466	coherent
312.2614	0.0862504125107079	14	diastole	13	A	3010.640720484466	coherent
312.424	0.0862504125107079	14	diastole	14	B	500.0	coherent
312.5865	0.0862504125107079	14	diastole	15	A	3010.640720484466	coherent
312.9314	0.0862504125107079	14	diastole	16	A	3010.640720484466	coherent
313.094	0.0862504125107079	14	diastole	17	B	500.0	coherent
313.2565	0.0862504125107079	14	diastole	18	A	3010.640720484466	coherent
313.5342	0.0862504125107079	14	diastole	19	A	3010.640720484466	coherent
313.6955	0.0862504125107079	14	diastole	20	B	500.0	coherent
313.8567	0.0862504125107079	14	diastole	21	A	3010.640720484466	coherent
314.1442	0.0862504125107079	14	diastole	22	A	3010.640720484466	coherent
314.3056	0.0862504125107079	14	diastole	23	B	500.0	coherent
314.4667	0.0862504125107079	14	diastole	24	A	3010.640720484466	coherent
314.7543	0.0862504125107079	14	diastole	25	A	3010.640720484466	coherent
314.9156	0.0862504125107079	14	diastole	26	B	500.0	coherent
315.0768	0.0862504125107079	14	diastole	27	A	3010.640720484466	coherent
315.3643	0.0862504125107079	14	diastole	28	A	3010.640720484466	coherent
315.5256	0.0862504125107079	14	diastole	29	B	500.0	coherent
315.6868	0.0862504125107079	14	diastole	30	A	3010.640720484466	coherent
315.96	0.0862504125107079	14	diastole	31	A	3010.640720484466	coherent
316.1189	0.0862504125107079	14	diastole	32	B	500.0	coherent
316.2775	0.0862504125107079	14	diastole	33	A	3010.640720484466	coherent
316.5488	0.0862504125107079	14	diastole	34	A	3010.640720484466	coherent
316.7039	0.0862504125107079	14	diastole	35	B	500.0	coherent
316.8588	0.0862504125107079	14	diastole	36	A	3010.640720484466	coherent
317.1917	0.0862504125107079	14	diastole	37	A	3010.640720484466	coherent
317.3456	0.0862504125107079	14	diastole	38	B	500.0	coherent
317.4992	0.0862504125107079	14	diastole	39	A	3010.640720484466	coherent
317.8417	0.0862504125107079	14	diastole	40	A	3010.640720484466	coherent
317.9956	0.0862504125107079	14	diastole	41	B	500.0	coherent
318.1493	0.0862504125107079	14	diastole	42	A	3010.640720484466	coherent
318.5017	0.0862504125107079	14	diastole	43	A	3010.640720484466	coherent
318.6555	0.0862504125107079	14	diastole	44	B	500.0	coherent
318.8092	0.0862504125107079	14	diastole	45	A	3010.640720484466	coherent
321.0349	0.0818729413440451	15	systole	1	A	1507.4216242556154	coherent
321.202	0.0818729413440451	15	systole	2	B	500.0	coherent
321.3699	0.0818729413440451	15	systole	3	A	1507.4216242556154	coherent
321.7349	0.0818729413440451	15	systole	4	A	1507.4216242556154	coherent
321.902	0.0818729413440451	15	systole	5	B	500.0	coherent
322.0699	0.0818729413440451	15	systole	6	A	1507.4216242556154	coherent
322.4341	0.0818729413440451	15	systole	7	A	1507.4216242556154	coherent
322.6037	0.0818729413440451	15	systole	8	B	500.0	coherent
322.774	0.0818729413440451	15	systole	9	A	1507.4216242556154	coherent
323.1386	0.0818729413440451	15	systole	10	A	1507.4216242556154	coherent
323.3095	0.0818729413440451	15	systole	11	B	500.0	coherent
323.4811	0.0818729413440451	15	systole	12	A	1507.4216242556154	coherent
323.8086	0.0818729413440451	15	systole	13	A	1507.4216242556154	coherent
323.9795	0.0818729413440451	15	systole	14	B	500.0	coherent
324.1511	0.0818729413440451	15	systole	15	A	1507.4216242556154	coherent
324.4832	0.0818729413440451	15	systole	16	A	1507.4216242556154	coherent
324.6553	0.0818729413440451	15	systole	17	B	500.0	coherent
324.8282	0.0818729413440451	15	systole	18	A	1507.4216242556154	coherent
325.1932	0.0818729413440451	15	systole	19	A	1507.4216242556154	coherent
325.3653	0.0818729413440451	15	systole	20	B	500.0	coherent
325.5382	0.0818729413440451	15	systole	21	A	1507.4216242556154	coherent
325.8487	0.0818729413440451	15	systole	22	A	1507.4216242556154	coherent
326.0196	0.0818729413440451	15	systole	23	B	500.0	coherent
326.1912	0.0818729413440451	15	systole	24	A	1507.4216242556154	coherent
326.5187	0.0818729413440451	15	systole	25	A	1507.4216242556154	coherent
326.6895	0.0818729413440451	15	systole	26	B	500.0	coherent
326.8612	0.0818729413440451	15	systole	27	A	1507.4216242556154	coherent
327.1886	0.0818729413440451	15	systole	28	A	1507.4216242556154	coherent
327.3595	0.0818729413440451	15	systole	29	B	500.0	coherent
327.5311	0.0818729413440451	15	systole	30	A	1507.4216242556154	coherent
327.8832	0.0818729413440451	15	systole	31	A	1507.4216242556154	coherent
328.0553	0.0818729413440451	15	systole	32	B	500.0	coherent
328.2281	0.0818729413440451	15	systole	33	A	1507.4216242556154	coherent
328.6132	0.0818729413440451	15	systole	34	A	1507.4216242556154	coherent
328.7853	0.0818729413440451	15	systole	35	B	500.0	coherent
328.9582	0.0818729413440451	15	systole	36	A	1507.4216242556154	coherent
329.3432	0.0818729413440451	15	systole	37	A	1507.4216242556154	coherent
329.5153	0.0818729413440451	15	systole	38	B	500.0	coherent
329.6882	0.0818729413440451	15	systole	39	A	1507.4216242556154	coherent
330.0733	0.0818729413440451	15	systole	40	A	1507.4216242556154	coherent
330.2454	0.0818729413440451	15	systole	41	B	500.0	coherent
330.4182	0.0818729413440451	15	systole	42	A	1507.4216242556154	coherent
330.8862	0.0818729413440451	15	systole	43	A	1507.4216242556154	coherent
331.0646	0.0818729413440451	15	systole	44	B	500.0	coherent
331.2437	0.0818729413440451	15	systole	45	A	1507.4216242556154	coherent
334.2925	0.0906320926733315	16	diastole	1	A	754.7629107028698	coherent
334.4754	0.0906320926733315	16	diastole	2	B	500.0	coherent
334.6599	0.0906320926733315	16	diastole	3	A	754.7629107028698	coherent
335.0124	0.0906320926733315	16	diastole	4	A	754.7629107028698	coherent
335.1954	0.0906320926733315	16	diastole	5	B	500.0	coherent
335.3799	0.0906320926733315	16	diastole	6	A	754.7629107028698	coherent
335.7255	0.0906320926733315	16	diastole	7	A	754.7629107028698	coherent
335.9072	0.0906320926733315	16	diastole	8	B	500.0	coherent
336.0905	0.0906320926733315	16	diastole	9	A	754.7629107028698	coherent
336.4456	0.0906320926733315	16	diastole	10	A	754.7629107028698	coherent
336.6273	0.0906320926733315	16	diastole	11	B	500.0	coherent
336.8106	0.0906320926733315	16	diastole	12	A	754.7629107028698	coherent
337.1683	0.0906320926733315	16	diastole	13	A	754.7629107028698	coherent
337.3502	0.0906320926733315	16	diastole	14	B	500.0	coherent
337.5336	0.0906320926733315	16	diastole	15	A	754.7629107028698	coherent
337.9225	0.0906320926733315	16	diastole	16	A	754.7629107028698	coherent
338.1055	0.0906320926733315	16	diastole	17	B	500.0	coherent
338.29	0.0906320926733315	16	diastole	18	A	754.7629107028698	coherent
338.6566	0.0906320926733315	16	diastole	19	A	754.7629107028698	coherent
338.8386	0.0906320926733315	16	diastole	20	B	500.0	coherent
339.022	0.0906320926733315	16	diastole	21	A	754.7629107028698	coherent
339.3626	0.0906320926733315	16	diastole	22	A	754.7629107028698	coherent
339.5421	0.0906320926733315	16	diastole	23	B	500.0	coherent
339.723	0.0906320926733315	16	diastole	24	A	754.7629107028698	coherent
340.0827	0.0906320926733315	16	diastole	25	A	754.7629107028698	coherent
340.2622	0.0906320926733315	16	diastole	26	B	500.0	coherent
340.4431	0.0906320926733315	16	diastole	27	A	754.7629107028698	coherent
340.7415	0.0906320926733315	16	diastole	28	A	754.7629107028698	coherent
340.9208	0.0906320926733315	16	diastole	29	B	500.0	coherent
341.1016	0.0906320926733315	16	diastole	30	A	754.7629107028698	coherent
341.3916	0.0906320926733315	16	diastole	31	A	754.7629107028698	coherent
341.5708	0.0906320926733315	16	diastole	32	B	500.0	coherent
341.7516	0.0906320926733315	16	diastole	33	A	754.7629107028698	coherent
342.0515	0.0906320926733315	16	diastole	34	A	754.7629107028698	coherent
342.2308	0.0906320926733315	16	diastole	35	B	500.0	coherent
342.4115	0.0906320926733315	16	diastole	36	A	754.7629107028698	coherent
342.7331	0.0906320926733315	16	diastole	37	A	754.7629107028698	coherent
342.9073	0.0906320926733315	16	diastole	38	B	500.0	coherent
343.0831	0.0906320926733315	16	diastole	39	A	754.7629107028698	coherent
345.481	0.0862511250306852	17	diastole	1	A	4665.815755436727	coherent
345.6522	0.0862511250306852	17	diastole	2	B	500.0	coherent
345.8235	0.0862511250306852	17	diastole	3	A	4665.815755436727	coherent
346.161	0.0862511250306852	17	diastole	4	A	4665.815755436727	coherent
346.3322	0.0862511250306852	17	diastole	5	B	500.0	coherent
346.5035	0.0862511250306852	17	diastole	6	A	4665.815755436727	coherent
346.834	0.0862511250306852	17	diastole	7	A	4665.815755436727	coherent
347.0039	0.0862511250306852	17	diastole	8	B	500.0	coherent
347.174	0.0862511250306852	17	diastole	9	A	4665.815755436727	coherent
347.514	0.0862511250306852	17	diastole	10	A	4665.815755436727	coherent
347.6839	0.0862511250306852	17	diastole	11	B	500.0	coherent
347.854	0.0862511250306852	17	diastole	12	A	4665.815755436727	coherent
348.2211	0.0862511250306852	17	diastole	13	A	4665.815755436727	coherent
348.3923	0.0862511250306852	17	diastole	14	B	500.0	coherent
348.5637	0.0862511250306852	17	diastole	15	A	4665.815755436727	coherent
349.0252	0.0862511250306852	17	diastole	16	A	4665.815755436727	coherent
349.1989	0.0862511250306852	17	diastole	17	B	500.0	coherent
349.3727	0.0862511250306852	17	diastole	18	A	4665.815755436727	coherent
349.8335	0.0862511250306852	17	diastole	19	A	4665.815755436727	coherent
350.0122	0.0862511250306852	17	diastole	20	B	500.0	coherent
350.191	0.0862511250306852	17	diastole	21	A	4665.815755436727	coherent
350.6135	0.0862511250306852	17	diastole	22	A	4665.815755436727	coherent
350.7922	0.0862511250306852	17	diastole	23	B	500.0	coherent
350.971	0.0862511250306852	17	diastole	24	A	4665.815755436727	coherent
351.4789	0.0862511250306852	17	diastole	25	A	4665.815755436727	coherent
351.6638	0.0862511250306852	17	diastole	26	B	500.0	coherent
351.8489	0.0862511250306852	17	diastole	27	A	4665.815755436727	coherent
352.309	0.0862511250306852	17	diastole	28	A	4665.815755436727	coherent
352.4939	0.0862511250306852	17	diastole	29	B	500.0	coherent
352.679	0.0862511250306852	17	diastole	30	A	4665.815755436727	coherent
353.1057	0.0862511250306852	17	diastole	31	A	4665.815755436727	coherent
353.3006	0.0862511250306852	17	diastole	32	B	500.0	coherent
353.4957	0.0862511250306852	17	diastole	33	A	4665.815755436727	coherent
353.8458	0.0862511250306852	17	diastole	34	A	4665.815755436727	coherent
354.0407	0.0862511250306852	17	diastole	35	B	500.0	coherent
354.2358	0.0862511250306852	17	diastole	36	A	4665.815755436727	coherent
354.5558	0.0862511250306852	17	diastole	37	A	4665.815755436727	coherent
354.7507	0.0862511250306852	17	diastole	38	B	500.0	coherent
354.9458	0.0862511250306852	17	diastole	39	A	4665.815755436727	coherent
357.8199	0.0900990203372202	18	diastole	1	A	790.3852555644094	coherent
357.9919	0.0900990203372202	18	diastole	2	B	500.0	coherent
358.1653	0.0900990203372202	18	diastole	3	A	790.3852555644094	coherent
358.4699	0.0900990203372202	18	diastole	4	A	790.3852555644094	coherent
358.6419	0.0900990203372202	18	diastole	5	B	500.0	coherent
358.8153	0.0900990203372202	18	diastole	6	A	790.3852555644094	coherent
359.1286	0.0900990203372202	18	diastole	7	A	790.3852555644094	coherent
359.2969	0.0900990203372202	18	diastole	8	B	500.0	coherent
359.4665	0.0900990203372202	18	diastole	9	A	790.3852555644094	coherent
359.8086	0.0900990203372202	18	diastole	10	A	790.3852555644094	coherent
359.9769	0.0900990203372202	18	diastole	11	B	500.0	coherent
360.1465	0.0900990203372202	18	diastole	12	A	790.3852555644094	coherent
360.4986	0.0900990203372202	18	diastole	13	A	790.3852555644094	coherent
360.6669	0.0900990203372202	18	diastole	14	B	500.0	coherent
360.8365	0.0900990203372202	18	diastole	15	A	790.3852555644094	coherent
361.1881	0.0900990203372202	18	diastole	16	A	790.3852555644094	coherent
361.3564	0.0900990203372202	18	diastole	17	B	500.0	coherent
361.526	0.0900990203372202	18	diastole	18	A	790.3852555644094	coherent
361.8886	0.0900990203372202	18	diastole	19	A	790.3852555644094	coherent
362.0568	0.0900990203372202	18	diastole	20	B	500.0	coherent
362.2264	0.0900990203372202	18	diastole	21	A	790.3852555644094	coherent
362.589	0.0900990203372202	18	diastole	22	A	790.3852555644094	coherent
362.7573	0.0900990203372202	18	diastole	23	B	500.0	coherent
362.9269	0.0900990203372202	18	diastole	24	A	790.3852555644094	coherent
363.2916	0.0900990203372202	18	diastole	25	A	790.3852555644094	coherent
363.4622	0.0900990203372202	18	diastole	26	B	500.0	coherent
363.634	0.0900990203372202	18	diastole	27	A	790.3852555644094	coherent
363.9817	0.0900990203372202	18	diastole	28	A	790.3852555644094	coherent
364.1522	0.0900990203372202	18	diastole	29	B	500.0	coherent
364.324	0.0900990203372202	18	diastole	30	A	790.3852555644094	coherent
364.6892	0.0900990203372202	18	diastole	31	A	790.3852555644094	coherent
364.861	0.0900990203372202	18	diastole	32	B	500.0	coherent
365.0341	0.0900990203372202	18	diastole	33	A	790.3852555644094	coherent
365.3891	0.0900990203372202	18	diastole	34	A	790.3852555644094	coherent
365.5609	0.0900990203372202	18	diastole	35	B	500.0	coherent
365.7341	0.0900990203372202	18	diastole	36	A	790.3852555644094	coherent
366.0595	0.0900990203372202	18	diastole	37	A	790.3852555644094	coherent
366.2313	0.0900990203372202	18	diastole	38	B	500.0	coherent
366.4045	0.0900990203372202	18	diastole	39	A	790.3852555644094	coherent
366.7963	0.0900990203372202	18	diastole	40	A	790.3852555644094	coherent
366.9693	0.0900990203372202	18	diastole	41	B	500.0	coherent
367.1437	0.0900990203372202	18	diastole	42	A	790.3852555644094	coherent
369.4041	0.0877271125209517	19	systole	1	A	1578.5670027440333	coherent
369.5793	0.0877271125209517	19	systole	2	B	500.0	coherent
369.7551	0.0877271125209517	19	systole	3	A	1578.5670027440333	coherent
370.1171	0.0877271125209517	19	systole	4	A	1578.5670027440333	coherent
370.293	0.0877271125209517	19	systole	5	B	500.0	coherent
370.4695	0.0877271125209517	19	systole	6	A	1578.5670027440333	coherent
370.827	0.0877271125209517	19	systole	7	A	1578.5670027440333	coherent
371.0029	0.0877271125209517	19	systole	8	B	500.0	coherent
371.1795	0.0877271125209517	19	systole	9	A	1578.5670027440333	coherent
371.537	0.0877271125209517	19	systole	10	A	1578.5670027440333	coherent
371.7129	0.0877271125209517	19	systole	11	B	500.0	coherent
371.8895	0.0877271125209517	19	systole	12	A	1578.5670027440333	coherent
372.227	0.0877271125209517	19	systole	13	A	1578.5670027440333	coherent
372.4029	0.0877271125209517	19	systole	14	B	500.0	coherent
372.5795	0.0877271125209517	19	systole	15	A	1578.5670027440333	coherent
372.917	0.0877271125209517	19	systole	16	A	1578.5670027440333	coherent
373.0929	0.0877271125209517	19	systole	17	B	500.0	coherent
373.2695	0.0877271125209517	19	systole	18	A	1578.5670027440333	coherent
373.6498	0.0877271125209517	19	systole	19	A	1578.5670027440333	coherent
373.8266	0.0877271125209517	19	systole	20	B	500.0	coherent
374.0039	0.0877271125209517	19	systole	21	A	1578.5670027440333	coherent
374.4199	0.0877271125209517	19	systole	22	A	1578.5670027440333	coherent
374.5966	0.0877271125209517	19	systole	23	B	500.0	coherent
374.7739	0.0877271125209517	19	systole	24	A	1578.5670027440333	coherent
375.1599	0.0877271125209517	19	systole	25	A	1578.5670027440333	coherent
375.3366	0.0877271125209517	19	systole	26	B	500.0	coherent
375.514	0.0877271125209517	19	systole	27	A	1578.5670027440333	coherent
375.9008	0.0877271125209517	19	systole	28	A	1578.5670027440333	coherent
376.0778	0.0877271125209517	19	systole	29	B	500.0	coherent
376.2554	0.0877271125209517	19	systole	30	A	1578.5670027440333	coherent
376.6908	0.0877271125209517	19	systole	31	A	1578.5670027440333	coherent
376.8704	0.0877271125209517	19	systole	32	B	500.0	coherent
377.0508	0.0877271125209517	19	systole	33	A	1578.5670027440333	coherent
377.4745	0.0877271125209517	19	systole	34	A	1578.5670027440333	coherent
377.6579	0.0877271125209517	19	systole	35	B	500.0	coherent
377.842	0.0877271125209517	19	systole	36	A	1578.5670027440333	coherent
378.1945	0.0877271125209517	19	systole	37	A	1578.5670027440333	coherent
378.3779	0.0877271125209517	19	systole	38	B	500.0	coherent
378.562	0.0877271125209517	19	systole	39	A	1578.5670027440333	coherent
378.9245	0.0877271125209517	19	systole	40	A	1578.5670027440333	coherent
379.108	0.0877271125209517	19	systole	41	B	500.0	coherent
379.292	0.0877271125209517	19	systole	42	A	1578.5670027440333	coherent
381.98	0.0893532811896875	20	diastole	1	A	808.8220262698977	streaming
382.1557	0.0893532811896875	20	diastole	2	B	500.0	streaming
382.3325	0.0893532811896875	20	diastole	3	A	808.8220262698977	streaming
382.67	0.0893532811896875	20	diastole	4	A	808.8220262698977	streaming
382.8456	0.0893532811896875	20	diastole	5	B	500.0	streaming
383.0225	0.0893532811896875	20	diastole	6	A	808.8220262698977	streaming
383.47	0.0893532811896875	20	diastole	7	A	808.8220262698977	streaming
383.6456	0.0893532811896875	20	diastole	8	B	500.0	streaming
383.8225	0.0893532811896875	20	diastole	9	A	808.8220262698977	streaming
384.27	0.0893532811896875	20	diastole	10	A	808.8220262698977	streaming
384.4457	0.0893532811896875	20	diastole	11	B	500.0	streaming
384.6226	0.0893532811896875	20	diastole	12	A	808.8220262698977	streaming
385.0205	0.0893532811896875	20	diastole	13	A	808.8220262698977	streaming
385.1961	0.0893532811896875	20	diastole	14	B	500.0	streaming
385.373	0.0893532811896875	20	diastole	15	A	808.8220262698977	streaming
385.771	0.0893532811896875	20	diastole	16	A	808.8220262698977	streaming
385.9466	0.0893532811896875	20	diastole	17	B	500.0	streaming
386.1235	0.0893532811896875	20	diastole	18	A	808.8220262698977	streaming
386.5418	0.0893532811896875	20	diastole	19	A	808.8220262698977	streaming
386.7211	0.0893532811896875	20	diastole	20	B	500.0	streaming
386.9017	0.0893532811896875	20	diastole	21	A	808.8220262698977	streaming
387.2917	0.0893532811896875	20	diastole	22	A	808.8220262698977	streaming
387.4711	0.0893532811896875	20	diastole	23	B	500.0	streaming
387.6516	0.0893532811896875	20	diastole	24	A	808.8220262698977	streaming
388.0703	0.0893532811896875	20	diastole	25	A	808.8220262698977	streaming
388.2547	0.0893532811896875	20	diastole	26	B	500.0	streaming
388.4403	0.0893532811896875	20	diastole	27	A	808.8220262698977	streaming
388.7903	0.0893532811896875	20	diastole	28	A	808.8220262698977	streaming
388.9746	0.0893532811896875	20	diastole	29	B	500.0	streaming
389.1602	0.0893532811896875	20	diastole	30	A	808.8220262698977	streaming
389.5545	0.0893532811896875	20	diastole	31	A	808.8220262698977	streaming
389.7413	0.0893532811896875	20	diastole	32	B	500.0	streaming
389.9295	0.0893532811896875	20	diastole	33	A	808.8220262698977	streaming
390.3045	0.0893532811896875	20	diastole	34	A	808.8220262698977	streaming
390.4914	0.0893532811896875	20	diastole	35	B	500.0	streaming
390.6795	0.0893532811896875	20	diastole	36	A	808.8220262698977	streaming
393.684	0.0820800424844492	21	diastole	1	A	720.7460505647621	coherent
393.8406	0.0820800424844492	21	diastole	2	B	500.0	coherent
393.9989	0.0820800424844492	21	diastole	3	A	720.7460505647621	coherent
394.274	0.0820800424844492	21	diastole	4	A	720.7460505647621	coherent
394.4306	0.0820800424844492	21	diastole	5	B	500.0	coherent
394.5889	0.0820800424844492	21	diastole	6	A	720.7460505647621	coherent
394.864	0.0820800424844492	21	diastole	7	A	720.7460505647621	coherent
395.0206	0.0820800424844492	21	diastole	8	B	500.0	coherent
395.1789	0.0820800424844492	21	diastole	9	A	720.7460505647621	coherent
395.4044	0.0820800424844492	21	diastole	10	A	720.7460505647621	coherent
395.5559	0.0820800424844492	21	diastole	11	B	500.0	coherent
395.709	0.0820800424844492	21	diastole	12	A	720.7460505647621	coherent
395.9777	0.0820800424844492	21	diastole	13	A	720.7460505647621	coherent
396.1279	0.0820800424844492	21	diastole	14	B	500.0	coherent
396.2799	0.0820800424844492	21	diastole	15	A	720.7460505647621	coherent
396.5249	0.0820800424844492	21	diastole	16	A	720.7460505647621	coherent
396.6728	0.0820800424844492	21	diastole	17	B	500.0	coherent
396.8225	0.0820800424844492	21	diastole	18	A	720.7460505647621	coherent
397.1075	0.0820800424844492	21	diastole	19	A	720.7460505647621	coherent
397.2541	0.0820800424844492	21	diastole	20	B	500.0	coherent
397.4025	0.0820800424844492	21	diastole	21	A	720.7460505647621	coherent
397.7375	0.0820800424844492	21	diastole	22	A	720.7460505647621	coherent
397.8841	0.0820800424844492	21	diastole	23	B	500.0	coherent
398.0325	0.0820800424844492	21	diastole	24	A	720.7460505647621	coherent
398.5375	0.0820800424844492	21	diastole	25	A	720.7460505647621	coherent
398.6841	0.0820800424844492	21	diastole	26	B	500.0	coherent
398.8324	0.0820800424844492	21	diastole	27	A	720.7460505647621	coherent
399.3575	0.0820800424844492	21	diastole	28	A	720.7460505647621	coherent
399.5041	0.0820800424844492	21	diastole	29	B	500.0	coherent
399.6524	0.0820800424844492	21	diastole	30	A	720.7460505647621	coherent
400.1659	0.0820800424844492	21	diastole	31	A	720.7460505647621	coherent
400.3176	0.0820800424844492	21	diastole	32	B	500.0	coherent
400.4709	0.0820800424844492	21	diastole	33	A	720.7460505647621	coherent
400.946	0.0820800424844492	21	diastole	34	A	720.7460505647621	coherent
401.0977	0.0820800424844492	21	diastole	35	B	500.0	coherent
401.251	0.0820800424844492	21	diastole	36	A	720.7460505647621	coherent
401.7492	0.0820800424844492	21	diastole	37	A	720.7460505647621	coherent
401.9209	0.0820800424844492	21	diastole	38	B	500.0	coherent
402.0942	0.0820800424844492	21	diastole	39	A	720.7460505647621	coherent
402.4391	0.0820800424844492	21	diastole	40	A	720.7460505647621	coherent
402.6108	0.0820800424844492	21	diastole	41	B	500.0	coherent
402.7841	0.0820800424844492	21	diastole	42	A	720.7460505647621	coherent
403.1192	0.0820800424844492	21	diastole	43	A	720.7460505647621	coherent
403.2908	0.0820800424844492	21	diastole	44	B	500.0	coherent
403.4641	0.0820800424844492	21	diastole	45	A	720.7460505647621	coherent
405.3392	0.0856225775496568	22	systole	1	A	4999.999999999997	coherent
405.508	0.0856225775496568	22	systole	2	B	500.0	coherent
405.6768	0.0856225775496568	22	systole	3	A	4999.999999999997	coherent
406.2194	0.0856225775496568	22	systole	4	A	4999.999999999997	coherent
406.3882	0.0856225775496568	22	systole	5	B	500.0	coherent
406.5569	0.0856225775496568	22	systole	6	A	4999.999999999997	coherent
407.0996	0.0856225775496568	22	systole	7	A	4999.999999999997	coherent
407.2683	0.0856225775496568	22	systole	8	B	500.0	coherent
407.4371	0.0856225775496568	22	systole	9	A	4999.999999999997	coherent
407.9797	0.0856225775496568	22	systole	10	A	4999.999999999997	coherent
408.1485	0.0856225775496568	22	systole	11	B	500.0	coherent
408.3173	0.0856225775496568	22	systole	12	A	4999.999999999997	coherent
408.8599	0.0856225775496568	22	systole	13	A	4999.999999999997	coherent
409.0286	0.0856225775496568	22	systole	14	B	500.0	coherent
409.1974	0.0856225775496568	22	systole	15	A	4999.999999999997	coherent
409.7699	0.0856225775496568	22	systole	16	A	4999.999999999997	coherent
409.9387	0.0856225775496568	22	systole	17	B	500.0	coherent
410.1075	0.0856225775496568	22	systole	18	A	4999.999999999997	coherent
410.6687	0.0856225775496568	22	systole	19	A	4999.999999999997	coherent
410.8562	0.0856225775496568	22	systole	20	B	500.0	coherent
411.0437	0.0856225775496568	22	systole	21	A	4999.999999999997	coherent
411.4987	0.0856225775496568	22	systole	22	A	4999.999999999997	coherent
411.6862	0.0856225775496568	22	systole	23	B	500.0	coherent
411.8737	0.0856225775496568	22	systole	24	A	4999.999999999997	coherent
412.2899	0.0856225775496568	22	systole	25	A	4999.999999999997	coherent
412.4886	0.0856225775496568	22	systole	26	B	500.0	coherent
412.6874	0.0856225775496568	22	systole	27	A	4999.999999999997	coherent
413.0399	0.0856225775496568	22	systole	28	A	4999.999999999997	coherent
413.2386	0.0856225775496568	22	systole	29	B	500.0	coherent
413.4374	0.0856225775496568	22	systole	30	A	4999.999999999997	coherent
413.902	0.0856225775496568	22	systole	31	A	4999.999999999997	coherent
414.1095	0.0856225775496568	22	systole	32	B	500.0	coherent
414.317	0.0856225775496568	22	systole	33	A	4999.999999999997	coherent
414.682	0.0856225775496568	22	systole	34	A	4999.999999999997	coherent
414.8895	0.0856225775496568	22	systole	35	B	500.0	coherent
415.097	0.0856225775496568	22	systole	36	A	4999.999999999997	coherent
417.3684	0.1006258107372559	23	systole	1	A	1439.4827392967493	streaming
417.5697	0.1006258107372559	23	systole	2	B	500.0	streaming
417.7709	0.1006258107372559	23	systole	3	A	1439.4827392967493	streaming
418.2087	0.1006258107372559	23	systole	4	A	1439.4827392967493	streaming
418.4101	0.1006258107372559	23	systole	5	B	500.0	streaming
418.6113	0.1006258107372559	23	systole	6	A	1439.4827392967493	streaming
418.9828	0.1006258107372559	23	systole	7	A	1439.4827392967493	streaming
419.1794	0.1006258107372559	23	systole	8	B	500.0	streaming
419.3757	0.1006258107372559	23	systole	9	A	1439.4827392967493	streaming
419.7747	0.1006258107372559	23	systole	10	A	1439.4827392967493	streaming
419.9723	0.1006258107372559	23	systole	11	B	500.0	streaming
420.1697	0.1006258107372559	23	systole	12	A	1439.4827392967493	streaming
420.5048	0.1006258107372559	23	systole	13	A	1439.4827392967493	streaming
420.7024	0.1006258107372559	23	systole	14	B	500.0	streaming
420.8997	0.1006258107372559	23	systole	15	A	1439.4827392967493	streaming
421.2348	0.1006258107372559	23	systole	16	A	1439.4827392967493	streaming
421.4324	0.1006258107372559	23	systole	17	B	500.0	streaming
421.6298	0.1006258107372559	23	systole	18	A	1439.4827392967493	streaming
421.9295	0.1006258107372559	23	systole	19	A	1439.4827392967493	streaming
422.1256	0.1006258107372559	23	systole	20	B	500.0	streaming
422.3215	0.1006258107372559	23	systole	21	A	1439.4827392967493	streaming
422.6103	0.1006258107372559	23	systole	22	A	1439.4827392967493	streaming
422.804	0.1006258107372559	23	systole	23	B	500.0	streaming
422.9974	0.1006258107372559	23	systole	24	A	1439.4827392967493	streaming
423.3004	0.1006258107372559	23	systole	25	A	1439.4827392967493	streaming
423.494	0.1006258107372559	23	systole	26	B	500.0	streaming
423.6874	0.1006258107372559	23	systole	27	A	1439.4827392967493	streaming
423.9354	0.1006258107372559	23	systole	28	A	1439.4827392967493	streaming
424.1168	0.1006258107372559	23	systole	29	B	500.0	streaming
424.2979	0.1006258107372559	23	systole	30	A	1439.4827392967493	streaming
424.6155	0.1006258107372559	23	systole	31	A	1439.4827392967493	streaming
424.7968	0.1006258107372559	23	systole	32	B	500.0	streaming
424.978	0.1006258107372559	23	systole	33	A	1439.4827392967493	streaming
425.2862	0.1006258107372559	23	systole	34	A	1439.4827392967493	streaming
425.4651	0.1006258107372559	23	systole	35	B	500.0	streaming
425.6437	0.1006258107372559	23	systole	36	A	1439.4827392967493	streaming
425.977	0.1006258107372559	23	systole	37	A	1439.4827392967493	streaming
426.1533	0.1006258107372559	23	systole	38	B	500.0	streaming
426.3295	0.1006258107372559	23	systole	39	A	1439.4827392967493	streaming
426.7571	0.1006258107372559	23	systole	40	A	1439.4827392967493	streaming
426.9334	0.1006258107372559	23	systole	41	B	500.0	streaming
427.1096	0.1006258107372559	23	systole	42	A	1439.4827392967493	streaming
429.0667	0.0881129937479272	24	systole	1	A	972.6712675344384	streaming
429.2426	0.0881129937479272	24	systole	2	B	500.0	streaming
429.4191	0.0881129937479272	24	systole	3	A	972.6712675344384	streaming
429.7567	0.0881129937479272	24	systole	4	A	972.6712675344384	streaming
429.9326	0.0881129937479272	24	systole	5	B	500.0	streaming
430.1091	0.0881129937479272	24	systole	6	A	972.6712675344384	streaming
430.4471	0.0881129937479272	24	systole	7	A	972.6712675344384	streaming
430.6229	0.0881129937479272	24	systole	8	B	500.0	streaming
430.7995	0.0881129937479272	24	systole	9	A	972.6712675344384	streaming
431.1374	0.0881129937479272	24	systole	10	A	972.6712675344384	streaming
431.3133	0.0881129937479272	24	systole	11	B	500.0	streaming
431.4899	0.0881129937479272	24	systole	12	A	972.6712675344384	streaming
431.862	0.0881129937479272	24	systole	13	A	972.6712675344384	streaming
432.0391	0.0881129937479272	24	systole	14	B	500.0	streaming
432.2169	0.0881129937479272	24	systole	15	A	972.6712675344384	streaming
432.6066	0.0881129937479272	24	systole	16	A	972.6712675344384	streaming
432.785	0.0881129937479272	24	systole	17	B	500.0	streaming
432.9641	0.0881129937479272	24	systole	18	A	972.6712675344384	streaming
433.3166	0.0881129937479272	24	systole	19	A	972.6712675344384	streaming
433.495	0.0881129937479272	24	systole	20	B	500.0	streaming
433.6741	0.0881129937479272	24	systole	21	A	972.6712675344384	streaming
434.0367	0.0881129937479272	24	systole	22	A	972.6712675344384	streaming
434.2151	0.0881129937479272	24	systole	23	B	500.0	streaming
434.3942	0.0881129937479272	24	systole	24	A	972.6712675344384	streaming
434.7421	0.0881129937479272	24	systole	25	A	972.6712675344384	streaming
434.9193	0.0881129937479272	24	systole	26	B	500.0	streaming
435.0971	0.0881129937479272	24	systole	27	A	972.6712675344384	streaming
435.4521	0.0881129937479272	24	systole	28	A	972.6712675344384	streaming
435.6293	0.0881129937479272	24	systole	29	B	500.0	streaming
435.8071	0.0881129937479272	24	systole	30	A	972.6712675344384	streaming
436.1621	0.0881129937479272	24	systole	31	A	972.6712675344384	streaming
436.3393	0.0881129937479272	24	systole	32	B	500.0	streaming
436.5171	0.0881129937479272	24	systole	33	A	972.6712675344384	streaming
436.8721	0.0881129937479272	24	systole	34	A	972.6712675344384	streaming
437.0493	0.0881129937479272	24	systole	35	B	500.0	streaming
437.2271	0.0881129937479272	24	systole	36	A	972.6712675344384	streaming
437.5321	0.0881129937479272	24	systole	37	A	972.6712675344384	streaming
437.7093	0.0881129937479272	24	systole	38	B	500.0	streaming
437.8871	0.0881129937479272	24	systole	39	A	972.6712675344384	streaming
438.1922	0.0881129937479272	24	systole	40	A	972.6712675344384	streaming
438.3694	0.0881129937479272	24	systole	41	B	500.0	streaming
438.5472	0.0881129937479272	24	systole	42	A	972.6712675344384	streaming
441.1856	0.0825266706524416	25	diastole	1	A	4999.999999999997	coherent
441.3506	0.0825266706524416	25	diastole	2	B	500.0	coherent
441.5156	0.0825266706524416	25	diastole	3	A	4999.999999999997	coherent
442.0255	0.0825266706524416	25	diastole	4	A	4999.999999999997	coherent
442.1906	0.0825266706524416	25	diastole	5	B	500.0	coherent
442.3556	0.0825266706524416	25	diastole	6	A	4999.999999999997	coherent
442.8655	0.0825266706524416	25	diastole	7	A	4999.999999999997	coherent
443.0306	0.0825266706524416	25	diastole	8	B	500.0	coherent
443.1956	0.0825266706524416	25	diastole	9	A	4999.999999999997	coherent
443.7856	0.0825266706524416	25	diastole	10	A	4999.999999999997	coherent
443.9506	0.0825266706524416	25	diastole	11	B	500.0	coherent
444.1157	0.0825266706524416	25	diastole	12	A	4999.999999999997	coherent
444.7057	0.0825266706524416	25	diastole	13	A	4999.999999999997	coherent
444.8707	0.0825266706524416	25	diastole	14	B	500.0	coherent
445.0358	0.0825266706524416	25	diastole	15	A	4999.999999999997	coherent
445.4169	0.0825266706524416	25	diastole	16	A	4999.999999999997	coherent
445.5857	0.0825266706524416	25	diastole	17	B	500.0	coherent
445.7545	0.0825266706524416	25	diastole	18	A	4999.999999999997	coherent
446.0669	0.0825266706524416	25	diastole	19	A	4999.999999999997	coherent
446.2357	0.0825266706524416	25	diastole	20	B	500.0	coherent
446.4045	0.0825266706524416	25	diastole	21	A	4999.999999999997	coherent
446.6872	0.0825266706524416	25	diastole	22	A	4999.999999999997	coherent
446.8559	0.0825266706524416	25	diastole	23	B	500.0	coherent
447.0247	0.0825266706524416	25	diastole	24	A	4999.999999999997	coherent
447.3075	0.0825266706524416	25	diastole	25	A	4999.999999999997	coherent
447.4762	0.0825266706524416	25	diastole	26	B	500.0	coherent
447.645	0.0825266706524416	25	diastole	27	A	4999.999999999997	coherent
447.9075	0.0825266706524416	25	diastole	28	A	4999.999999999997	coherent
448.0762	0.0825266706524416	25	diastole	29	B	500.0	coherent
448.245	0.0825266706524416	25	diastole	30	A	4999.999999999997	coherent
448.5097	0.0825266706524416	25	diastole	31	A	4999.999999999997	coherent
448.6772	0.0825266706524416	25	diastole	32	B	500.0	coherent
448.8447	0.0825266706524416	25	diastole	33	A	4999.999999999997	coherent
449.0997	0.0825266706524416	25	diastole	34	A	4999.999999999997	coherent
449.2672	0.0825266706524416	25	diastole	35	B	500.0	coherent
449.4347	0.0825266706524416	25	diastole	36	A	4999.999999999997	coherent
449.6307	0.0825266706524416	25	diastole	37	A	4999.999999999997	coherent
449.7895	0.0825266706524416	25	diastole	38	B	500.0	coherent
449.9483	0.0825266706524416	25	diastole	39	A	4999.999999999997	coherent
451.9957	0.0756026125163771	26	systole	1	A	754.7629107028698	coherent
452.1462	0.0756026125163771	26	systole	2	B	500.0	coherent
452.2982	0.0756026125163771	26	systole	3	A	754.7629107028698	coherent
453.1357	0.0756026125163771	26	systole	4	A	754.7629107028698	coherent
453.2861	0.0756026125163771	26	systole	5	B	500.0	coherent
453.4381	0.0756026125163771	26	systole	6	A	754.7629107028698	coherent
454.2757	0.0756026125163771	26	systole	7	A	754.7629107028698	coherent
454.4261	0.0756026125163771	26	systole	8	B	500.0	coherent
454.5781	0.0756026125163771	26	systole	9	A	754.7629107028698	coherent
455.195	0.0756026125163771	26	systole	10	A	754.7629107028698	coherent
455.348	0.0756026125163771	26	systole	11	B	500.0	coherent
455.5025	0.0756026125163771	26	systole	12	A	754.7629107028698	coherent
456.0341	0.0756026125163771	26	systole	13	A	754.7629107028698	coherent
456.1896	0.0756026125163771	26	systole	14	B	500.0	coherent
456.3466	0.0756026125163771	26	systole	15	A	754.7629107028698	coherent
456.9874	0.0756026125163771	26	systole	16	A	754.7629107028698	coherent
457.1792	0.0756026125163771	26	systole	17	B	500.0	coherent
457.3726	0.0756026125163771	26	systole	18	A	754.7629107028698	coherent
457.7655	0.0756026125163771	26	systole	19	A	754.7629107028698	coherent
457.9623	0.0756026125163771	26	systole	20	B	500.0	coherent
458.1605	0.0756026125163771	26	systole	21	A	754.7629107028698	coherent
458.5154	0.0756026125163771	26	systole	22	A	754.7629107028698	coherent
458.7122	0.0756026125163771	26	systole	23	B	500.0	coherent
458.9105	0.0756026125163771	26	systole	24	A	754.7629107028698	coherent
459.2751	0.0756026125163771	26	systole	25	A	754.7629107028698	coherent
459.4719	0.0756026125163771	26	systole	26	B	500.0	coherent
459.6701	0.0756026125163771	26	systole	27	A	754.7629107028698	coherent
460.0056	0.0756026125163771	26	systole	28	A	754.7629107028698	coherent
460.2023	0.0756026125163771	26	systole	29	B	500.0	coherent
460.4006	0.0756026125163771	26	systole	30	A	754.7629107028698	coherent
460.7252	0.0756026125163771	26	systole	31	A	754.7629107028698	coherent
460.922	0.0756026125163771	26	systole	32	B	500.0	coherent
461.1202	0.0756026125163771	26	systole	33	A	754.7629107028698	coherent
461.5019	0.0756026125163771	26	systole	34	A	754.7629107028698	coherent
461.695	0.0756026125163771	26	systole	35	B	500.0	coherent
461.8895	0.0756026125163771	26	systole	36	A	754.7629107028698	coherent
465.609	0.0975232018972747	27	diastole	1	A	737.5583956554606	coherent
465.8107	0.0975232018972747	27	diastole	2	B	500.0	coherent
466.014	0.0975232018972747	27	diastole	3	A	737.5583956554606	coherent
466.4489	0.0975232018972747	27	diastole	4	A	737.5583956554606	coherent
466.6507	0.0975232018972747	27	diastole	5	B	500.0	coherent
466.854	0.0975232018972747	27	diastole	6	A	737.5583956554606	coherent
467.289	0.0975232018972747	27	diastole	7	A	737.5583956554606	coherent
467.4907	0.0975232018972747	27	diastole	8	B	500.0	coherent
467.694	0.0975232018972747	27	diastole	9	A	737.5583956554606	coherent
468.069	0.0975232018972747	27	diastole	10	A	737.5583956554606	coherent
468.2707	0.0975232018972747	27	diastole	11	B	500.0	coherent
468.474	0.0975232018972747	27	diastole	12	A	737.5583956554606	coherent
468.8328	0.0975232018972747	27	diastole	13	A	737.5583956554606	coherent
469.037	0.0975232018972747	27	diastole	14	B	500.0	coherent
469.2428	0.0975232018972747	27	diastole	15	A	737.5583956554606	coherent
469.6117	0.0975232018972747	27	diastole	16	A	737.5583956554606	coherent
469.8122	0.0975232018972747	27	diastole	17	B	500.0	coherent
470.0142	0.0975232018972747	27	diastole	18	A	737.5583956554606	coherent
470.4117	0.0975232018972747	27	diastole	19	A	737.5583956554606	coherent
470.6122	0.0975232018972747	27	diastole	20	B	500.0	coherent
470.8142	0.0975232018972747	27	diastole	21	A	737.5583956554606	coherent
471.2517	0.0975232018972747	27	diastole	22	A	737.5583956554606	coherent
471.4521	0.0975232018972747	27	diastole	23	B	500.0	coherent
471.6542	0.0975232018972747	27	diastole	24	A	737.5583956554606	coherent
472.0516	0.0975232018972747	27	diastole	25	A	737.5583956554606	coherent
472.2521	0.0975232018972747	27	diastole	26	B	500.0	coherent
472.4541	0.0975232018972747	27	diastole	27	A	737.5583956554606	coherent
472.8515	0.0975232018972747	27	diastole	28	A	737.5583956554606	coherent
473.052	0.0975232018972747	27	diastole	29	B	500.0	coherent
473.254	0.0975232018972747	27	diastole	30	A	737.5583956554606	coherent
473.7016	0.0975232018972747	27	diastole	31	A	737.5583956554606	coherent
473.902	0.0975232018972747	27	diastole	32	B	500.0	coherent
474.1041	0.0975232018972747	27	diastole	33	A	737.5583956554606	coherent
476.6877	0.0993704501306638	28	diastole	1	A	720.7460505647621	coherent
476.8856	0.0993704501306638	28	diastole	2	B	500.0	coherent
477.0851	0.0993704501306638	28	diastole	3	A	720.7460505647621	coherent
477.4277	0.0993704501306638	28	diastole	4	A	720.7460505647621	coherent
477.6256	0.0993704501306638	28	diastole	5	B	500.0	coherent
477.8252	0.0993704501306638	28	diastole	6	A	720.7460505647621	coherent
478.1837	0.0993704501306638	28	diastole	7	A	720.7460505647621	coherent
478.3792	0.0993704501306638	28	diastole	8	B	500.0	coherent
478.5763	0.0993704501306638	28	diastole	9	A	720.7460505647621	coherent
478.9537	0.0993704501306638	28	diastole	10	A	720.7460505647621	coherent
479.1491	0.0993704501306638	28	diastole	11	B	500.0	coherent
479.3462	0.0993704501306638	28	diastole	12	A	720.7460505647621	coherent
479.7537	0.0993704501306638	28	diastole	13	A	720.7460505647621	coherent
479.9491	0.0993704501306638	28	diastole	14	B	500.0	coherent
480.1462	0.0993704501306638	28	diastole	15	A	720.7460505647621	coherent
480.5933	0.0993704501306638	28	diastole	16	A	720.7460505647621	coherent
480.7887	0.0993704501306638	28	diastole	17	B	500.0	coherent
480.9858	0.0993704501306638	28	diastole	18	A	720.7460505647621	coherent
481.4091	0.0993704501306638	28	diastole	19	A	720.7460505647621	coherent
481.602	0.0993704501306638	28	diastole	20	B	500.0	coherent
481.7966	0.0993704501306638	28	diastole	21	A	720.7460505647621	coherent
482.239	0.0993704501306638	28	diastole	22	A	720.7460505647621	coherent
482.432	0.0993704501306638	28	diastole	23	B	500.0	coherent
482.6266	0.0993704501306638	28	diastole	24	A	720.7460505647621	coherent
483.069	0.0993704501306638	28	diastole	25	A	720.7460505647621	coherent
483.2619	0.0993704501306638	28	diastole	26	B	500.0	coherent
483.4565	0.0993704501306638	28	diastole	27	A	720.7460505647621	coherent
483.879	0.0993704501306638	28	diastole	28	A	720.7460505647621	coherent
484.0719	0.0993704501306638	28	diastole	29	B	500.0	coherent
484.2665	0.0993704501306638	28	diastole	30	A	720.7460505647621	coherent
484.666	0.0993704501306638	28	diastole	31	A	720.7460505647621	coherent
484.8602	0.0993704501306638	28	diastole	32	B	500.0	coherent
485.0561	0.0993704501306638	28	diastole	33	A	720.7460505647621	coherent
485.3688	0.0993704501306638	28	diastole	34	A	720.7460505647621	coherent
485.5617	0.0993704501306638	28	diastole	35	B	500.0	coherent
485.7563	0.0993704501306638	28	diastole	36	A	720.7460505647621	coherent
488.6085	0.0787465954199433	29	systole	1	A	772.3687435845811	coherent
488.7653	0.0787465954199433	29	systole	2	B	500.0	coherent
488.9235	0.0787465954199433	29	systole	3	A	772.3687435845811	coherent
489.4284	0.0787465954199433	29	systole	4	A	772.3687435845811	coherent
489.5852	0.0787465954199433	29	systole	5	B	500.0	coherent
489.7434	0.0787465954199433	29	systole	6	A	772.3687435845811	coherent
490.2483	0.0787465954199433	29	systole	7	A	772.3687435845811	coherent
490.4051	0.0787465954199433	29	systole	8	B	500.0	coherent
490.5633	0.0787465954199433	29	systole	9	A	772.3687435845811	coherent
491.0684	0.0787465954199433	29	systole	10	A	772.3687435845811	coherent
491.2252	0.0787465954199433	29	systole	11	B	500.0	coherent
491.3833	0.0787465954199433	29	systole	12	A	772.3687435845811	coherent
492.0629	0.0787465954199433	29	systole	13	A	772.3687435845811	coherent
492.2509	0.0787465954199433	29	systole	14	B	500.0	coherent
492.4404	0.0787465954199433	29	systole	15	A	772.3687435845811	coherent
492.9429	0.0787465954199433	29	systole	16	A	772.3687435845811	coherent
493.1309	0.0787465954199433	29	systole	17	B	500.0	coherent
493.3204	0.0787465954199433	29	systole	18	A	772.3687435845811	coherent
493.9955	0.0787465954199433	29	systole	19	A	772.3687435845811	coherent
494.206	0.0787465954199433	29	systole	20	B	500.0	coherent
494.418	0.0787465954199433	29	systole	21	A	772.3687435845811	coherent
495.0229	0.0787465954199433	29	systole	22	A	772.3687435845811	coherent
495.2409	0.0787465954199433	29	systole	23	B	500.0	coherent
495.4604	0.0787465954199433	29	systole	24	A	772.3687435845811	coherent
496.0229	0.0787465954199433	29	systole	25	A	772.3687435845811	coherent
496.2409	0.0787465954199433	29	systole	26	B	500.0	coherent
496.4604	0.0787465954199433	29	systole	27	A	772.3687435845811	coherent
496.8629	0.0787465954199433	29	systole	28	A	772.3687435845811	coherent
497.081	0.0787465954199433	29	systole	29	B	500.0	coherent
497.3004	0.0787465954199433	29	systole	30	A	772.3687435845811	coherent
497.6992	0.0787465954199433	29	systole	31	A	772.3687435845811	coherent
497.9135	0.0787465954199433	29	systole	32	B	500.0	coherent
498.1292	0.0787465954199433	29	systole	33	A	772.3687435845811	coherent
500.4085	0.1075016118702478	30	diastole	1	A	720.7460505647621	streaming
500.6189	0.1075016118702478	30	diastole	2	B	500.0	streaming
500.831	0.1075016118702478	30	diastole	3	A	720.7460505647621	streaming
501.2485	0.1075016118702478	30	diastole	4	A	720.7460505647621	streaming
501.4589	0.1075016118702478	30	diastole	5	B	500.0	streaming
501.671	0.1075016118702478	30	diastole	6	A	720.7460505647621	streaming
502.0816	0.1075016118702478	30	diastole	7	A	720.7460505647621	streaming
502.2908	0.1075016118702478	30	diastole	8	B	500.0	streaming
502.5016	0.1075016118702478	30	diastole	9	A	720.7460505647621	streaming
502.9015	0.1075016118702478	30	diastole	10	A	720.7460505647621	streaming
503.1107	0.1075016118702478	30	diastole	11	B	500.0	streaming
503.3215	0.1075016118702478	30	diastole	12	A	720.7460505647621	streaming
503.6544	0.1075016118702478	30	diastole	13	A	720.7460505647621	streaming
503.8623	0.1075016118702478	30	diastole	14	B	500.0	streaming
504.0718	0.1075016118702478	30	diastole	15	A	720.7460505647621	streaming
504.4301	0.1075016118702478	30	diastole	16	A	720.7460505647621	streaming
504.6355	0.1075016118702478	30	diastole	17	B	500.0	streaming
504.8426	0.1075016118702478	30	diastole	18	A	720.7460505647621	streaming
505.2059	0.1075016118702478	30	diastole	19	A	720.7460505647621	streaming
505.4088	0.1075016118702478	30	diastole	20	B	500.0	streaming
505.6134	0.1075016118702478	30	diastole	21	A	720.7460505647621	streaming
505.9959	0.1075016118702478	30	diastole	22	A	720.7460505647621	streaming
506.1987	0.1075016118702478	30	diastole	23	B	500.0	streaming
506.4033	0.1075016118702478	30	diastole	24	A	720.7460505647621	streaming
506.6894	0.1075016118702478	30	diastole	25	A	720.7460505647621	streaming
506.8823	0.1075016118702478	30	diastole	26	B	500.0	streaming
507.0769	0.1075016118702478	30	diastole	27	A	720.7460505647621	streaming
507.4394	0.1075016118702478	30	diastole	28	A	720.7460505647621	streaming
507.6323	0.1075016118702478	30	diastole	29	B	500.0	streaming
507.8269	0.1075016118702478	30	diastole	30	A	720.7460505647621	streaming
508.1211	0.1075016118702478	30	diastole	31	A	720.7460505647621	streaming
508.309	0.1075016118702478	30	diastole	32	B	500.0	streaming
508.4986	0.1075016118702478	30	diastole	33	A	720.7460505647621	streaming
508.8311	0.1075016118702478	30	diastole	34	A	720.7460505647621	streaming
509.019	0.1075016118702478	30	diastole	35	B	500.0	streaming
509.2086	0.1075016118702478	30	diastole	36	A	720.7460505647621	streaming
509.4971	0.1075016118702478	30	diastole	37	A	720.7460505647621	streaming
509.6825	0.1075016118702478	30	diastole	38	B	500.0	streaming
509.8696	0.1075016118702478	30	diastole	39	A	720.7460505647621	streaming
512.9062	0.0887509563472122	31	diastole	1	A	4999.999999999997	streaming
513.0837	0.0887509563472122	31	diastole	2	B	500.0	streaming
513.2612	0.0887509563472122	31	diastole	3	A	4999.999999999997	streaming
513.7063	0.0887509563472122	31	diastole	4	A	4999.999999999997	streaming
513.8838	0.0887509563472122	31	diastole	5	B	500.0	streaming
514.0613	0.0887509563472122	31	diastole	6	A	4999.999999999997	streaming
514.4363	0.0887509563472122	31	diastole	7	A	4999.999999999997	streaming
514.6137	0.0887509563472122	31	diastole	8	B	500.0	streaming
514.7913	0.0887509563472122	31	diastole	9	A	4999.999999999997	streaming
515.1662	0.0887509563472122	31	diastole	10	A	4999.999999999997	streaming
515.3437	0.0887509563472122	31	diastole	11	B	500.0	streaming
515.5213	0.0887509563472122	31	diastole	12	A	4999.999999999997	streaming
515.8962	0.0887509563472122	31	diastole	13	A	4999.999999999997	streaming
516.0737	0.0887509563472122	31	diastole	14	B	500.0	streaming
516.2512	0.0887509563472122	31	diastole	15	A	4999.999999999997	streaming
516.6815	0.0887509563472122	31	diastole	16	A	4999.999999999997	streaming
516.8652	0.0887509563472122	31	diastole	17	B	500.0	streaming
517.049	0.0887509563472122	31	diastole	18	A	4999.999999999997	streaming
517.4657	0.0887509563472122	31	diastole	19	A	4999.999999999997	streaming
517.6519	0.0887509563472122	31	diastole	20	B	500.0	streaming
517.8381	0.0887509563472122	31	diastole	21	A	4999.999999999997	streaming
518.1656	0.0887509563472122	31	diastole	22	A	4999.999999999997	streaming
518.3519	0.0887509563472122	31	diastole	23	B	500.0	streaming
518.5381	0.0887509563472122	31	diastole	24	A	4999.999999999997	streaming
518.8657	0.0887509563472122	31	diastole	25	A	4999.999999999997	streaming
519.0519	0.0887509563472122	31	diastole	26	B	500.0	streaming
519.2381	0.0887509563472122	31	diastole	27	A	4999.999999999997	streaming
519.5586	0.0887509563472122	31	diastole	28	A	4999.999999999997	streaming
519.7436	0.0887509563472122	31	diastole	29	B	500.0	streaming
519.9286	0.0887509563472122	31	diastole	30	A	4999.999999999997	streaming
520.2035	0.0887509563472122	31	diastole	31	A	4999.999999999997	streaming
520.3822	0.0887509563472122	31	diastole	32	B	500.0	streaming
520.561	0.0887509563472122	31	diastole	33	A	4999.999999999997	streaming
520.8521	0.0887509563472122	31	diastole	34	A	4999.999999999997	streaming
521.0271	0.0887509563472122	31	diastole	35	B	500.0	streaming
521.2021	0.0887509563472122	31	diastole	36	A	4999.999999999997	streaming
521.5521	0.0887509563472122	31	diastole	37	A	4999.999999999997	streaming
521.727	0.0887509563472122	31	diastole	38	B	500.0	streaming
521.9021	0.0887509563472122	31	diastole	39	A	4999.999999999997	streaming
522.2521	0.0887509563472122	31	diastole	40	A	4999.999999999997	streaming
522.4271	0.0887509563472122	31	diastole	41	B	500.0	streaming
522.6021	0.0887509563472122	31	diastole	42	A	4999.999999999997	streaming
525.1692	0.0875040646933484	32	diastole	1	A	4999.999999999997	streaming
525.3454	0.0875040646933484	32	diastole	2	B	500.0	streaming
525.5217	0.0875040646933484	32	diastole	3	A	4999.999999999997	streaming
525.9232	0.0875040646933484	32	diastole	4	A	4999.999999999997	streaming
526.102	0.0875040646933484	32	diastole	5	B	500.0	streaming
526.2807	0.0875040646933484	32	diastole	6	A	4999.999999999997	streaming
526.6503	0.0875040646933484	32	diastole	7	A	4999.999999999997	streaming
526.8303	0.0875040646933484	32	diastole	8	B	500.0	streaming
527.0103	0.0875040646933484	32	diastole	9	A	4999.999999999997	streaming
527.3503	0.0875040646933484	32	diastole	10	A	4999.999999999997	streaming
527.5303	0.0875040646933484	32	diastole	11	B	500.0	streaming
527.7103	0.0875040646933484	32	diastole	12	A	4999.999999999997	streaming
528.0503	0.0875040646933484	32	diastole	13	A	4999.999999999997	streaming
528.2303	0.0875040646933484	32	diastole	14	B	500.0	streaming
528.4103	0.0875040646933484	32	diastole	15	A	4999.999999999997	streaming
528.7804	0.0875040646933484	32	diastole	16	A	4999.999999999997	streaming
528.9604	0.0875040646933484	32	diastole	17	B	500.0	streaming
529.1404	0.0875040646933484	32	diastole	18	A	4999.999999999997	streaming
529.4704	0.0875040646933484	32	diastole	19	A	4999.999999999997	streaming
529.6504	0.0875040646933484	32	diastole	20	B	500.0	streaming
529.8304	0.0875040646933484	32	diastole	21	A	4999.999999999997	streaming
530.1604	0.0875040646933484	32	diastole	22	A	4999.999999999997	streaming
530.3404	0.0875040646933484	32	diastole	23	B	500.0	streaming
530.5204	0.0875040646933484	32	diastole	24	A	4999.999999999997	streaming
530.8604	0.0875040646933484	32	diastole	25	A	4999.999999999997	streaming
531.0404	0.0875040646933484	32	diastole	26	B	500.0	streaming
531.2204	0.0875040646933484	32	diastole	27	A	4999.999999999997	streaming
531.5604	0.0875040646933484	32	diastole	28	A	4999.999999999997	streaming
531.7404	0.0875040646933484	32	diastole	29	B	500.0	streaming
531.9204	0.0875040646933484	32	diastole	30	A	4999.999999999997	streaming
532.3004	0.0875040646933484	32	diastole	31	A	4999.999999999997	streaming
532.4804	0.0875040646933484	32	diastole	32	B	500.0	streaming
532.6604	0.0875040646933484	32	diastole	33	A	4999.999999999997	streaming
533.0375	0.0875040646933484	32	diastole	34	A	4999.999999999997	streaming
533.2187	0.0875040646933484	32	diastole	35	B	500.0	streaming
533.3999	0.0875040646933484	32	diastole	36	A	4999.999999999997	streaming
533.7675	0.0875040646933484	32	diastole	37	A	4999.999999999997	streaming
533.9487	0.0875040646933484	32	diastole	38	B	500.0	streaming
534.13	0.0875040646933484	32	diastole	39	A	4999.999999999997	streaming
536.3557	0.0906220623292028	33	systole	1	A	772.3687435845811	coherent
536.5362	0.0906220623292028	33	systole	2	B	500.0	coherent
536.7182	0.0906220623292028	33	systole	3	A	772.3687435845811	coherent
537.0657	0.0906220623292028	33	systole	4	A	772.3687435845811	coherent
537.2462	0.0906220623292028	33	systole	5	B	500.0	coherent
537.4282	0.0906220623292028	33	systole	6	A	772.3687435845811	coherent
537.8003	0.0906220623292028	33	systole	7	A	772.3687435845811	coherent
537.9821	0.0906220623292028	33	systole	8	B	500.0	coherent
538.1653	0.0906220623292028	33	systole	9	A	772.3687435845811	coherent
538.5303	0.0906220623292028	33	systole	10	A	772.3687435845811	coherent
538.7121	0.0906220623292028	33	systole	11	B	500.0	coherent
538.8953	0.0906220623292028	33	systole	12	A	772.3687435845811	coherent
539.2166	0.0906220623292028	33	systole	13	A	772.3687435845811	coherent
539.3946	0.0906220623292028	33	systole	14	B	500.0	coherent
539.5741	0.0906220623292028	33	systole	15	A	772.3687435845811	coherent
539.902	0.0906220623292028	33	systole	16	A	772.3687435845811	coherent
540.0788	0.0906220623292028	33	systole	17	B	500.0	coherent
540.257	0.0906220623292028	33	systole	18	A	772.3687435845811	coherent
540.6121	0.0906220623292028	33	systole	19	A	772.3687435845811	coherent
540.7889	0.0906220623292028	33	systole	20	B	500.0	coherent
540.9671	0.0906220623292028	33	systole	21	A	772.3687435845811	coherent
541.3222	0.0906220623292028	33	systole	22	A	772.3687435845811	coherent
541.499	0.0906220623292028	33	systole	23	B	500.0	coherent
541.6772	0.0906220623292028	33	systole	24	A	772.3687435845811	coherent
542.0423	0.0906220623292028	33	systole	25	A	772.3687435845811	coherent
542.219	0.0906220623292028	33	systole	26	B	500.0	coherent
542.3973	0.0906220623292028	33	systole	27	A	772.3687435845811	coherent
542.7521	0.0906220623292028	33	systole	28	A	772.3687435845811	coherent
542.9289	0.0906220623292028	33	systole	29	B	500.0	coherent
543.1071	0.0906220623292028	33	systole	30	A	772.3687435845811	coherent
543.4822	0.0906220623292028	33	systole	31	A	772.3687435845811	coherent
543.659	0.0906220623292028	33	systole	32	B	500.0	coherent
543.8372	0.0906220623292028	33	systole	33	A	772.3687435845811	coherent
544.1621	0.0906220623292028	33	systole	34	A	772.3687435845811	coherent
544.3389	0.0906220623292028	33	systole	35	B	500.0	coherent
544.5171	0.0906220623292028	33	systole	36	A	772.3687435845811	coherent
544.8176	0.0906220623292028	33	systole	37	A	772.3687435845811	coherent
544.9931	0.0906220623292028	33	systole	38	B	500.0	coherent
545.1701	0.0906220623292028	33	systole	39	A	772.3687435845811	coherent
545.4776	0.0906220623292028	33	systole	40	A	772.3687435845811	coherent
545.6532	0.0906220623292028	33	systole	41	B	500.0	coherent
545.8301	0.0906220623292028	33	systole	42	A	772.3687435845811	coherent
548.7872	0.081254302203888	34	diastole	1	A	4999.999999999997	streaming
548.9471	0.081254302203888	34	diastole	2	B	500.0	streaming
549.1071	0.081254302203888	34	diastole	3	A	4999.999999999997	streaming
549.4671	0.081254302203888	34	diastole	4	A	4999.999999999997	streaming
549.6271	0.081254302203888	34	diastole	5	B	500.0	streaming
549.7871	0.081254302203888	34	diastole	6	A	4999.999999999997	streaming
550.147	0.081254302203888	34	diastole	7	A	4999.999999999997	streaming
550.307	0.081254302203888	34	diastole	8	B	500.0	streaming
550.467	0.081254302203888	34	diastole	9	A	4999.999999999997	streaming
550.827	0.081254302203888	34	diastole	10	A	4999.999999999997	streaming
550.9869	0.081254302203888	34	diastole	11	B	500.0	streaming
551.147	0.081254302203888	34	diastole	12	A	4999.999999999997	streaming
551.5069	0.081254302203888	34	diastole	13	A	4999.999999999997	streaming
551.6669	0.081254302203888	34	diastole	14	B	500.0	streaming
551.8269	0.081254302203888	34	diastole	15	A	4999.999999999997	streaming
552.267	0.081254302203888	34	diastole	16	A	4999.999999999997	streaming
552.427	0.081254302203888	34	diastole	17	B	500.0	streaming
552.587	0.081254302203888	34	diastole	18	A	4999.999999999997	streaming
553.017	0.081254302203888	34	diastole	19	A	4999.999999999997	streaming
553.1769	0.081254302203888	34	diastole	20	B	500.0	streaming
553.337	0.081254302203888	34	diastole	21	A	4999.999999999997	streaming
553.839	0.081254302203888	34	diastole	22	A	4999.999999999997	streaming
554.0152	0.081254302203888	34	diastole	23	B	500.0	streaming
554.1915	0.081254302203888	34	diastole	24	A	4999.999999999997	streaming
554.5703	0.081254302203888	34	diastole	25	A	4999.999999999997	streaming
554.7503	0.081254302203888	34	diastole	26	B	500.0	streaming
554.9303	0.081254302203888	34	diastole	27	A	4999.999999999997	streaming
555.2803	0.081254302203888	34	diastole	28	A	4999.999999999997	streaming
555.4602	0.081254302203888	34	diastole	29	B	500.0	streaming
555.6403	0.081254302203888	34	diastole	30	A	4999.999999999997	streaming
555.9503	0.081254302203888	34	diastole	31	A	4999.999999999997	streaming
556.1302	0.081254302203888	34	diastole	32	B	500.0	streaming
556.3102	0.081254302203888	34	diastole	33	A	4999.999999999997	streaming
556.6103	0.081254302203888	34	diastole	34	A	4999.999999999997	streaming
556.7903	0.081254302203888	34	diastole	35	B	500.0	streaming
556.9703	0.081254302203888	34	diastole	36	A	4999.999999999997	streaming
557.2584	0.081254302203888	34	diastole	37	A	4999.999999999997	streaming
557.4384	0.081254302203888	34	diastole	38	B	500.0	streaming
557.6184	0.081254302203888	34	diastole	39	A	4999.999999999997	streaming
557.9065	0.081254302203888	34	diastole	40	A	4999.999999999997	streaming
558.0865	0.081254302203888	34	diastole	41	B	500.0	streaming
558.2665	0.081254302203888	34	diastole	42	A	4999.999999999997	streaming
560.2215	0.0818756250082515	35	systole	1	A	772.3687435845811	coherent
560.3846	0.0818756250082515	35	systole	2	B	500.0	coherent
560.549	0.0818756250082515	35	systole	3	A	772.3687435845811	coherent
560.9116	0.0818756250082515	35	systole	4	A	772.3687435845811	coherent
561.0746	0.0818756250082515	35	systole	5	B	500.0	coherent
561.2391	0.0818756250082515	35	systole	6	A	772.3687435845811	coherent
561.6116	0.0818756250082515	35	systole	7	A	772.3687435845811	coherent
561.7746	0.0818756250082515	35	systole	8	B	500.0	coherent
561.9391	0.0818756250082515	35	systole	9	A	772.3687435845811	coherent
562.3323	0.0818756250082515	35	systole	10	A	772.3687435845811	coherent
562.4956	0.0818756250082515	35	systole	11	B	500.0	coherent
562.6602	0.0818756250082515	35	systole	12	A	772.3687435845811	coherent
563.0522	0.0818756250082515	35	systole	13	A	772.3687435845811	coherent
563.2155	0.0818756250082515	35	systole	14	B	500.0	coherent
563.3801	0.0818756250082515	35	systole	15	A	772.3687435845811	coherent
563.7606	0.0818756250082515	35	systole	16	A	772.3687435845811	coherent
563.9261	0.0818756250082515	35	systole	17	B	500.0	coherent
564.0931	0.0818756250082515	35	systole	18	A	772.3687435845811	coherent
564.4589	0.0818756250082515	35	systole	19	A	772.3687435845811	coherent
564.6295	0.0818756250082515	35	systole	20	B	500.0	coherent
564.8015	0.0818756250082515	35	systole	21	A	772.3687435845811	coherent
565.1389	0.0818756250082515	35	systole	22	A	772.3687435845811	coherent
565.3095	0.0818756250082515	35	systole	23	B	500.0	coherent
565.4815	0.0818756250082515	35	systole	24	A	772.3687435845811	coherent
565.8189	0.0818756250082515	35	systole	25	A	772.3687435845811	coherent
565.9895	0.0818756250082515	35	systole	26	B	500.0	coherent
566.1614	0.0818756250082515	35	systole	27	A	772.3687435845811	coherent
566.4989	0.0818756250082515	35	systole	28	A	772.3687435845811	coherent
566.6695	0.0818756250082515	35	systole	29	B	500.0	coherent
566.8414	0.0818756250082515	35	systole	30	A	772.3687435845811	coherent
567.2181	0.0818756250082515	35	systole	31	A	772.3687435845811	coherent
567.3912	0.0818756250082515	35	systole	32	B	500.0	coherent
567.5656	0.0818756250082515	35	systole	33	A	772.3687435845811	coherent
567.9081	0.0818756250082515	35	systole	34	A	772.3687435845811	coherent
568.0812	0.0818756250082515	35	systole	35	B	500.0	coherent
568.2556	0.0818756250082515	35	systole	36	A	772.3687435845811	coherent
568.6126	0.0818756250082515	35	systole	37	A	772.3687435845811	coherent
568.7869	0.0818756250082515	35	systole	38	B	500.0	coherent
568.9626	0.0818756250082515	35	systole	39	A	772.3687435845811	coherent
569.2926	0.0818756250082515	35	systole	40	A	772.3687435845811	coherent
569.4669	0.0818756250082515	35	systole	41	B	500.0	coherent
569.6426	0.0818756250082515	35	systole	42	A	772.3687435845811	coherent
572.0435	0.0862463096855208	36	systole	1	A	790.3852555644094	coherent
572.2153	0.0862463096855208	36	systole	2	B	500.0	coherent
572.3885	0.0862463096855208	36	systole	3	A	790.3852555644094	coherent
572.7434	0.0862463096855208	36	systole	4	A	790.3852555644094	coherent
572.9153	0.0862463096855208	36	systole	5	B	500.0	coherent
573.0884	0.0862463096855208	36	systole	6	A	790.3852555644094	coherent
573.3944	0.0862463096855208	36	systole	7	A	790.3852555644094	coherent
573.5638	0.0862463096855208	36	systole	8	B	500.0	coherent
573.7345	0.0862463096855208	36	systole	9	A	790.3852555644094	coherent
574.0545	0.0862463096855208	36	systole	10	A	790.3852555644094	coherent
574.2238	0.0862463096855208	36	systole	11	B	500.0	coherent
574.3945	0.0862463096855208	36	systole	12	A	790.3852555644094	coherent
574.7145	0.0862463096855208	36	systole	13	A	790.3852555644094	coherent
574.8839	0.0862463096855208	36	systole	14	B	500.0	coherent
575.0545	0.0862463096855208	36	systole	15	A	790.3852555644094	coherent
575.3745	0.0862463096855208	36	systole	16	A	790.3852555644094	coherent
575.5439	0.0862463096855208	36	systole	17	B	500.0	coherent
575.7145	0.0862463096855208	36	systole	18	A	790.3852555644094	coherent
576.0345	0.0862463096855208	36	systole	19	A	790.3852555644094	coherent
576.2038	0.0862463096855208	36	systole	20	B	500.0	coherent
576.3745	0.0862463096855208	36	systole	21	A	790.3852555644094	coherent
576.6799	0.0862463096855208	36	systole	22	A	790.3852555644094	coherent
576.848	0.0862463096855208	36	systole	23	B	500.0	coherent
577.0174	0.0862463096855208	36	systole	24	A	790.3852555644094	coherent
577.3006	0.0862463096855208	36	systole	25	A	790.3852555644094	coherent
577.4662	0.0862463096855208	36	systole	26	B	500.0	coherent
577.6331	0.0862463096855208	36	systole	27	A	790.3852555644094	coherent
577.9159	0.0862463096855208	36	systole	28	A	790.3852555644094	coherent
578.0803	0.0862463096855208	36	systole	29	B	500.0	coherent
578.2459	0.0862463096855208	36	systole	30	A	790.3852555644094	coherent
578.536	0.0862463096855208	36	systole	31	A	790.3852555644094	coherent
578.7003	0.0862463096855208	36	systole	32	B	500.0	coherent
578.866	0.0862463096855208	36	systole	33	A	790.3852555644094	coherent
579.3261	0.0862463096855208	36	systole	34	A	790.3852555644094	coherent
579.4904	0.0862463096855208	36	systole	35	B	500.0	coherent
579.6561	0.0862463096855208	36	systole	36	A	790.3852555644094	coherent
580.236	0.0862463096855208	36	systole	37	A	790.3852555644094	coherent
580.4003	0.0862463096855208	36	systole	38	B	500.0	coherent
580.566	0.0862463096855208	36	systole	39	A	790.3852555644094	coherent
581.1459	0.0862463096855208	36	systole	40	A	790.3852555644094	coherent
581.3103	0.0862463096855208	36	systole	41	B	500.0	coherent
581.4759	0.0862463096855208	36	systole	42	A	790.3852555644094	coherent
584.3123	0.0956307584710884	37	systole	1	A	790.3852555644094	streaming
584.5028	0.0956307584710884	37	systole	2	B	500.0	streaming
584.6948	0.0956307584710884	37	systole	3	A	790.3852555644094	streaming
584.9823	0.0956307584710884	37	systole	4	A	790.3852555644094	streaming
585.1729	0.0956307584710884	37	systole	5	B	500.0	streaming
585.3648	0.0956307584710884	37	systole	6	A	790.3852555644094	streaming
585.6523	0.0956307584710884	37	systole	7	A	790.3852555644094	streaming
585.8429	0.0956307584710884	37	systole	8	B	500.0	streaming
586.0348	0.0956307584710884	37	systole	9	A	790.3852555644094	streaming
586.2822	0.0956307584710884	37	systole	10	A	790.3852555644094	streaming
586.4727	0.0956307584710884	37	systole	11	B	500.0	streaming
586.6647	0.0956307584710884	37	systole	12	A	790.3852555644094	streaming
586.9022	0.0956307584710884	37	systole	13	A	790.3852555644094	streaming
587.0928	0.0956307584710884	37	systole	14	B	500.0	streaming
587.2847	0.0956307584710884	37	systole	15	A	790.3852555644094	streaming
587.4783	0.0956307584710884	37	systole	16	A	790.3852555644094	streaming
587.6564	0.0956307584710884	37	systole	17	B	500.0	streaming
587.8358	0.0956307584710884	37	systole	18	A	790.3852555644094	streaming
588.0068	0.0956307584710884	37	systole	19	A	790.3852555644094	streaming
588.1687	0.0956307584710884	37	systole	20	B	500.0	streaming
588.3318	0.0956307584710884	37	systole	21	A	790.3852555644094	streaming
588.575	0.0956307584710884	37	systole	22	A	790.3852555644094	streaming
588.7308	0.0956307584710884	37	systole	23	B	500.0	streaming
588.8879	0.0956307584710884	37	systole	24	A	790.3852555644094	streaming
589.1804	0.0956307584710884	37	systole	25	A	790.3852555644094	streaming
589.335	0.0956307584710884	37	systole	26	B	500.0	streaming
589.4909	0.0956307584710884	37	systole	27	A	790.3852555644094	streaming
589.7846	0.0956307584710884	37	systole	28	A	790.3852555644094	streaming
589.9377	0.0956307584710884	37	systole	29	B	500.0	streaming
590.0922	0.0956307584710884	37	systole	30	A	790.3852555644094	streaming
590.415	0.0956307584710884	37	systole	31	A	790.3852555644094	streaming
590.5681	0.0956307584710884	37	systole	32	B	500.0	streaming
590.7225	0.0956307584710884	37	systole	33	A	790.3852555644094	streaming
591.0453	0.0956307584710884	37	systole	34	A	790.3852555644094	streaming
591.1984	0.0956307584710884	37	systole	35	B	500.0	streaming
591.3528	0.0956307584710884	37	systole	36	A	790.3852555644094	streaming
591.7253	0.0956307584710884	37	systole	37	A	790.3852555644094	streaming
591.8784	0.0956307584710884	37	systole	38	B	500.0	streaming
592.0328	0.0956307584710884	37	systole	39	A	790.3852555644094	streaming
592.4052	0.0956307584710884	37	systole	40	A	790.3852555644094	streaming
592.5583	0.0956307584710884	37	systole	41	B	500.0	streaming
592.7128	0.0956307584710884	37	systole	42	A	790.3852555644094	streaming
593.4952	0.0956307584710884	37	systole	43	A	790.3852555644094	streaming
593.6483	0.0956307584710884	37	systole	44	B	500.0	streaming
593.8027	0.0956307584710884	37	systole	45	A	790.3852555644094	streaming
596.4853	0.0937390067265369	38	systole	1	A	672.5736556787729	streaming
596.6818	0.0937390067265369	38	systole	2	B	500.0	streaming
596.8802	0.0937390067265369	38	systole	3	A	672.5736556787729	streaming
597.2452	0.0937390067265369	38	systole	4	A	672.5736556787729	streaming
597.4417	0.0937390067265369	38	systole	5	B	500.0	streaming
