onset	duration	trial_num	trial_type	tone_num	tone_type	frequency	response
40.73129999999992	0.095001137786312	1	diastole	1	B	500	systole
41.441299999999956	0.095001137786312	1	diastole	2	B	500	systole
42.15129999999999	0.095001137786312	1	diastole	3	B	500	systole
42.86130000000003	0.095001137786312	1	diastole	4	B	500	systole
43.54169999999999	0.095001137786312	1	diastole	5	B	500	systole
44.38169999999991	0.095001137786312	1	diastole	6	B	500	systole
45.271600000000035	0.095001137786312	1	diastole	7	B	500	systole
46.12169999999992	0.095001137786312	1	diastole	8	B	500	systole
46.971700000000055	0.095001137786312	1	diastole	9	B	500	systole
47.86149999999998	0.095001137786312	1	diastole	10	B	500	systole
48.65149999999994	0.095001137786312	1	diastole	11	B	500	systole
52.16470000000004	0.0987432688707485	2	systole	1	B	500	systole
52.93470000000002	0.0987432688707485	2	systole	2	B	500	systole
53.7047	0.0987432688707485	2	systole	3	B	500	systole
54.474699999999984	0.0987432688707485	2	systole	4	B	500	systole
55.244699999999966	0.0987432688707485	2	systole	5	B	500	systole
55.99309999999991	0.0987432688707485	2	systole	6	B	500	systole
56.753099999999904	0.0987432688707485	2	systole	7	B	500	systole
57.497299999999996	0.0987432688707485	2	systole	8	B	500	systole
58.24559999999997	0.0987432688707485	2	systole	9	B	500	systole
59.04140000000007	0.0987432688707485	2	systole	10	B	500	systole
59.781400000000076	0.0987432688707485	2	systole	11	B	500	systole
60.521400000000085	0.0987432688707485	2	systole	12	B	500	systole
61.26150000000007	0.0987432688707485	2	systole	13	B	500	systole
63.86439999999993	0.0906227687664795	3	systole	1	B	500	diastole
64.60490000000004	0.0906227687664795	3	systole	2	B	500	diastole
65.37480000000005	0.0906227687664795	3	systole	3	B	500	diastole
66.14480000000003	0.0906227687664795	3	systole	4	B	500	diastole
66.95219999999995	0.0906227687664795	3	systole	5	B	500	diastole
67.70839999999998	0.0906227687664795	3	systole	6	B	500	diastole
68.45849999999996	0.0906227687664795	3	systole	7	B	500	diastole
69.25639999999999	0.0906227687664795	3	systole	8	B	500	diastole
70.0483999999999	0.0906227687664795	3	systole	9	B	500	diastole
70.78639999999996	0.0906227687664795	3	systole	10	B	500	diastole
71.52440000000001	0.0906227687664795	3	systole	11	B	500	diastole
72.19479999999999	0.0906227687664795	3	systole	12	B	500	diastole
72.86519999999996	0.0906227687664795	3	systole	13	B	500	diastole
77.08420000000001	0.0899758856394328	4	diastole	1	B	500	diastole
77.87419999999997	0.0899758856394328	4	diastole	2	B	500	diastole
78.5978	0.0899758856394328	4	diastole	3	B	500	diastole
79.33320000000003	0.0899758856394328	4	diastole	4	B	500	diastole
80.08979999999997	0.0899758856394328	4	diastole	5	B	500	diastole
80.86310000000003	0.0899758856394328	4	diastole	6	B	500	diastole
81.60310000000004	0.0899758856394328	4	diastole	7	B	500	diastole
82.36130000000003	0.0899758856394328	4	diastole	8	B	500	diastole
83.04639999999995	0.0899758856394328	4	diastole	9	B	500	diastole
83.75800000000004	0.0899758856394328	4	diastole	10	B	500	diastole
84.49790000000007	0.0899758856394328	4	diastole	11	B	500	diastole
85.33799999999997	0.0899758856394328	4	diastole	12	B	500	diastole
86.17800000000011	0.0899758856394328	4	diastole	13	B	500	diastole
92.08300000000008	0.098126887489343	5	systole	1	B	500	systole
92.80300000000011	0.098126887489343	5	systole	2	B	500	systole
93.49549999999999	0.098126887489343	5	systole	3	B	500	systole
94.23970000000008	0.098126887489343	5	systole	4	B	500	systole
94.98970000000008	0.098126887489343	5	systole	5	B	500	systole
95.77549999999997	0.098126887489343	5	systole	6	B	500	systole
96.51549999999997	0.098126887489343	5	systole	7	B	500	systole
97.23410000000013	0.098126887489343	5	systole	8	B	500	systole
97.96759999999995	0.098126887489343	5	systole	9	B	500	systole
98.82760000000007	0.098126887489343	5	systole	10	B	500	systole
99.68759999999997	0.098126887489343	5	systole	11	B	500	systole
100.47780000000012	0.098126887489343	5	systole	12	B	500	systole
104.4081000000001	0.0924982719297986	6	diastole	1	B	500	diastole
105.11809999999991	0.0924982719297986	6	diastole	2	B	500	diastole
105.82819999999992	0.0924982719297986	6	diastole	3	B	500	diastole
106.53980000000001	0.0924982719297986	6	diastole	4	B	500	diastole
107.25980000000004	0.0924982719297986	6	diastole	5	B	500	diastole
107.9815000000001	0.0924982719297986	6	diastole	6	B	500	diastole
108.76150000000007	0.0924982719297986	6	diastole	7	B	500	diastole
109.5299	0.0924982719297986	6	diastole	8	B	500	diastole
110.24980000000005	0.0924982719297986	6	diastole	9	B	500	diastole
110.90300000000002	0.0924982719297986	6	diastole	10	B	500	diastole
111.58130000000006	0.0924982719297986	6	diastole	11	B	500	diastole
112.25950000000012	0.0924982719297986	6	diastole	12	B	500	diastole
112.95280000000002	0.0924982719297986	6	diastole	13	B	500	diastole
115.3257000000001	0.0868851751438342	7	systole	1	B	500	diastole
116.02590000000009	0.0868851751438342	7	systole	2	B	500	diastole
116.69000000000005	0.0868851751438342	7	systole	3	B	500	diastole
117.34840000000008	0.0868851751438342	7	systole	4	B	500	diastole
118.01839999999993	0.0868851751438342	7	systole	5	B	500	diastole
118.75790000000006	0.0868851751438342	7	systole	6	B	500	diastole
119.49739999999997	0.0868851751438342	7	systole	7	B	500	diastole
120.22440000000006	0.0868851751438342	7	systole	8	B	500	diastole
120.90480000000002	0.0868851751438342	7	systole	9	B	500	diastole
121.58510000000001	0.0868851751438342	7	systole	10	B	500	diastole
122.24770000000012	0.0868851751438342	7	systole	11	B	500	diastole
122.92769999999996	0.0868851751438342	7	systole	12	B	500	diastole
123.54790000000003	0.0868851751438342	7	systole	13	B	500	diastole
124.16800000000012	0.0868851751438342	7	systole	14	B	500	diastole
126.6413	0.0799955562106333	8	systole	1	B	500	diastole
127.3112000000001	0.0799955562106333	8	systole	2	B	500	diastole
127.98119999999994	0.0799955562106333	8	systole	3	B	500	diastole
128.65110000000004	0.0799955562106333	8	systole	4	B	500	diastole
129.30060000000003	0.0799955562106333	8	systole	5	B	500	diastole
129.97080000000005	0.0799955562106333	8	systole	6	B	500	diastole
130.62069999999994	0.0799955562106333	8	systole	7	B	500	diastole
131.3007	0.0799955562106333	8	systole	8	B	500	diastole
132.02420000000006	0.0799955562106333	8	systole	9	B	500	diastole
132.7242000000001	0.0799955562106333	8	systole	10	B	500	diastole
133.42419999999993	0.0799955562106333	8	systole	11	B	500	diastole
133.6771000000001	0.0799955562106333	8	systole	12	B	500	diastole
134.23410000000013	0.0799955562106333	8	systole	13	B	500	diastole
134.8723	0.0799955562106333	8	systole	14	B	500	diastole
135.48230000000012	0.0799955562106333	8	systole	15	B	500	diastole
137.5673999999999	0.0774669453385286	9	diastole	1	B	500	diastole
137.8071	0.0774669453385286	9	diastole	2	B	500	diastole
138.18090000000007	0.0774669453385286	9	diastole	3	B	500	diastole
138.41460000000006	0.0774669453385286	9	diastole	4	B	500	diastole
138.7104999999999	0.0774669453385286	9	diastole	5	B	500	diastole
139.30060000000003	0.0774669453385286	9	diastole	6	B	500	diastole
139.89069999999992	0.0774669453385286	9	diastole	7	B	500	diastole
140.48090000000002	0.0774669453385286	9	diastole	8	B	500	diastole
141.08079999999995	0.0774669453385286	9	diastole	9	B	500	diastole
141.68090000000007	0.0774669453385286	9	diastole	10	B	500	diastole
142.42110000000002	0.0774669453385286	9	diastole	11	B	500	diastole
143.01119999999992	0.0774669453385286	9	diastole	12	B	500	diastole
143.77469999999994	0.0774669453385286	9	diastole	13	B	500	diastole
144.42270000000008	0.0774669453385286	9	diastole	14	B	500	diastole
145.04120000000012	0.0774669453385286	9	diastole	15	B	500	diastole
145.65139999999997	0.0774669453385286	9	diastole	16	B	500	diastole
146.26160000000004	0.0774669453385286	9	diastole	17	B	500	diastole
146.93000000000006	0.0774669453385286	9	diastole	18	B	500	diastole
148.77940000000012	0.0781266562407836	10	systole	1	B	500	diastole
149.40930000000003	0.0781266562407836	10	systole	2	B	500	diastole
150.01350000000002	0.0781266562407836	10	systole	3	B	500	diastole
150.62789999999995	0.0781266562407836	10	systole	4	B	500	diastole
151.24800000000005	0.0781266562407836	10	systole	5	B	500	diastole
151.90370000000007	0.0781266562407836	10	systole	6	B	500	diastole
152.57400000000007	0.0781266562407836	10	systole	7	B	500	diastole
153.2596000000001	0.0781266562407836	10	systole	8	B	500	diastole
153.93949999999995	0.0781266562407836	10	systole	9	B	500	diastole
154.54390000000012	0.0781266562407836	10	systole	10	B	500	diastole
155.17949999999996	0.0781266562407836	10	systole	11	B	500	diastole
155.8094000000001	0.0781266562407836	10	systole	12	B	500	diastole
156.3995	0.0781266562407836	10	systole	13	B	500	diastole
156.9896000000001	0.0781266562407836	10	systole	14	B	500	diastole
157.6196	0.0781266562407836	10	systole	15	B	500	diastole
158.2412999999999	0.0781266562407836	10	systole	16	B	500	diastole
160.6789000000001	0.0782172001199796	11	systole	1	B	500	systole
161.29870000000005	0.0782172001199796	11	systole	2	B	500	systole
161.8877	0.0782172001199796	11	systole	3	B	500	systole
162.4876999999999	0.0782172001199796	11	systole	4	B	500	systole
163.1178	0.0782172001199796	11	systole	5	B	500	systole
163.76790000000005	0.0782172001199796	11	systole	6	B	500	systole
164.41319999999996	0.0782172001199796	11	systole	7	B	500	systole
165.0530000000001	0.0782172001199796	11	systole	8	B	500	systole
165.70319999999992	0.0782172001199796	11	systole	9	B	500	systole
166.35320000000002	0.0782172001199796	11	systole	10	B	500	systole
167.01639999999998	0.0782172001199796	11	systole	11	B	500	systole
167.70399999999995	0.0782172001199796	11	systole	12	B	500	systole
168.37400000000002	0.0782172001199796	11	systole	13	B	500	systole
169.05410000000006	0.0782172001199796	11	systole	14	B	500	systole
169.7349999999999	0.0782172001199796	11	systole	15	B	500	systole
173.03500000000008	0.08364958644961	12	systole	1	B	500	systole
173.6445000000001	0.08364958644961	12	systole	2	B	500	systole
174.2985000000001	0.08364958644961	12	systole	3	B	500	systole
174.95839999999998	0.08364958644961	12	systole	4	B	500	systole
175.56279999999992	0.08364958644961	12	systole	5	B	500	systole
176.21280000000002	0.08364958644961	12	systole	6	B	500	systole
176.90260000000012	0.08364958644961	12	systole	7	B	500	systole
177.56279999999992	0.08364958644961	12	systole	8	B	500	systole
178.22289999999998	0.08364958644961	12	systole	9	B	500	systole
178.88869999999997	0.08364958644961	12	systole	10	B	500	systole
179.54880000000003	0.08364958644961	12	systole	11	B	500	systole
180.20890000000009	0.08364958644961	12	systole	12	B	500	systole
180.9049	0.08364958644961	12	systole	13	B	500	systole
181.5347999999999	0.08364958644961	12	systole	14	B	500	systole
182.1648	0.08364958644961	12	systole	15	B	500	systole
186.00950000000012	0.0837635064381174	13	diastole	1	B	500	diastole
186.68939999999998	0.0837635064381174	13	diastole	2	B	500	diastole
187.3692000000001	0.0837635064381174	13	diastole	3	B	500	diastole
188.05729999999994	0.0837635064381174	13	diastole	4	B	500	diastole
188.69910000000004	0.0837635064381174	13	diastole	5	B	500	diastole
189.42730000000006	0.0837635064381174	13	diastole	6	B	500	diastole
190.1771000000001	0.0837635064381174	13	diastole	7	B	500	diastole
190.92689999999993	0.0837635064381174	13	diastole	8	B	500	diastole
191.587	0.0837635064381174	13	diastole	9	B	500	diastole
192.3137999999999	0.0837635064381174	13	diastole	10	B	500	diastole
193.03050000000007	0.0837635064381174	13	diastole	11	B	500	diastole
193.73050000000012	0.0837635064381174	13	diastole	12	B	500	diastole
194.4688000000001	0.0837635064381174	13	diastole	13	B	500	diastole
196.57960000000003	0.0900007427553646	14	diastole	1	B	500	diastole
197.25970000000007	0.0900007427553646	14	diastole	2	B	500	diastole
197.9013	0.0900007427553646	14	diastole	3	B	500	diastole
198.53459999999995	0.0900007427553646	14	diastole	4	B	500	diastole
199.21450000000004	0.0900007427553646	14	diastole	5	B	500	diastole
199.8943999999999	0.0900007427553646	14	diastole	6	B	500	diastole
200.5395000000001	0.0900007427553646	14	diastole	7	B	500	diastole
201.24790000000007	0.0900007427553646	14	diastole	8	B	500	diastole
201.95630000000006	0.0900007427553646	14	diastole	9	B	500	diastole
202.6563000000001	0.0900007427553646	14	diastole	10	B	500	diastole
203.35629999999992	0.0900007427553646	14	diastole	11	B	500	diastole
204.0548000000001	0.0900007427553646	14	diastole	12	B	500	diastole
204.8614	0.0900007427553646	14	diastole	13	B	500	diastole
205.5697	0.0900007427553646	14	diastole	14	B	500	diastole
206.24950000000013	0.0900007427553646	14	diastole	15	B	500	diastole
209.47720000000004	0.0881542303832247	15	systole	1	B	500	systole
210.17139999999995	0.0881542303832247	15	systole	2	B	500	systole
210.8714	0.0881542303832247	15	systole	3	B	500	systole
211.57150000000001	0.0881542303832247	15	systole	4	B	500	systole
212.27140000000009	0.0881542303832247	15	systole	5	B	500	systole
213.0077000000001	0.0881542303832247	15	systole	6	B	500	systole
213.67190000000005	0.0881542303832247	15	systole	7	B	500	systole
214.3420000000001	0.0881542303832247	15	systole	8	B	500	systole
215.0417	0.0881542303832247	15	systole	9	B	500	systole
215.74170000000004	0.0881542303832247	15	systole	10	B	500	systole
216.44180000000006	0.0881542303832247	15	systole	11	B	500	systole
217.1117999999999	0.0881542303832247	15	systole	12	B	500	systole
217.78189999999995	0.0881542303832247	15	systole	13	B	500	systole
218.46170000000006	0.0881542303832247	15	systole	14	B	500	systole
219.1617000000001	0.0881542303832247	15	systole	15	B	500	systole
221.62290000000007	0.0868714374955743	16	diastole	1	B	500	systole
222.2745	0.0868714374955743	16	diastole	2	B	500	systole
222.93460000000005	0.0868714374955743	16	diastole	3	B	500	systole
223.61290000000008	0.0868714374955743	16	diastole	4	B	500	systole
224.29109999999991	0.0868714374955743	16	diastole	5	B	500	systole
224.93139999999994	0.0868714374955743	16	diastole	6	B	500	systole
225.58140000000003	0.0868714374955743	16	diastole	7	B	500	systole
226.2349999999999	0.0868714374955743	16	diastole	8	B	500	systole
226.89789999999994	0.0868714374955743	16	diastole	9	B	500	systole
227.60539999999992	0.0868714374955743	16	diastole	10	B	500	systole
228.2681	0.0868714374955743	16	diastole	11	B	500	systole
228.93779999999992	0.0868714374955743	16	diastole	12	B	500	systole
229.60770000000002	0.0868714374955743	16	diastole	13	B	500	systole
230.2777000000001	0.0868714374955743	16	diastole	14	B	500	systole
231.01150000000007	0.0868714374955743	16	diastole	15	B	500	systole
233.54300000000012	0.087437142356066	17	systole	1	B	500	diastole
234.17630000000008	0.087437142356066	17	systole	2	B	500	diastole
234.84609999999998	0.087437142356066	17	systole	3	B	500	diastole
235.53199999999993	0.087437142356066	17	systole	4	B	500	diastole
236.212	0.087437142356066	17	systole	5	B	500	diastole
236.88619999999992	0.087437142356066	17	systole	6	B	500	diastole
237.53600000000006	0.087437142356066	17	systole	7	B	500	diastole
238.18010000000004	0.087437142356066	17	systole	8	B	500	diastole
238.85619999999994	0.087437142356066	17	systole	9	B	500	diastole
239.5263	0.087437142356066	17	systole	10	B	500	diastole
240.19640000000004	0.087437142356066	17	systole	11	B	500	diastole
240.8664000000001	0.087437142356066	17	systole	12	B	500	diastole
241.53639999999996	0.087437142356066	17	systole	13	B	500	diastole
242.20640000000003	0.087437142356066	17	systole	14	B	500	diastole
245.16129999999998	0.0837502124777529	18	diastole	1	B	500	systole
245.80130000000008	0.0837502124777529	18	diastole	2	B	500	systole
246.4912999999999	0.0837502124777529	18	diastole	3	B	500	systole
247.1812	0.0837502124777529	18	diastole	4	B	500	systole
247.90930000000003	0.0837502124777529	18	diastole	5	B	500	systole
248.65640000000008	0.0837502124777529	18	diastole	6	B	500	systole
249.3868	0.0837502124777529	18	diastole	7	B	500	systole
250.08830000000012	0.0837502124777529	18	diastole	8	B	500	systole
250.80510000000004	0.0837502124777529	18	diastole	9	B	500	systole
251.5014000000001	0.0837502124777529	18	diastole	10	B	500	systole
252.2101	0.0837502124777529	18	diastole	11	B	500	systole
252.92219999999998	0.0837502124777529	18	diastole	12	B	500	systole
253.6835000000001	0.0837502124777529	18	diastole	13	B	500	systole
256.1713	0.0874841812474187	19	systole	1	B	500	systole
256.8714	0.0874841812474187	19	systole	2	B	500	systole
257.57140000000004	0.0874841812474187	19	systole	3	B	500	systole
258.24109999999996	0.0874841812474187	19	systole	4	B	500	systole
258.94100000000003	0.0874841812474187	19	systole	5	B	500	systole
259.67100000000005	0.0874841812474187	19	systole	6	B	500	systole
260.37110000000007	0.0874841812474187	19	systole	7	B	500	systole
261.0711000000001	0.0874841812474187	19	systole	8	B	500	systole
261.7912000000001	0.0874841812474187	19	systole	9	B	500	systole
262.5068000000001	0.0874841812474187	19	systole	10	B	500	systole
263.2165	0.0874841812474187	19	systole	11	B	500	systole
263.9006999999999	0.0874841812474187	19	systole	12	B	500	systole
264.6105	0.0874841812474187	19	systole	13	B	500	systole
265.3106	0.0874841812474187	19	systole	14	B	500	systole
268.1657	0.0868983855471015	20	systole	1	B	500	systole
268.87120000000004	0.0868983855471015	20	systole	2	B	500	systole
269.5712000000001	0.0868983855471015	20	systole	3	B	500	systole
270.297	0.0868983855471015	20	systole	4	B	500	systole
270.97119999999995	0.0868983855471015	20	systole	5	B	500	systole
271.73299999999995	0.0868983855471015	20	systole	6	B	500	systole
272.49199999999996	0.0868983855471015	20	systole	7	B	500	systole
273.28189999999995	0.0868983855471015	20	systole	8	B	500	systole
274.0603000000001	0.0868983855471015	20	systole	9	B	500	systole
274.74299999999994	0.0868983855471015	20	systole	10	B	500	systole
275.4825000000001	0.0868983855471015	20	systole	11	B	500	systole
276.22209999999995	0.0868983855471015	20	systole	12	B	500	systole
276.9838	0.0868983855471015	20	systole	13	B	500	systole
279.8616999999999	0.0925664405804127	21	systole	1	B	500	systole
280.5861	0.0925664405804127	21	systole	2	B	500	systole
281.3520000000001	0.0925664405804127	21	systole	3	B	500	systole
282.1334999999999	0.0925664405804127	21	systole	4	B	500	systole
282.9031	0.0925664405804127	21	systole	5	B	500	systole
283.6274000000001	0.0925664405804127	21	systole	6	B	500	systole
284.3155999999999	0.0925664405804127	21	systole	7	B	500	systole
285.01559999999995	0.0925664405804127	21	systole	8	B	500	systole
285.71530000000007	0.0925664405804127	21	systole	9	B	500	systole
286.4852000000001	0.0925664405804127	21	systole	10	B	500	systole
287.1573000000001	0.0925664405804127	21	systole	11	B	500	systole
287.82950000000005	0.0925664405804127	21	systole	12	B	500	systole
288.4396999999999	0.0925664405804127	21	systole	13	B	500	systole
289.0797	0.0925664405804127	21	systole	14	B	500	systole
291.5331000000001	0.0874903436633758	22	diastole	1	B	500	systole
292.2147	0.0874903436633758	22	diastole	2	B	500	systole
292.8746000000001	0.0874903436633758	22	diastole	3	B	500	systole
293.53459999999995	0.0874903436633758	22	diastole	4	B	500	systole
294.2463	0.0874903436633758	22	diastole	5	B	500	systole
294.95489999999995	0.0874903436633758	22	diastole	6	B	500	systole
295.66329999999994	0.0874903436633758	22	diastole	7	B	500	systole
296.4314999999999	0.0874903436633758	22	diastole	8	B	500	systole
297.19100000000003	0.0874903436633758	22	diastole	9	B	500	systole
297.89969999999994	0.0874903436633758	22	diastole	10	B	500	systole
298.5598	0.0874903436633758	22	diastole	11	B	500	systole
299.241	0.0874903436633758	22	diastole	12	B	500	systole
299.94949999999994	0.0874903436633758	22	diastole	13	B	500	systole
300.72630000000004	0.0874903436633758	22	diastole	14	B	500	systole
302.7047	0.0906262499920558	23	systole	1	B	500	systole
303.42470000000003	0.0906262499920558	23	systole	2	B	500	systole
304.16599999999994	0.0906262499920558	23	systole	3	B	500	systole
304.866	0.0906262499920558	23	systole	4	B	500	systole
305.56600000000003	0.0906262499920558	23	systole	5	B	500	systole
306.25019999999995	0.0906262499920558	23	systole	6	B	500	systole
306.94640000000004	0.0906262499920558	23	systole	7	B	500	systole
307.64830000000006	0.0906262499920558	23	systole	8	B	500	systole
308.4222	0.0906262499920558	23	systole	9	B	500	systole
309.21209999999996	0.0906262499920558	23	systole	10	B	500	systole
309.9323999999999	0.0906262499920558	23	systole	11	B	500	systole
310.6524999999999	0.0906262499920558	23	systole	12	B	500	systole
311.36609999999996	0.0906262499920558	23	systole	13	B	500	systole
312.0961	0.0906262499920558	23	systole	14	B	500	systole
316.8263999999999	0.0906312903098296	24	diastole	1	B	500	diastole
317.4894999999999	0.0906312903098296	24	diastole	2	B	500	diastole
318.1595	0.0906312903098296	24	diastole	3	B	500	diastole
318.8294000000001	0.0906312903098296	24	diastole	4	B	500	diastole
319.52150000000006	0.0906312903098296	24	diastole	5	B	500	diastole
320.22170000000006	0.0906312903098296	24	diastole	6	B	500	diastole
320.97170000000006	0.0906312903098296	24	diastole	7	B	500	diastole
321.7119	0.0906312903098296	24	diastole	8	B	500	diastole
322.4402	0.0906312903098296	24	diastole	9	B	500	diastole
323.1582000000001	0.0906312903098296	24	diastole	10	B	500	diastole
323.8680999999999	0.0906312903098296	24	diastole	11	B	500	diastole
324.5499	0.0906312903098296	24	diastole	12	B	500	diastole
325.1898000000001	0.0906312903098296	24	diastole	13	B	500	diastole
325.83989999999994	0.0906312903098296	24	diastole	14	B	500	diastole
328.9812999999999	0.080756668903632	25	diastole	1	B	500	systole
329.66139999999996	0.080756668903632	25	diastole	2	B	500	systole
330.33130000000006	0.080756668903632	25	diastole	3	B	500	systole
331.08140000000003	0.080756668903632	25	diastole	4	B	500	systole
331.81629999999996	0.080756668903632	25	diastole	5	B	500	systole
332.64290000000005	0.080756668903632	25	diastole	6	B	500	systole
333.4312	0.080756668903632	25	diastole	7	B	500	systole
334.1111000000001	0.080756668903632	25	diastole	8	B	500	systole
334.79099999999994	0.080756668903632	25	diastole	9	B	500	systole
335.5077000000001	0.080756668903632	25	diastole	10	B	500	systole
336.20769999999993	0.080756668903632	25	diastole	11	B	500	systole
336.9076	0.080756668903632	25	diastole	12	B	500	systole
337.60760000000005	0.080756668903632	25	diastole	13	B	500	systole
340.1912	0.0875018375227227	26	systole	1	B	500	diastole
340.9229	0.0875018375227227	26	systole	2	B	500	diastole
341.67470000000003	0.0875018375227227	26	systole	3	B	500	diastole
342.38470000000007	0.0875018375227227	26	systole	4	B	500	diastole
343.0948000000001	0.0875018375227227	26	systole	5	B	500	diastole
343.8048000000001	0.0875018375227227	26	systole	6	B	500	diastole
344.50479999999993	0.0875018375227227	26	systole	7	B	500	diastole
345.1889000000001	0.0875018375227227	26	systole	8	B	500	diastole
345.9747	0.0875018375227227	26	systole	9	B	500	diastole
346.75440000000003	0.0875018375227227	26	systole	10	B	500	diastole
347.5499	0.0875018375227227	26	systole	11	B	500	diastole
348.3061	0.0875018375227227	26	systole	12	B	500	diastole
349.0564999999999	0.0875018375227227	26	systole	13	B	500	diastole
352.29269999999997	0.0962461001472547	27	systole	1	B	500	systole
352.9456	0.0962461001472547	27	systole	2	B	500	systole
353.61570000000006	0.0962461001472547	27	systole	3	B	500	systole
354.33979999999997	0.0962461001472547	27	systole	4	B	500	systole
355.0636999999999	0.0962461001472547	27	systole	5	B	500	systole
355.88879999999995	0.0962461001472547	27	systole	6	B	500	systole
356.6789000000001	0.0962461001472547	27	systole	7	B	500	systole
357.48620000000005	0.0962461001472547	27	systole	8	B	500	systole
358.2086999999999	0.0962461001472547	27	systole	9	B	500	systole
358.90959999999995	0.0962461001472547	27	systole	10	B	500	systole
359.6395	0.0962461001472547	27	systole	11	B	500	systole
360.3894	0.0962461001472547	27	systole	12	B	500	systole
361.1394	0.0962461001472547	27	systole	13	B	500	systole
361.8597	0.0962461001472547	27	systole	14	B	500	systole
365.5943	0.0937580610916484	28	diastole	1	B	500	diastole
366.4039	0.0937580610916484	28	diastole	2	B	500	diastole
367.14390000000003	0.0937580610916484	28	diastole	3	B	500	diastole
367.8742	0.0937580610916484	28	diastole	4	B	500	diastole
368.64239999999995	0.0937580610916484	28	diastole	5	B	500	diastole
369.40239999999994	0.0937580610916484	28	diastole	6	B	500	diastole
370.11429999999996	0.0937580610916484	28	diastole	7	B	500	diastole
370.83449999999993	0.0937580610916484	28	diastole	8	B	500	diastole
371.4797000000001	0.0937580610916484	28	diastole	9	B	500	diastole
372.20129999999995	0.0937580610916484	28	diastole	10	B	500	diastole
372.91290000000004	0.0937580610916484	28	diastole	11	B	500	diastole
373.63290000000006	0.0937580610916484	28	diastole	12	B	500	diastole
377.0105000000001	0.0906267987738829	29	systole	1	B	500	systole
377.7306000000001	0.0906267987738829	29	systole	2	B	500	systole
378.43049999999994	0.0906267987738829	29	systole	3	B	500	systole
379.1305	0.0906267987738829	29	systole	4	B	500	systole
379.8247000000001	0.0906267987738829	29	systole	5	B	500	systole
380.5549000000001	0.0906267987738829	29	systole	6	B	500	systole
381.38480000000004	0.0906267987738829	29	systole	7	B	500	systole
382.18049999999994	0.0906267987738829	29	systole	8	B	500	systole
382.9163000000001	0.0906267987738829	29	systole	9	B	500	systole
383.6464000000001	0.0906267987738829	29	systole	10	B	500	systole
384.43640000000005	0.0906267987738829	29	systole	11	B	500	systole
385.30960000000005	0.0906267987738829	29	systole	12	B	500	systole
386.1595	0.0906267987738829	29	systole	13	B	500	systole
389.4711	0.0974942351458594	30	diastole	1	B	500	systole
390.2011	0.0974942351458594	30	diastole	2	B	500	systole
390.9144000000001	0.0974942351458594	30	diastole	3	B	500	systole
391.64429999999993	0.0974942351458594	30	diastole	4	B	500	systole
392.3076000000001	0.0974942351458594	30	diastole	5	B	500	systole
392.98749999999995	0.0974942351458594	30	diastole	6	B	500	systole
393.64290000000005	0.0974942351458594	30	diastole	7	B	500	systole
394.30420000000004	0.0974942351458594	30	diastole	8	B	500	systole
394.97990000000004	0.0974942351458594	30	diastole	9	B	500	systole
395.6513	0.0974942351458594	30	diastole	10	B	500	systole
396.3312000000001	0.0974942351458594	30	diastole	11	B	500	systole
397.01109999999994	0.0974942351458594	30	diastole	12	B	500	systole
397.63789999999995	0.0974942351458594	30	diastole	13	B	500	systole
398.43499999999995	0.0974942351458594	30	diastole	14	B	500	systole
400.77520000000004	0.0882358587405178	31	diastole	1	B	500	diastole
401.6084000000001	0.0882358587405178	31	diastole	2	B	500	diastole
402.40840000000003	0.0882358587405178	31	diastole	3	B	500	diastole
403.2726	0.0882358587405178	31	diastole	4	B	500	diastole
404.0947000000001	0.0882358587405178	31	diastole	5	B	500	diastole
404.8746000000001	0.0882358587405178	31	diastole	6	B	500	diastole
405.5947000000001	0.0882358587405178	31	diastole	7	B	500	diastole
406.3445999999999	0.0882358587405178	31	diastole	8	B	500	diastole
407.0945999999999	0.0882358587405178	31	diastole	9	B	500	diastole
407.78469999999993	0.0882358587405178	31	diastole	10	B	500	diastole
408.47479999999996	0.0882358587405178	31	diastole	11	B	500	diastole
409.15969999999993	0.0882358587405178	31	diastole	12	B	500	diastole
412.1395	0.0918776374601293	32	diastole	1	B	500	diastole
412.8596	0.0918776374601293	32	diastole	2	B	500	diastole
413.5163	0.0918776374601293	32	diastole	3	B	500	diastole
414.2560000000001	0.0918776374601293	32	diastole	4	B	500	diastole
414.99569999999994	0.0918776374601293	32	diastole	5	B	500	diastole
415.7659000000001	0.0918776374601293	32	diastole	6	B	500	diastole
416.53600000000006	0.0918776374601293	32	diastole	7	B	500	diastole
417.3108	0.0918776374601293	32	diastole	8	B	500	diastole
418.00070000000005	0.0918776374601293	32	diastole	9	B	500	diastole
418.73900000000003	0.0918776374601293	32	diastole	10	B	500	diastole
419.5657000000001	0.0918776374601293	32	diastole	11	B	500	diastole
420.4556	0.0918776374601293	32	diastole	12	B	500	diastole
422.57259999999997	0.0937515016994439	33	systole	1	B	500	systole
423.36259999999993	0.0937515016994439	33	systole	2	B	500	systole
424.1028000000001	0.0937515016994439	33	systole	3	B	500	systole
424.8430000000001	0.0937515016994439	33	systole	4	B	500	systole
425.5628999999999	0.0937515016994439	33	systole	5	B	500	systole
426.30539999999996	0.0937515016994439	33	systole	6	B	500	systole
427.24520000000007	0.0937515016994439	33	systole	7	B	500	systole
428.1850999999999	0.0937515016994439	33	systole	8	B	500	systole
429.0482999999999	0.0937515016994439	33	systole	9	B	500	systole
429.8882000000001	0.0937515016994439	33	systole	10	B	500	systole
430.68010000000004	0.0937515016994439	33	systole	11	B	500	systole
431.41020000000003	0.0937515016994439	33	systole	12	B	500	systole
434.11889999999994	0.0956043125188443	34	systole	1	B	500	systole
434.85850000000005	0.0956043125188443	34	systole	2	B	500	systole
435.6287	0.0956043125188443	34	systole	3	B	500	systole
436.39879999999994	0.0956043125188443	34	systole	4	B	500	systole
437.1548	0.0956043125188443	34	systole	5	B	500	systole
437.9249	0.0956043125188443	34	systole	6	B	500	systole
438.731	0.0956043125188443	34	systole	7	B	500	systole
439.56269999999995	0.0956043125188443	34	systole	8	B	500	systole
440.3484000000001	0.0956043125188443	34	systole	9	B	500	systole
441.1283000000001	0.0956043125188443	34	systole	10	B	500	systole
441.87840000000006	0.0956043125188443	34	systole	11	B	500	systole
442.62840000000006	0.0956043125188443	34	systole	12	B	500	systole
445.27099999999996	0.095007056457689	35	diastole	1	B	500	diastole
445.9546	0.095007056457689	35	diastole	2	B	500	diastole
446.66460000000006	0.095007056457689	35	diastole	3	B	500	diastole
447.3747000000001	0.095007056457689	35	diastole	4	B	500	diastole
448.14470000000006	0.095007056457689	35	diastole	5	B	500	diastole
448.8745000000001	0.095007056457689	35	diastole	6	B	500	diastole
449.60439999999994	0.095007056457689	35	diastole	7	B	500	diastole
450.29099999999994	0.095007056457689	35	diastole	8	B	500	diastole
451.0111999999999	0.095007056457689	35	diastole	9	B	500	diastole
451.6731	0.095007056457689	35	diastole	10	B	500	diastole
452.28999999999996	0.095007056457689	35	diastole	11	B	500	diastole
452.8915999999999	0.095007056457689	35	diastole	12	B	500	diastole
453.5017	0.095007056457689	35	diastole	13	B	500	diastole
454.1119000000001	0.095007056457689	35	diastole	14	B	500	diastole
456.8912	0.0843734698137268	36	diastole	1	B	500	systole
457.5430000000001	0.0843734698137268	36	diastole	2	B	500	systole
458.20309999999995	0.0843734698137268	36	diastole	3	B	500	systole
458.9896000000001	0.0843734698137268	36	diastole	4	B	500	systole
459.69589999999994	0.0843734698137268	36	diastole	5	B	500	systole
460.37609999999995	0.0843734698137268	36	diastole	6	B	500	systole
461.0561	0.0843734698137268	36	diastole	7	B	500	systole
461.72620000000006	0.0843734698137268	36	diastole	8	B	500	systole
462.4262000000001	0.0843734698137268	36	diastole	9	B	500	systole
463.1662000000001	0.0843734698137268	36	diastole	10	B	500	systole
463.9664	0.0843734698137268	36	diastole	11	B	500	systole
464.71630000000005	0.0843734698137268	36	diastole	12	B	500	systole
465.46450000000004	0.0843734698137268	36	diastole	13	B	500	systole
468.606	0.0931105187628418	37	diastole	1	B	500	diastole
469.3361	0.0931105187628418	37	diastole	2	B	500	diastole
470.03600000000006	0.0931105187628418	37	diastole	3	B	500	diastole
470.7660000000001	0.0931105187628418	37	diastole	4	B	500	diastole
471.49610000000007	0.0931105187628418	37	diastole	5	B	500	diastole
472.2961	0.0931105187628418	37	diastole	6	B	500	diastole
473.0961	0.0931105187628418	37	diastole	7	B	500	diastole
473.89609999999993	0.0931105187628418	37	diastole	8	B	500	diastole
474.7545	0.0931105187628418	37	diastole	9	B	500	diastole
475.6044999999999	0.0931105187628418	37	diastole	10	B	500	diastole
476.33449999999993	0.0931105187628418	37	diastole	11	B	500	diastole
477.0645999999999	0.0931105187628418	37	diastole	12	B	500	diastole
479.4296999999999	0.1012563439144287	38	systole	1	B	500	systole
480.2297000000001	0.1012563439144287	38	systole	2	B	500	systole
481.0338999999999	0.1012563439144287	38	systole	3	B	500	systole
481.85390000000007	0.1012563439144287	38	systole	4	B	500	systole
482.6952000000001	0.1012563439144287	38	systole	5	B	500	systole
483.4751000000001	0.1012563439144287	38	systole	6	B	500	systole
484.2551000000001	0.1012563439144287	38	systole	7	B	500	systole
485.0051000000001	0.1012563439144287	38	systole	8	B	500	systole
485.7771	0.1012563439144287	38	systole	9	B	500	systole
486.56539999999995	0.1012563439144287	38	systole	10	B	500	systole
487.3436999999999	0.1012563439144287	38	systole	11	B	500	systole
488.1337000000001	0.1012563439144287	38	systole	12	B	500	systole
488.87200000000007	0.1012563439144287	38	systole	13	B	500	systole
491.4296999999999	0.0963809331879019	39	diastole	1	B	500	diastole
492.1681000000001	0.0963809331879019	39	diastole	2	B	500	diastole
492.9181000000001	0.0963809331879019	39	diastole	3	B	500	diastole
493.6874	0.0963809331879019	39	diastole	4	B	500	diastole
494.4305999999999	0.0963809331879019	39	diastole	5	B	500	diastole
495.1805999999999	0.0963809331879019	39	diastole	6	B	500	diastole
495.97080000000005	0.0963809331879019	39	diastole	7	B	500	diastole
496.7609	0.0963809331879019	39	diastole	8	B	500	diastole
497.55089999999996	0.0963809331879019	39	diastole	9	B	500	diastole
498.36619999999994	0.0963809331879019	39	diastole	10	B	500	diastole
499.08590000000004	0.0963809331879019	39	diastole	11	B	500	diastole
499.8055999999999	0.0963809331879019	39	diastole	12	B	500	diastole
500.53919999999994	0.0963809331879019	39	diastole	13	B	500	diastole
502.5779	0.09374419375672	40	diastole	1	B	500	diastole
503.1624999999999	0.09374419375672	40	diastole	2	B	500	diastole
503.7723000000001	0.09374419375672	40	diastole	3	B	500	diastole
504.05459999999994	0.09374419375672	40	diastole	4	B	500	diastole
504.2759000000001	0.09374419375672	40	diastole	5	B	500	diastole
504.6689000000001	0.09374419375672	40	diastole	6	B	500	diastole
505.2786000000001	0.09374419375672	40	diastole	7	B	500	diastole
505.9785999999999	0.09374419375672	40	diastole	8	B	500	diastole
506.7786000000001	0.09374419375672	40	diastole	9	B	500	diastole
507.57860000000005	0.09374419375672	40	diastole	10	B	500	diastole
508.3836000000001	0.09374419375672	40	diastole	11	B	500	diastole
509.1732999999999	0.09374419375672	40	diastole	12	B	500	diastole
509.98160000000007	0.09374419375672	40	diastole	13	B	500	diastole
510.6814999999999	0.09374419375672	40	diastole	14	B	500	diastole
511.41830000000004	0.09374419375672	40	diastole	15	B	500	diastole
512.2201	0.09374419375672	40	diastole	16	B	500	diastole
514.6234	0.0937574017734732	41	systole	1	B	500	systole
515.3578	0.0937574017734732	41	systole	2	B	500	systole
516.0818999999999	0.0937574017734732	41	systole	3	B	500	systole
516.8477	0.0937574017734732	41	systole	4	B	500	systole
517.6077	0.0937574017734732	41	systole	5	B	500	systole
518.3577	0.0937574017734732	41	systole	6	B	500	systole
519.1077	0.0937574017734732	41	systole	7	B	500	systole
519.8578	0.0937574017734732	41	systole	8	B	500	systole
520.6079	0.0937574017734732	41	systole	9	B	500	systole
521.3438000000001	0.0937574017734732	41	systole	10	B	500	systole
522.0537999999999	0.0937574017734732	41	systole	11	B	500	systole
522.7637	0.0937574017734732	41	systole	12	B	500	systole
523.4737	0.0937574017734732	41	systole	13	B	500	systole
525.3643999999999	0.0937506000045687	42	diastole	1	B	500	systole
526.0644	0.0937506000045687	42	diastole	2	B	500	systole
526.7178000000001	0.0937506000045687	42	diastole	3	B	500	systole
527.4776999999999	0.0937506000045687	42	diastole	4	B	500	systole
528.2094999999999	0.0937506000045687	42	diastole	5	B	500	systole
528.9495999999999	0.0937506000045687	42	diastole	6	B	500	systole
529.7796000000001	0.0937506000045687	42	diastole	7	B	500	systole
530.5662	0.0937506000045687	42	diastole	8	B	500	systole
531.4028000000001	0.0937506000045687	42	diastole	9	B	500	systole
532.2230999999999	0.0937506000045687	42	diastole	10	B	500	systole
533.0435	0.0937506000045687	42	diastole	11	B	500	systole
533.8639000000001	0.0937506000045687	42	diastole	12	B	500	systole
534.6007	0.0937506000045687	42	diastole	13	B	500	systole
537.8992000000001	0.0937420219415798	43	systole	1	B	500	systole
538.6491000000001	0.0937420219415798	43	systole	2	B	500	systole
539.3991000000001	0.0937420219415798	43	systole	3	B	500	systole
540.1288999999999	0.0937420219415798	43	systole	4	B	500	systole
540.8589	0.0937420219415798	43	systole	5	B	500	systole
541.5931	0.0937420219415798	43	systole	6	B	500	systole
542.4290000000001	0.0937420219415798	43	systole	7	B	500	systole
543.2591	0.0937420219415798	43	systole	8	B	500	systole
544.009	0.0937420219415798	43	systole	9	B	500	systole
544.7589	0.0937420219415798	43	systole	10	B	500	systole
545.509	0.0937420219415798	43	systole	11	B	500	systole
546.259	0.0937420219415798	43	systole	12	B	500	systole
549.9697000000001	0.0937464871094562	44	systole	1	B	500	systole
550.7297000000001	0.0937464871094562	44	systole	2	B	500	systole
551.4898000000001	0.0937464871094562	44	systole	3	B	500	systole
552.2392	0.0937464871094562	44	systole	4	B	500	systole
552.9997000000001	0.0937464871094562	44	systole	5	B	500	systole
553.7601	0.0937464871094562	44	systole	6	B	500	systole
554.4440999999999	0.0937464871094562	44	systole	7	B	500	systole
555.2004	0.0937464871094562	44	systole	8	B	500	systole
555.9504999999999	0.0937464871094562	44	systole	9	B	500	systole
556.7206000000001	0.0937464871094562	44	systole	10	B	500	systole
557.4604999999999	0.0937464871094562	44	systole	11	B	500	systole
558.2004	0.0937464871094562	44	systole	12	B	500	systole
558.9504	0.0937464871094562	44	systole	13	B	500	systole
561.4446	0.0937624477082863	45	diastole	1	B	500	diastole
562.1447000000001	0.0937624477082863	45	diastole	2	B	500	diastole
562.8562999999999	0.0937624477082863	45	diastole	3	B	500	diastole
563.6847	0.0937624477082863	45	diastole	4	B	500	diastole
564.4251999999999	0.0937624477082863	45	diastole	5	B	500	diastole
565.1657	0.0937624477082863	45	diastole	6	B	500	diastole
565.9337	0.0937624477082863	45	diastole	7	B	500	diastole
566.7119	0.0937624477082863	45	diastole	8	B	500	diastole
567.4255	0.0937624477082863	45	diastole	9	B	500	diastole
568.1554000000001	0.0937624477082863	45	diastole	10	B	500	diastole
568.8155999999999	0.0937624477082863	45	diastole	11	B	500	diastole
569.5055	0.0937624477082863	45	diastole	12	B	500	diastole
570.1756	0.0937624477082863	45	diastole	13	B	500	diastole
570.8458	0.0937624477082863	45	diastole	14	B	500	diastole
572.4878000000001	0.085003587504616	46	systole	1	B	500	diastole
573.1877	0.085003587504616	46	systole	2	B	500	diastole
573.8875	0.085003587504616	46	systole	3	B	500	diastole
574.5975000000001	0.085003587504616	46	systole	4	B	500	diastole
575.3448000000001	0.085003587504616	46	systole	5	B	500	diastole
576.0965000000001	0.085003587504616	46	systole	6	B	500	diastole
576.7565999999999	0.085003587504616	46	systole	7	B	500	diastole
577.4167	0.085003587504616	46	systole	8	B	500	diastole
578.0078000000001	0.085003587504616	46	systole	9	B	500	diastole
578.5977	0.085003587504616	46	systole	10	B	500	diastole
579.1712	0.085003587504616	46	systole	11	B	500	diastole
579.7312999999999	0.085003587504616	46	systole	12	B	500	diastole
580.2878000000001	0.085003587504616	46	systole	13	B	500	diastole
580.8678	0.085003587504616	46	systole	14	B	500	diastole
581.4314999999999	0.085003587504616	46	systole	15	B	500	diastole
582.0141000000001	0.085003587504616	46	systole	16	B	500	diastole
584.5443	0.0743753812275827	47	diastole	1	B	500	diastole
585.1627000000001	0.0743753812275827	47	diastole	2	B	500	diastole
585.7727	0.0743753812275827	47	diastole	3	B	500	diastole
586.4607999999998	0.0743753812275827	47	diastole	4	B	500	diastole
587.2089000000001	0.0743753812275827	47	diastole	5	B	500	diastole
587.9488000000001	0.0743753812275827	47	diastole	6	B	500	diastole
588.8303000000001	0.0743753812275827	47	diastole	7	B	500	diastole
589.6641	0.0743753812275827	47	diastole	8	B	500	diastole
590.3953000000001	0.0743753812275827	47	diastole	9	B	500	diastole
591.0853999999999	0.0743753812275827	47	diastole	10	B	500	diastole
591.7988	0.0743753812275827	47	diastole	11	B	500	diastole
592.4792000000002	0.0743753812275827	47	diastole	12	B	500	diastole
593.1596	0.0743753812275827	47	diastole	13	B	500	diastole
593.8852000000002	0.0743753812275827	47	diastole	14	B	500	diastole
596.4855000000002	0.0879688060376793	48	systole	1	B	500	systole
597.2728000000002	0.0879688060376793	48	systole	2	B	500	systole
598.0147999999999	0.0879688060376793	48	systole	3	B	500	systole
598.7447999999999	0.0879688060376793	48	systole	4	B	500	systole
599.3847999999998	0.0879688060376793	48	systole	5	B	500	systole
600.0749999999998	0.0879688060376793	48	systole	6	B	500	systole
600.7653	0.0879688060376793	48	systole	7	B	500	systole
601.4902999999999	0.0879688060376793	48	systole	8	B	500	systole
602.2601	0.0879688060376793	48	systole	9	B	500	systole
602.9809	0.0879688060376793	48	systole	10	B	500	systole
603.6849000000002	0.0879688060376793	48	systole	11	B	500	systole
604.3788	0.0879688060376793	48	systole	12	B	500	systole
605.0788000000002	0.0879688060376793	48	systole	13	B	500	systole
605.7988	0.0879688060376793	48	systole	14	B	500	systole
606.5030999999999	0.0879688060376793	48	systole	15	B	500	systole
609.2617	0.0843930514238309	49	diastole	1	B	500	systole
609.9216000000001	0.0843930514238309	49	diastole	2	B	500	systole
610.5713999999998	0.0843930514238309	49	diastole	3	B	500	systole
611.2213999999999	0.0843930514238309	49	diastole	4	B	500	systole
611.8715000000002	0.0843930514238309	49	diastole	5	B	500	systole
612.5214999999998	0.0843930514238309	49	diastole	6	B	500	systole
613.2177000000001	0.0843930514238309	49	diastole	7	B	500	systole
613.9578999999999	0.0843930514238309	49	diastole	8	B	500	systole
614.6763000000001	0.0843930514238309	49	diastole	9	B	500	systole
615.4411	0.0843930514238309	49	diastole	10	B	500	systole
616.2530000000002	0.0843930514238309	49	diastole	11	B	500	systole
617.0232000000001	0.0843930514238309	49	diastole	12	B	500	systole
617.7932999999998	0.0843930514238309	49	diastole	13	B	500	systole
620.4277000000002	0.0925123251217883	50	systole	1	B	500	diastole
621.1277	0.0925123251217883	50	systole	2	B	500	diastole
621.8276999999998	0.0925123251217883	50	systole	3	B	500	diastole
622.5520000000001	0.0925123251217883	50	systole	4	B	500	diastole
623.3118	0.0925123251217883	50	systole	5	B	500	diastole
624.0717	0.0925123251217883	50	systole	6	B	500	diastole
624.8316	0.0925123251217883	50	systole	7	B	500	diastole
625.7532000000001	0.0925123251217883	50	systole	8	B	500	diastole
626.6632	0.0925123251217883	50	systole	9	B	500	diastole
627.5331999999999	0.0925123251217883	50	systole	10	B	500	diastole
628.3964000000001	0.0925123251217883	50	systole	11	B	500	diastole
629.1963999999998	0.0925123251217883	50	systole	12	B	500	diastole
631.0513000000001	0.1025027498253621	51	systole	1	B	500	systole
631.8013999999998	0.1025027498253621	51	systole	2	B	500	systole
632.5513999999998	0.1025027498253621	51	systole	3	B	500	systole
633.2222999999999	0.1025027498253621	51	systole	4	B	500	systole
633.9431	0.1025027498253621	51	systole	5	B	500	systole
634.6930000000002	0.1025027498253621	51	systole	6	B	500	systole
635.4429	0.1025027498253621	51	systole	7	B	500	systole
636.1696999999999	0.1025027498253621	51	systole	8	B	500	systole
636.9092999999998	0.1025027498253621	51	systole	9	B	500	systole
637.7195999999999	0.1025027498253621	51	systole	10	B	500	systole
638.4794000000002	0.1025027498253621	51	systole	11	B	500	systole
639.2597000000001	0.1025027498253621	51	systole	12	B	500	systole
640.0192999999999	0.1025027498253621	51	systole	13	B	500	systole
641.9809	0.0949576499697286	52	diastole	1	B	500	diastole
642.7905000000001	0.0949576499697286	52	diastole	2	B	500	diastole
643.6678000000002	0.0949576499697286	52	diastole	3	B	500	diastole
644.4825000000001	0.0949576499697286	52	diastole	4	B	500	diastole
645.2723999999998	0.0949576499697286	52	diastole	5	B	500	diastole
646.0223999999998	0.0949576499697286	52	diastole	6	B	500	diastole
646.7456000000002	0.0949576499697286	52	diastole	7	B	500	diastole
647.4857999999999	0.0949576499697286	52	diastole	8	B	500	diastole
648.3108000000002	0.0949576499697286	52	diastole	9	B	500	diastole
649.1511	0.0949576499697286	52	diastole	10	B	500	diastole
649.9911000000002	0.0949576499697286	52	diastole	11	B	500	diastole
650.7440999999999	0.0949576499697286	52	diastole	12	B	500	diastole
651.5140999999999	0.0949576499697286	52	diastole	13	B	500	diastole
653.9092999999998	0.0993680500250775	53	diastole	1	B	500	diastole
654.5893999999998	0.0993680500250775	53	diastole	2	B	500	diastole
655.2696000000001	0.0993680500250775	53	diastole	3	B	500	diastole
655.9497000000001	0.0993680500250775	53	diastole	4	B	500	diastole
656.6280000000002	0.0993680500250775	53	diastole	5	B	500	diastole
657.3978999999999	0.0993680500250775	53	diastole	6	B	500	diastole
658.1314000000002	0.0993680500250775	53	diastole	7	B	500	diastole
658.8815	0.0993680500250775	53	diastole	8	B	500	diastole
659.6048000000001	0.0993680500250775	53	diastole	9	B	500	diastole
660.3447999999999	0.0993680500250775	53	diastole	10	B	500	diastole
661.0848000000001	0.0993680500250775	53	diastole	11	B	500	diastole
661.4112	0.0993680500250775	53	diastole	12	B	500	diastole
661.7712000000001	0.0993680500250775	53	diastole	13	B	500	diastole
662.4612000000002	0.0993680500250775	53	diastole	14	B	500	diastole
665.0178000000001	0.0818713321932591	54	diastole	1	B	500	systole
665.6678000000002	0.0818713321932591	54	diastole	2	B	500	systole
666.3678	0.0818713321932591	54	diastole	3	B	500	systole
667.0158999999999	0.0818713321932591	54	diastole	4	B	500	systole
667.6556999999998	0.0818713321932591	54	diastole	5	B	500	systole
668.3656999999998	0.0818713321932591	54	diastole	6	B	500	systole
669.0956000000001	0.0818713321932591	54	diastole	7	B	500	systole
669.8555999999999	0.0818713321932591	54	diastole	8	B	500	systole
670.5654	0.0818713321932591	54	diastole	9	B	500	systole
671.2905000000001	0.0818713321932591	54	diastole	10	B	500	systole
671.9508999999998	0.0818713321932591	54	diastole	11	B	500	systole
672.6986000000002	0.0818713321932591	54	diastole	12	B	500	systole
673.5736000000002	0.0818713321932591	54	diastole	13	B	500	systole
676.5592000000001	0.0925289562437683	55	systole	1	B	500	systole
677.3188	0.0925289562437683	55	systole	2	B	500	systole
678.1421	0.0925289562437683	55	systole	3	B	500	systole
678.9099999999999	0.0925289562437683	55	systole	4	B	500	systole
679.6599000000001	0.0925289562437683	55	systole	5	B	500	systole
680.3519000000001	0.0925289562437683	55	systole	6	B	500	systole
681.2022999999999	0.0925289562437683	55	systole	7	B	500	systole
682.0526	0.0925289562437683	55	systole	8	B	500	systole
682.8906000000002	0.0925289562437683	55	systole	9	B	500	systole
683.7107000000001	0.0925289562437683	55	systole	10	B	500	systole
684.4207000000001	0.0925289562437683	55	systole	11	B	500	systole
685.1307000000002	0.0925289562437683	55	systole	12	B	500	systole
687.9128000000001	0.096239662147127	56	diastole	1	B	500	systole
688.7228	0.096239662147127	56	diastole	2	B	500	systole
689.5327000000002	0.096239662147127	56	diastole	3	B	500	systole
690.2143000000001	0.096239662147127	56	diastole	4	B	500	systole
690.9045000000001	0.096239662147127	56	diastole	5	B	500	systole
691.5945999999999	0.096239662147127	56	diastole	6	B	500	systole
692.2730000000001	0.096239662147127	56	diastole	7	B	500	systole
693.0432000000001	0.096239662147127	56	diastole	8	B	500	systole
693.7298000000001	0.096239662147127	56	diastole	9	B	500	systole
694.4495000000002	0.096239662147127	56	diastole	10	B	500	systole
695.1244000000002	0.096239662147127	56	diastole	11	B	500	systole
695.8445000000002	0.096239662147127	56	diastole	12	B	500	systole
696.5646000000002	0.096239662147127	56	diastole	13	B	500	systole
699.0046000000002	0.090003482036991	57	systole	1	B	500	systole
699.7246	0.090003482036991	57	systole	2	B	500	systole
700.4659999999999	0.090003482036991	57	systole	3	B	500	systole
701.1844000000001	0.090003482036991	57	systole	4	B	500	systole
701.8852000000002	0.090003482036991	57	systole	5	B	500	systole
702.5868	0.090003482036991	57	systole	6	B	500	systole
703.2885000000001	0.090003482036991	57	systole	7	B	500	systole
704.0419000000002	0.090003482036991	57	systole	8	B	500	systole
704.8018999999999	0.090003482036991	57	systole	9	B	500	systole
705.5219000000002	0.090003482036991	57	systole	10	B	500	systole
706.2217999999998	0.090003482036991	57	systole	11	B	500	systole
706.8917999999999	0.090003482036991	57	systole	12	B	500	systole
707.6219000000001	0.090003482036991	57	systole	13	B	500	systole
709.6527000000001	0.0892838011786807	58	systole	1	B	500	diastole
710.2851999999998	0.0892838011786807	58	systole	2	B	500	diastole
710.9351999999999	0.0892838011786807	58	systole	3	B	500	diastole
711.5852	0.0892838011786807	58	systole	4	B	500	diastole
712.2352000000001	0.0892838011786807	58	systole	5	B	500	diastole
712.9753000000001	0.0892838011786807	58	systole	6	B	500	diastole
713.7152000000001	0.0892838011786807	58	systole	7	B	500	diastole
714.4686000000002	0.0892838011786807	58	systole	8	B	500	diastole
715.2185	0.0892838011786807	58	systole	9	B	500	diastole
715.9683	0.0892838011786807	58	systole	10	B	500	diastole
716.7082	0.0892838011786807	58	systole	11	B	500	diastole
717.3984	0.0892838011786807	58	systole	12	B	500	diastole
718.0884999999998	0.0892838011786807	58	systole	13	B	500	diastole
718.8357999999998	0.0892838011786807	58	systole	14	B	500	diastole
721.7862	0.0862519999500364	59	diastole	1	B	500	diastole
722.0507000000002	0.0862519999500364	59	diastole	2	B	500	diastole
722.2682	0.0862519999500364	59	diastole	3	B	500	diastole
722.4882000000002	0.0862519999500364	59	diastole	4	B	500	diastole
722.8879999999999	0.0862519999500364	59	diastole	5	B	500	diastole
723.5129000000002	0.0862519999500364	59	diastole	6	B	500	diastole
724.1628999999998	0.0862519999500364	59	diastole	7	B	500	diastole
724.8128999999999	0.0862519999500364	59	diastole	8	B	500	diastole
725.5129000000002	0.0862519999500364	59	diastole	9	B	500	diastole
726.1862999999998	0.0862519999500364	59	diastole	10	B	500	diastole
726.8762000000002	0.0862519999500364	59	diastole	11	B	500	diastole
727.6010999999999	0.0862519999500364	59	diastole	12	B	500	diastole
728.2910999999999	0.0862519999500364	59	diastole	13	B	500	diastole
729.0659	0.0862519999500364	59	diastole	14	B	500	diastole
729.8262	0.0862519999500364	59	diastole	15	B	500	diastole
732.8314	0.0875334941374603	60	diastole	1	B	500	diastole
733.4431	0.0875334941374603	60	diastole	2	B	500	diastole
734.0630000000001	0.0875334941374603	60	diastole	3	B	500	diastole
734.6613000000002	0.0875334941374603	60	diastole	4	B	500	diastole
735.2728000000002	0.0875334941374603	60	diastole	5	B	500	diastole
735.9248000000002	0.0875334941374603	60	diastole	6	B	500	diastole
736.5704999999998	0.0875334941374603	60	diastole	7	B	500	diastole
737.2202000000002	0.0875334941374603	60	diastole	8	B	500	diastole
737.9205999999999	0.0875334941374603	60	diastole	9	B	500	diastole
738.672	0.0875334941374603	60	diastole	10	B	500	diastole
739.3922000000002	0.0875334941374603	60	diastole	11	B	500	diastole
740.0626000000002	0.0875334941374603	60	diastole	12	B	500	diastole
740.8517000000002	0.0875334941374603	60	diastole	13	B	500	diastole
741.6298999999999	0.0875334941374603	60	diastole	14	B	500	diastole
743.9313999999999	0.090506939595798	61	diastole	1	B	500	diastole
744.5899	0.090506939595798	61	diastole	2	B	500	diastole
745.2858999999999	0.090506939595798	61	diastole	3	B	500	diastole
745.9521	0.090506939595798	61	diastole	4	B	500	diastole
746.7138	0.090506939595798	61	diastole	5	B	500	diastole
747.4519	0.090506939595798	61	diastole	6	B	500	diastole
748.1641	0.090506939595798	61	diastole	7	B	500	diastole
748.8942000000002	0.090506939595798	61	diastole	8	B	500	diastole
749.6243	0.090506939595798	61	diastole	9	B	500	diastole
750.3737000000001	0.090506939595798	61	diastole	10	B	500	diastole
751.1017999999999	0.090506939595798	61	diastole	11	B	500	diastole
751.8222000000001	0.090506939595798	61	diastole	12	B	500	diastole
752.5949999999998	0.090506939595798	61	diastole	13	B	500	diastole
753.3150999999998	0.090506939595798	61	diastole	14	B	500	diastole
756.3755999999998	0.0936925749992951	62	diastole	1	B	500	diastole
757.0756000000001	0.0936925749992951	62	diastole	2	B	500	diastole
757.7755000000002	0.0936925749992951	62	diastole	3	B	500	diastole
758.5009	0.0936925749992951	62	diastole	4	B	500	diastole
759.2510000000002	0.0936925749992951	62	diastole	5	B	500	diastole
760.0756000000001	0.0936925749992951	62	diastole	6	B	500	diastole
760.8339000000001	0.0936925749992951	62	diastole	7	B	500	diastole
761.5839000000001	0.0936925749992951	62	diastole	8	B	500	diastole
762.3339000000001	0.0936925749992951	62	diastole	9	B	500	diastole
763.0837999999999	0.0936925749992951	62	diastole	10	B	500	diastole
763.7858000000001	0.0936925749992951	62	diastole	11	B	500	diastole
764.5257000000001	0.0936925749992951	62	diastole	12	B	500	diastole
765.1958	0.0936925749992951	62	diastole	13	B	500	diastole
767.5846999999999	0.0906312833831179	63	systole	1	B	500	diastole
768.2748999999999	0.0906312833831179	63	systole	2	B	500	diastole
768.5790000000002	0.0906312833831179	63	systole	3	B	500	diastole
768.9357	0.0906312833831179	63	systole	4	B	500	diastole
769.6840000000002	0.0906312833831179	63	systole	5	B	500	diastole
770.4574000000002	0.0906312833831179	63	systole	6	B	500	diastole
771.1572999999999	0.0906312833831179	63	systole	7	B	500	diastole
771.8274000000001	0.0906312833831179	63	systole	8	B	500	diastole
772.4974000000002	0.0906312833831179	63	systole	9	B	500	diastole
773.1799000000001	0.0906312833831179	63	systole	10	B	500	diastole
773.8798000000002	0.0906312833831179	63	systole	11	B	500	diastole
774.5799000000002	0.0906312833831179	63	systole	12	B	500	diastole
775.2597999999998	0.0906312833831179	63	systole	13	B	500	diastole
775.9114	0.0906312833831179	63	systole	14	B	500	diastole
776.5598	0.0906312833831179	63	systole	15	B	500	diastole
778.6578	0.0843744518933817	64	systole	1	B	500	diastole
779.3227000000002	0.0843744518933817	64	systole	2	B	500	diastole
780.0320999999999	0.0843744518933817	64	systole	3	B	500	diastole
780.7118	0.0843744518933817	64	systole	4	B	500	diastole
781.3769000000002	0.0843744518933817	64	systole	5	B	500	diastole
782.0473000000002	0.0843744518933817	64	systole	6	B	500	diastole
782.6974	0.0843744518933817	64	systole	7	B	500	diastole
783.3375000000001	0.0843744518933817	64	systole	8	B	500	diastole
784.0529000000001	0.0843744518933817	64	systole	9	B	500	diastole
784.7728999999999	0.0843744518933817	64	systole	10	B	500	diastole
785.4929000000002	0.0843744518933817	64	systole	11	B	500	diastole
786.2456999999999	0.0843744518933817	64	systole	12	B	500	diastole
786.9757	0.0843744518933817	64	systole	13	B	500	diastole
787.5587999999998	0.0843744518933817	64	systole	14	B	500	diastole
789.7026999999998	0.083743068826152	65	diastole	1	B	500	systole
790.3431	0.083743068826152	65	diastole	2	B	500	systole
790.9832999999999	0.083743068826152	65	diastole	3	B	500	systole
791.5616	0.083743068826152	65	diastole	4	B	500	systole
792.2215999999999	0.083743068826152	65	diastole	5	B	500	systole
792.8512000000001	0.083743068826152	65	diastole	6	B	500	systole
793.4811	0.083743068826152	65	diastole	7	B	500	systole
794.1912000000002	0.083743068826152	65	diastole	8	B	500	systole
794.9481000000001	0.083743068826152	65	diastole	9	B	500	systole
795.6347999999998	0.083743068826152	65	diastole	10	B	500	systole
796.2847000000002	0.083743068826152	65	diastole	11	B	500	systole
796.9346	0.083743068826152	65	diastole	12	B	500	systole
797.5844999999999	0.083743068826152	65	diastole	13	B	500	systole
798.2246	0.083743068826152	65	diastole	14	B	500	systole
798.8647000000001	0.083743068826152	65	diastole	15	B	500	systole
800.8879999999999	0.0862413261202164	66	systole	1	B	500	systole
801.5779000000002	0.0862413261202164	66	systole	2	B	500	systole
802.2179999999998	0.0862413261202164	66	systole	3	B	500	systole
802.8775	0.0862413261202164	66	systole	4	B	500	systole
803.5369999999998	0.0862413261202164	66	systole	5	B	500	systole
804.1570999999999	0.0862413261202164	66	systole	6	B	500	systole
804.7772	0.0862413261202164	66	systole	7	B	500	systole
805.3973000000001	0.0862413261202164	66	systole	8	B	500	systole
806.0023999999999	0.0862413261202164	66	systole	9	B	500	systole
806.6423	0.0862413261202164	66	systole	10	B	500	systole
807.2664	0.0862413261202164	66	systole	11	B	500	systole
807.8805000000002	0.0862413261202164	66	systole	12	B	500	systole
808.5205000000001	0.0862413261202164	66	systole	13	B	500	systole
809.2303999999999	0.0862413261202164	66	systole	14	B	500	systole
809.9403000000002	0.0862413261202164	66	systole	15	B	500	systole
810.7204000000002	0.0862413261202164	66	systole	16	B	500	systole
813.4207999999999	0.0856037178891711	67	diastole	1	B	500	systole
814.1406999999999	0.0856037178891711	67	diastole	2	B	500	systole
814.9258	0.0856037178891711	67	diastole	3	B	500	systole
815.6857	0.0856037178891711	67	diastole	4	B	500	systole
816.4609	0.0856037178891711	67	diastole	5	B	500	systole
817.1509000000001	0.0856037178891711	67	diastole	6	B	500	systole
817.8409000000001	0.0856037178891711	67	diastole	7	B	500	systole
818.5079999999998	0.0856037178891711	67	diastole	8	B	500	systole
819.2883000000002	0.0856037178891711	67	diastole	9	B	500	systole
820.0686999999998	0.0856037178891711	67	diastole	10	B	500	systole
820.7982000000002	0.0856037178891711	67	diastole	11	B	500	systole
821.4535999999998	0.0856037178891711	67	diastole	12	B	500	systole
823.5749999999998	0.0868598923843819	68	systole	1	B	500	systole
824.259	0.0868598923843819	68	systole	2	B	500	systole
824.9038999999998	0.0868598923843819	68	systole	3	B	500	systole
825.5542	0.0868598923843819	68	systole	4	B	500	systole
826.2440000000001	0.0868598923843819	68	systole	5	B	500	systole
826.9472999999998	0.0868598923843819	68	systole	6	B	500	systole
827.6554999999998	0.0868598923843819	68	systole	7	B	500	systole
828.3199	0.0868598923843819	68	systole	8	B	500	systole
828.9900000000002	0.0868598923843819	68	systole	9	B	500	systole
829.6747	0.0868598923843819	68	systole	10	B	500	systole
830.4103	0.0868598923843819	68	systole	11	B	500	systole
831.1401999999998	0.0868598923843819	68	systole	12	B	500	systole
831.8402000000001	0.0868598923843819	68	systole	13	B	500	systole
832.5517	0.0868598923843819	68	systole	14	B	500	systole
834.9528	0.0874911677092313	69	systole	1	B	500	diastole
835.7203	0.0874911677092313	69	systole	2	B	500	diastole
836.4703	0.0874911677092313	69	systole	3	B	500	diastole
837.2203	0.0874911677092313	69	systole	4	B	500	diastole
837.9243000000001	0.0874911677092313	69	systole	5	B	500	diastole
838.5769	0.0874911677092313	69	systole	6	B	500	diastole
839.2469999999998	0.0874911677092313	69	systole	7	B	500	diastole
839.8368999999998	0.0874911677092313	69	systole	8	B	500	diastole
840.1073999999999	0.0874911677092313	69	systole	9	B	500	diastole
840.6152999999999	0.0874911677092313	69	systole	10	B	500	diastole
841.2579000000001	0.0874911677092313	69	systole	11	B	500	diastole
841.9879000000001	0.0874911677092313	69	systole	12	B	500	diastole
842.7177999999999	0.0874911677092313	69	systole	13	B	500	diastole
843.4477000000002	0.0874911677092313	69	systole	14	B	500	diastole
844.1939000000002	0.0874911677092313	69	systole	15	B	500	diastole
847.4261000000001	0.0899887029372621	70	diastole	1	B	500	diastole
848.1008999999999	0.0899887029372621	70	diastole	2	B	500	diastole
848.8007000000002	0.0899887029372621	70	diastole	3	B	500	diastole
849.0749000000001	0.0899887029372621	70	diastole	4	B	500	diastole
849.6574999999998	0.0899887029372621	70	diastole	5	B	500	diastole
850.3175000000001	0.0899887029372621	70	diastole	6	B	500	diastole
850.9477999999999	0.0899887029372621	70	diastole	7	B	500	diastole
851.6377000000002	0.0899887029372621	70	diastole	8	B	500	diastole
852.3276000000001	0.0899887029372621	70	diastole	9	B	500	diastole
853.1579000000002	0.0899887029372621	70	diastole	10	B	500	diastole
853.9196000000002	0.0899887029372621	70	diastole	11	B	500	diastole
854.7208999999998	0.0899887029372621	70	diastole	12	B	500	diastole
855.4609999999998	0.0899887029372621	70	diastole	13	B	500	diastole
856.2658999999999	0.0899887029372621	70	diastole	14	B	500	diastole
858.2746000000002	0.0912688765965867	71	diastole	1	B	500	systole
859.1030999999998	0.0912688765965867	71	diastole	2	B	500	systole
859.8795	0.0912688765965867	71	diastole	3	B	500	systole
860.6194	0.0912688765965867	71	diastole	4	B	500	systole
861.3128999999999	0.0912688765965867	71	diastole	5	B	500	systole
862.0227	0.0912688765965867	71	diastole	6	B	500	systole
862.6711	0.0912688765965867	71	diastole	7	B	500	systole
863.3611999999998	0.0912688765965867	71	diastole	8	B	500	systole
864.0464000000002	0.0912688765965867	71	diastole	9	B	500	systole
864.7564000000002	0.0912688765965867	71	diastole	10	B	500	systole
865.6563999999998	0.0912688765965867	71	diastole	11	B	500	systole
866.5563999999999	0.0912688765965867	71	diastole	12	B	500	systole
867.3663000000001	0.0912688765965867	71	diastole	13	B	500	systole
869.5313000000001	0.093751275591785	72	diastole	1	B	500	diastole
870.3013999999998	0.093751275591785	72	diastole	2	B	500	diastole
871.0715	0.093751275591785	72	diastole	3	B	500	diastole
871.7979	0.093751275591785	72	diastole	4	B	500	diastole
872.5077999999999	0.093751275591785	72	diastole	5	B	500	diastole
873.2278999999999	0.093751275591785	72	diastole	6	B	500	diastole
873.9479999999999	0.093751275591785	72	diastole	7	B	500	diastole
874.6082000000001	0.093751275591785	72	diastole	8	B	500	diastole
875.2435	0.093751275591785	72	diastole	9	B	500	diastole
875.9036000000001	0.093751275591785	72	diastole	10	B	500	diastole
876.6435000000001	0.093751275591785	72	diastole	11	B	500	diastole
877.4131000000002	0.093751275591785	72	diastole	12	B	500	diastole
878.1799999999998	0.093751275591785	72	diastole	13	B	500	diastole
881.5634	0.0931225270032882	73	systole	1	B	500	systole
882.2629999999999	0.0931225270032882	73	systole	2	B	500	systole
882.9630999999999	0.0931225270032882	73	systole	3	B	500	systole
883.6217999999999	0.0931225270032882	73	systole	4	B	500	systole
884.3047999999999	0.0931225270032882	73	systole	5	B	500	systole
884.9830000000002	0.0931225270032882	73	systole	6	B	500	systole
885.6871000000001	0.0931225270032882	73	systole	7	B	500	systole
886.3613	0.0931225270032882	73	systole	8	B	500	systole
887.0603999999998	0.0931225270032882	73	systole	9	B	500	systole
887.8103999999998	0.0931225270032882	73	systole	10	B	500	systole
888.5709999999999	0.0931225270032882	73	systole	11	B	500	systole
889.3312000000001	0.0931225270032882	73	systole	12	B	500	systole
890.0842000000002	0.0931225270032882	73	systole	13	B	500	systole
890.8141	0.0931225270032882	73	systole	14	B	500	systole
893.8596000000002	0.0937505134788807	74	systole	1	B	500	systole
894.5394000000001	0.0937505134788807	74	systole	2	B	500	systole
895.2193000000002	0.0937505134788807	74	systole	3	B	500	systole
895.8757999999998	0.0937505134788807	74	systole	4	B	500	systole
896.5743000000002	0.0937505134788807	74	systole	5	B	500	systole
897.2844	0.0937505134788807	74	systole	6	B	500	systole
898.0145000000002	0.0937505134788807	74	systole	7	B	500	systole
898.7442000000001	0.0937505134788807	74	systole	8	B	500	systole
899.4742000000001	0.0937505134788807	74	systole	9	B	500	systole
900.1729	0.0937505134788807	74	systole	10	B	500	systole
900.9531000000002	0.0937505134788807	74	systole	11	B	500	systole
901.6545999999998	0.0937505134788807	74	systole	12	B	500	systole
902.3344000000002	0.0937505134788807	74	systole	13	B	500	systole
903.0140999999999	0.0937505134788807	74	systole	14	B	500	systole
905.1369	0.0887621941219549	75	systole	1	B	500	diastole
905.8069999999998	0.0887621941219549	75	systole	2	B	500	diastole
906.5012000000002	0.0887621941219549	75	systole	3	B	500	diastole
907.2211000000002	0.0887621941219549	75	systole	4	B	500	diastole
907.9411	0.0887621941219549	75	systole	5	B	500	diastole
908.7811000000002	0.0887621941219549	75	systole	6	B	500	diastole
909.6210999999998	0.0887621941219549	75	systole	7	B	500	diastole
910.3469	0.0887621941219549	75	systole	8	B	500	diastole
911.0495000000001	0.0887621941219549	75	systole	9	B	500	diastole
911.7462999999998	0.0887621941219549	75	systole	10	B	500	diastole
912.4479000000001	0.0887621941219549	75	systole	11	B	500	diastole
913.1262999999999	0.0887621941219549	75	systole	12	B	500	diastole
913.7779999999998	0.0887621941219549	75	systole	13	B	500	diastole
914.4295999999999	0.0887621941219549	75	systole	14	B	500	diastole
917.2964000000002	0.0848930783395189	76	diastole	1	B	500	diastole
917.9764	0.0848930783395189	76	diastole	2	B	500	diastole
918.6563999999998	0.0848930783395189	76	diastole	3	B	500	diastole
919.3364000000001	0.0848930783395189	76	diastole	4	B	500	diastole
919.9791	0.0848930783395189	76	diastole	5	B	500	diastole
920.6288	0.0848930783395189	76	diastole	6	B	500	diastole
921.2692000000002	0.0848930783395189	76	diastole	7	B	500	diastole
921.9128000000001	0.0848930783395189	76	diastole	8	B	500	diastole
922.5909999999999	0.0848930783395189	76	diastole	9	B	500	diastole
923.2710000000002	0.0848930783395189	76	diastole	10	B	500	diastole
923.9508999999998	0.0848930783395189	76	diastole	11	B	500	diastole
924.5758000000001	0.0848930783395189	76	diastole	12	B	500	diastole
925.2242000000001	0.0848930783395189	76	diastole	13	B	500	diastole
925.8942999999999	0.0848930783395189	76	diastole	14	B	500	diastole
928.1853999999998	0.082599091285374	77	systole	1	B	500	systole
928.8654999999999	0.082599091285374	77	systole	2	B	500	systole
929.5662000000002	0.082599091285374	77	systole	3	B	500	systole
930.2361999999998	0.082599091285374	77	systole	4	B	500	systole
930.8562000000002	0.082599091285374	77	systole	5	B	500	systole
931.4762999999998	0.082599091285374	77	systole	6	B	500	systole
932.1105000000002	0.082599091285374	77	systole	7	B	500	systole
932.8204999999998	0.082599091285374	77	systole	8	B	500	systole
933.5304000000001	0.082599091285374	77	systole	9	B	500	systole
934.1961999999999	0.082599091285374	77	systole	10	B	500	systole
934.8561	0.082599091285374	77	systole	11	B	500	systole
935.5003000000002	0.082599091285374	77	systole	12	B	500	systole
936.1502999999998	0.082599091285374	77	systole	13	B	500	systole
936.8002999999999	0.082599091285374	77	systole	14	B	500	systole
939.3081000000002	0.0850106165162287	78	diastole	1	B	500	diastole
939.9783000000002	0.0850106165162287	78	diastole	2	B	500	diastole
940.6484	0.0850106165162287	78	diastole	3	B	500	diastole
941.2899000000002	0.0850106165162287	78	diastole	4	B	500	diastole
941.9398999999999	0.0850106165162287	78	diastole	5	B	500	diastole
942.5551	0.0850106165162287	78	diastole	6	B	500	diastole
943.2984000000001	0.0850106165162287	78	diastole	7	B	500	diastole
944.0284000000001	0.0850106165162287	78	diastole	8	B	500	diastole
944.7948999999999	0.0850106165162287	78	diastole	9	B	500	diastole
945.5131999999999	0.0850106165162287	78	diastole	10	B	500	diastole
946.2296999999999	0.0850106165162287	78	diastole	11	B	500	diastole
946.9299999999998	0.0850106165162287	78	diastole	12	B	500	diastole
947.6300999999999	0.0850106165162287	78	diastole	13	B	500	diastole
948.3301000000001	0.0850106165162287	78	diastole	14	B	500	diastole
950.3510999999999	0.0875082125421613	79	diastole	1	B	500	systole
951.0311000000002	0.0875082125421613	79	diastole	2	B	500	systole
951.6943000000001	0.0875082125421613	79	diastole	3	B	500	systole
952.3762000000002	0.0875082125421613	79	diastole	4	B	500	systole
953.0662000000002	0.0875082125421613	79	diastole	5	B	500	systole
953.7561999999998	0.0875082125421613	79	diastole	6	B	500	systole
954.3978999999999	0.0875082125421613	79	diastole	7	B	500	systole
955.1378	0.0875082125421613	79	diastole	8	B	500	systole
955.8777	0.0875082125421613	79	diastole	9	B	500	systole
956.5761000000002	0.0875082125421613	79	diastole	10	B	500	systole
957.2944000000002	0.0875082125421613	79	diastole	11	B	500	systole
957.9643999999998	0.0875082125421613	79	diastole	12	B	500	systole
958.6345000000001	0.0875082125421613	79	diastole	13	B	500	systole
959.3045000000002	0.0875082125421613	79	diastole	14	B	500	systole
961.0909999999999	0.0868818105664104	80	systole	1	B	500	systole
961.7910000000002	0.0868818105664104	80	systole	2	B	500	systole
962.531	0.0868818105664104	80	systole	3	B	500	systole
963.2310000000002	0.0868818105664104	80	systole	4	B	500	systole
963.9508999999998	0.0868818105664104	80	systole	5	B	500	systole
964.6210000000001	0.0868818105664104	80	systole	6	B	500	systole
965.2910999999999	0.0868818105664104	80	systole	7	B	500	systole
965.9394000000002	0.0868818105664104	80	systole	8	B	500	systole
966.5994999999998	0.0868818105664104	80	systole	9	B	500	systole
967.2595999999999	0.0868818105664104	80	systole	10	B	500	systole
967.9279999999999	0.0868818105664104	80	systole	11	B	500	systole
968.578	0.0868818105664104	80	systole	12	B	500	systole
969.2581	0.0868818105664104	80	systole	13	B	500	systole
969.9439000000002	0.0868818105664104	80	systole	14	B	500	systole
970.6354999999999	0.0868818105664104	80	systole	15	B	500	systole
973.1979999999999	0.0849951999844051	81	diastole	1	B	500	diastole
973.9875000000002	0.0849951999844051	81	diastole	2	B	500	diastole
974.7040999999999	0.0849951999844051	81	diastole	3	B	500	diastole
975.3841000000002	0.0849951999844051	81	diastole	4	B	500	diastole
976.0641	0.0849951999844051	81	diastole	5	B	500	diastole
976.7329	0.0849951999844051	81	diastole	6	B	500	diastole
977.4029	0.0849951999844051	81	diastole	7	B	500	diastole
978.1104	0.0849951999844051	81	diastole	8	B	500	diastole
978.7721000000001	0.0849951999844051	81	diastole	9	B	500	diastole
979.4337999999998	0.0849951999844051	81	diastole	10	B	500	diastole
980.2617	0.0849951999844051	81	diastole	11	B	500	diastole
981.0897	0.0849951999844051	81	diastole	12	B	500	diastole
981.8297000000002	0.0849951999844051	81	diastole	13	B	500	diastole
984.1896000000002	0.0906500136479735	82	diastole	1	B	500	systole
984.9562000000001	0.0906500136479735	82	diastole	2	B	500	systole
985.7062000000001	0.0906500136479735	82	diastole	3	B	500	systole
986.4160999999999	0.0906500136479735	82	diastole	4	B	500	systole
987.1062000000002	0.0906500136479735	82	diastole	5	B	500	systole
987.7995000000001	0.0906500136479735	82	diastole	6	B	500	systole
988.4441000000002	0.0906500136479735	82	diastole	7	B	500	systole
989.0976999999998	0.0906500136479735	82	diastole	8	B	500	systole
989.761	0.0906500136479735	82	diastole	9	B	500	systole
990.4144999999999	0.0906500136479735	82	diastole	10	B	500	systole
991.076	0.0906500136479735	82	diastole	11	B	500	systole
991.7658999999999	0.0906500136479735	82	diastole	12	B	500	systole
992.4658	0.0906500136479735	82	diastole	13	B	500	systole
993.1954999999998	0.0906500136479735	82	diastole	14	B	500	systole
995.2624999999998	0.0868725811014883	83	diastole	1	B	500	systole
995.9708	0.0868725811014883	83	diastole	2	B	500	systole
996.6709000000001	0.0868725811014883	83	diastole	3	B	500	systole
997.3611000000001	0.0868725811014883	83	diastole	4	B	500	systole
998.0511999999999	0.0868725811014883	83	diastole	5	B	500	systole
998.7611999999999	0.0868725811014883	83	diastole	6	B	500	systole
999.4513000000002	0.0868725811014883	83	diastole	7	B	500	systole
1000.1713	0.0868725811014883	83	diastole	8	B	500	systole
1000.9611	0.0868725811014883	83	diastole	9	B	500	systole
1001.7012	0.0868725811014883	83	diastole	10	B	500	systole
1002.4413	0.0868725811014883	83	diastole	11	B	500	systole
1003.2494999999999	0.0868725811014883	83	diastole	12	B	500	systole
1004.0761000000002	0.0868725811014883	83	diastole	13	B	500	systole
1004.8049999999998	0.0868725811014883	83	diastole	14	B	500	systole
1007.5716000000002	0.0900195014255587	84	diastole	1	B	500	diastole
1008.2159000000001	0.0900195014255587	84	diastole	2	B	500	diastole
1008.8854999999999	0.0900195014255587	84	diastole	3	B	500	diastole
1009.5385999999999	0.0900195014255587	84	diastole	4	B	500	diastole
1010.2087000000001	0.0900195014255587	84	diastole	5	B	500	diastole
1010.8103000000001	0.0900195014255587	84	diastole	6	B	500	diastole
1011.4704000000002	0.0900195014255587	84	diastole	7	B	500	diastole
1012.1199000000001	0.0900195014255587	84	diastole	8	B	500	diastole
1012.7694999999999	0.0900195014255587	84	diastole	9	B	500	diastole
1013.5014999999999	0.0900195014255587	84	diastole	10	B	500	diastole
1014.2334000000001	0.0900195014255587	84	diastole	11	B	500	diastole
1014.9652000000001	0.0900195014255587	84	diastole	12	B	500	diastole
1015.6392000000001	0.0900195014255587	84	diastole	13	B	500	diastole
1018.5311999999999	0.0856549939489923	85	diastole	1	B	500	systole
1019.2512000000002	0.0856549939489923	85	diastole	2	B	500	systole
1019.9312	0.0856549939489923	85	diastole	3	B	500	systole
1020.5864999999999	0.0856549939489923	85	diastole	4	B	500	systole
1021.2763	0.0856549939489923	85	diastole	5	B	500	systole
1021.9762000000001	0.0856549939489923	85	diastole	6	B	500	systole
1022.7426999999998	0.0856549939489923	85	diastole	7	B	500	systole
1023.4926999999998	0.0856549939489923	85	diastole	8	B	500	systole
1024.1909999999998	0.0856549939489923	85	diastole	9	B	500	systole
1024.8811	0.0856549939489923	85	diastole	10	B	500	systole
1025.5992999999999	0.0856549939489923	85	diastole	11	B	500	systole
1026.2892000000002	0.0856549939489923	85	diastole	12	B	500	systole
1026.969	0.0856549939489923	85	diastole	13	B	500	systole
1028.6091999999999	0.0875008368166163	86	systole	1	B	500	diastole
1029.2693	0.0875008368166163	86	systole	2	B	500	diastole
1029.9293000000002	0.0875008368166163	86	systole	3	B	500	diastole
1030.6191	0.0875008368166163	86	systole	4	B	500	diastole
1031.3191000000002	0.0875008368166163	86	systole	5	B	500	diastole
1032.0191	0.0875008368166163	86	systole	6	B	500	diastole
1032.6834	0.0875008368166163	86	systole	7	B	500	diastole
1033.3818	0.0875008368166163	86	systole	8	B	500	diastole
1034.0917	0.0875008368166163	86	systole	9	B	500	diastole
1034.7561	0.0875008368166163	86	systole	10	B	500	diastole
1035.5875999999998	0.0875008368166163	86	systole	11	B	500	diastole
1036.3847999999998	0.0875008368166163	86	systole	12	B	500	diastole
1037.1646999999998	0.0875008368166163	86	systole	13	B	500	diastole
1037.8707	0.0875008368166163	86	systole	14	B	500	diastole
1038.4932	0.0875008368166163	86	systole	15	B	500	diastole
1040.6363000000001	0.0817714124277699	87	diastole	1	B	500	diastole
1041.268	0.0817714124277699	87	diastole	2	B	500	diastole
1041.8913000000002	0.0817714124277699	87	diastole	3	B	500	diastole
1042.5313	0.0817714124277699	87	diastole	4	B	500	diastole
1043.2014	0.0817714124277699	87	diastole	5	B	500	diastole
1043.8881999999999	0.0817714124277699	87	diastole	6	B	500	diastole
1044.5882000000001	0.0817714124277699	87	diastole	7	B	500	diastole
1045.2583	0.0817714124277699	87	diastole	8	B	500	diastole
1045.9184	0.0817714124277699	87	diastole	9	B	500	diastole
1046.5785	0.0817714124277699	87	diastole	10	B	500	diastole
1047.2749	0.0817714124277699	87	diastole	11	B	500	diastole
1047.9751	0.0817714124277699	87	diastole	12	B	500	diastole
1048.7132000000001	0.0817714124277699	87	diastole	13	B	500	diastole
1049.4596999999999	0.0817714124277699	87	diastole	14	B	500	diastole
1051.4452	0.0868805457721464	88	systole	1	B	500	systole
1052.2183	0.0868805457721464	88	systole	2	B	500	systole
1052.9858	0.0868805457721464	88	systole	3	B	500	systole
1053.6759000000002	0.0868805457721464	88	systole	4	B	500	systole
1054.3661000000002	0.0868805457721464	88	systole	5	B	500	systole
1055.0486999999998	0.0868805457721464	88	systole	6	B	500	systole
1055.7487	0.0868805457721464	88	systole	7	B	500	systole
1056.4487	0.0868805457721464	88	systole	8	B	500	systole
1057.1903000000002	0.0868805457721464	88	systole	9	B	500	systole
1057.8883999999998	0.0868805457721464	88	systole	10	B	500	systole
1058.5983	0.0868805457721464	88	systole	11	B	500	systole
1059.3184	0.0868805457721464	88	systole	12	B	500	systole
1060.0385	0.0868805457721464	88	systole	13	B	500	systole
1060.8384999999998	0.0868805457721464	88	systole	14	B	500	systole
1063.886	0.091874575096881	89	systole	1	B	500	systole
1064.5861	0.091874575096881	89	systole	2	B	500	systole
1065.3996000000002	0.091874575096881	89	systole	3	B	500	systole
1066.1275999999998	0.091874575096881	89	systole	4	B	500	systole
1066.8219	0.091874575096881	89	systole	5	B	500	systole
1067.5221000000001	0.091874575096881	89	systole	6	B	500	systole
1068.4119999999998	0.091874575096881	89	systole	7	B	500	systole
1069.212	0.091874575096881	89	systole	8	B	500	systole
1070.0237000000002	0.091874575096881	89	systole	9	B	500	systole
1070.7235999999998	0.091874575096881	89	systole	10	B	500	systole
1071.4036999999998	0.091874575096881	89	systole	11	B	500	systole
1072.0727000000002	0.091874575096881	89	systole	12	B	500	systole
1072.7178	0.091874575096881	89	systole	13	B	500	systole
1075.0641	0.09187324900995	90	systole	1	B	500	systole
1075.7941	0.09187324900995	90	systole	2	B	500	systole
1076.5085	0.09187324900995	90	systole	3	B	500	systole
1077.3085	0.09187324900995	90	systole	4	B	500	systole
1078.0785	0.09187324900995	90	systole	5	B	500	systole
1078.8368	0.09187324900995	90	systole	6	B	500	systole
1079.5365000000002	0.09187324900995	90	systole	7	B	500	systole
1080.2065000000002	0.09187324900995	90	systole	8	B	500	systole
1080.8967000000002	0.09187324900995	90	systole	9	B	500	systole
1081.5264000000002	0.09187324900995	90	systole	10	B	500	systole
1082.1687000000002	0.09187324900995	90	systole	11	B	500	systole
1082.7815999999998	0.09187324900995	90	systole	12	B	500	systole
1083.3764999999999	0.09187324900995	90	systole	13	B	500	systole
1084.0065	0.09187324900995	90	systole	14	B	500	systole
1084.6448	0.09187324900995	90	systole	15	B	500	systole
1087.2824999999998	0.0805219878384377	91	systole	1	B	500	diastole
1087.9625	0.0805219878384377	91	systole	2	B	500	diastole
1088.6127000000001	0.0805219878384377	91	systole	3	B	500	diastole
1089.2426	0.0805219878384377	91	systole	4	B	500	diastole
1089.8327	0.0805219878384377	91	systole	5	B	500	diastole
1090.4227999999998	0.0805219878384377	91	systole	6	B	500	diastole
1091.0524	0.0805219878384377	91	systole	7	B	500	diastole
1091.6239	0.0805219878384377	91	systole	8	B	500	diastole
1092.2139000000002	0.0805219878384377	91	systole	9	B	500	diastole
1092.813	0.0805219878384377	91	systole	10	B	500	diastole
1093.4275000000002	0.0805219878384377	91	systole	11	B	500	diastole
1094.0774999999999	0.0805219878384377	91	systole	12	B	500	diastole
1094.7276000000002	0.0805219878384377	91	systole	13	B	500	diastole
1095.3775999999998	0.0805219878384377	91	systole	14	B	500	diastole
1096.0276	0.0805219878384377	91	systole	15	B	500	diastole
1098.2624999999998	0.080631899589207	92	systole	1	B	500	systole
1099.0423999999998	0.080631899589207	92	systole	2	B	500	systole
1099.7657	0.080631899589207	92	systole	3	B	500	systole
1100.4657000000002	0.080631899589207	92	systole	4	B	500	systole
1101.1657	0.080631899589207	92	systole	5	B	500	systole
1101.9232000000002	0.080631899589207	92	systole	6	B	500	systole
1102.8437	0.080631899589207	92	systole	7	B	500	systole
1103.7232	0.080631899589207	92	systole	8	B	500	systole
1104.5906	0.080631899589207	92	systole	9	B	500	systole
1105.4406	0.080631899589207	92	systole	10	B	500	systole
1106.1822000000002	0.080631899589207	92	systole	11	B	500	systole
1106.9122000000002	0.080631899589207	92	systole	12	B	500	systole
1107.6623	0.080631899589207	92	systole	13	B	500	systole
1109.6296000000002	0.0937632562418002	93	systole	1	B	500	diastole
1110.38	0.0937632562418002	93	systole	2	B	500	diastole
1111.1304	0.0937632562418002	93	systole	3	B	500	diastole
1111.8802999999998	0.0937632562418002	93	systole	4	B	500	diastole
1112.6102	0.0937632562418002	93	systole	5	B	500	diastole
1113.3402	0.0937632562418002	93	systole	6	B	500	diastole
1114.1163000000001	0.0937632562418002	93	systole	7	B	500	diastole
1114.8863999999999	0.0937632562418002	93	systole	8	B	500	diastole
1115.6916999999999	0.0937632562418002	93	systole	9	B	500	diastole
1116.5276	0.0937632562418002	93	systole	10	B	500	diastole
1117.2876999999999	0.0937632562418002	93	systole	11	B	500	diastole
1118.0875999999998	0.0937632562418002	93	systole	12	B	500	diastole
1118.9476	0.0937632562418002	93	systole	13	B	500	diastole
1122.1821	0.0999907357909251	94	diastole	1	B	500	diastole
1123.092	0.0999907357909251	94	diastole	2	B	500	diastole
1123.8521999999998	0.0999907357909251	94	diastole	3	B	500	diastole
1124.6123000000002	0.0999907357909251	94	diastole	4	B	500	diastole
1125.3273	0.0999907357909251	94	diastole	5	B	500	diastole
1126.0774000000001	0.0999907357909251	94	diastole	6	B	500	diastole
1126.7874000000002	0.0999907357909251	94	diastole	7	B	500	diastole
1127.5874	0.0999907357909251	94	diastole	8	B	500	diastole
1128.3505	0.0999907357909251	94	diastole	9	B	500	diastole
1128.7773000000002	0.0999907357909251	94	diastole	10	B	500	diastole
1129.0752000000002	0.0999907357909251	94	diastole	11	B	500	diastole
1129.2077	0.0999907357909251	94	diastole	12	B	500	diastole
1129.8285999999998	0.0999907357909251	94	diastole	13	B	500	diastole
1130.6237999999998	0.0999907357909251	94	diastole	14	B	500	diastole
1131.3898	0.0999907357909251	94	diastole	15	B	500	diastole
1134.3609000000001	0.0931234423478599	95	diastole	1	B	500	diastole
1135.1408999999999	0.0931234423478599	95	diastole	2	B	500	diastole
1135.8809	0.0931234423478599	95	diastole	3	B	500	diastole
1136.6209	0.0931234423478599	95	diastole	4	B	500	diastole
1137.3609000000001	0.0931234423478599	95	diastole	5	B	500	diastole
1138.1807	0.0931234423478599	95	diastole	6	B	500	diastole
1138.9506999999999	0.0931234423478599	95	diastole	7	B	500	diastole
1139.7208	0.0931234423478599	95	diastole	8	B	500	diastole
1140.4427999999998	0.0931234423478599	95	diastole	9	B	500	diastole
1141.1480000000001	0.0931234423478599	95	diastole	10	B	500	diastole
1141.8775999999998	0.0931234423478599	95	diastole	11	B	500	diastole
1142.6174	0.0931234423478599	95	diastole	12	B	500	diastole
1143.3375	0.0931234423478599	95	diastole	13	B	500	diastole
1145.2424	0.0812598609481938	96	systole	1	B	500	diastole
1145.9724	0.0812598609481938	96	systole	2	B	500	diastole
1146.7024000000001	0.0812598609481938	96	systole	3	B	500	diastole
1147.3923	0.0812598609481938	96	systole	4	B	500	diastole
1147.9947000000002	0.0812598609481938	96	systole	5	B	500	diastole
1148.6545999999998	0.0812598609481938	96	systole	6	B	500	diastole
1149.2574	0.0812598609481938	96	systole	7	B	500	diastole
1149.8928999999998	0.0812598609481938	96	systole	8	B	500	diastole
1150.5228000000002	0.0812598609481938	96	systole	9	B	500	diastole
1151.1272	0.0812598609481938	96	systole	10	B	500	diastole
1151.7629000000002	0.0812598609481938	96	systole	11	B	500	diastole
1152.4086000000002	0.0812598609481938	96	systole	12	B	500	diastole
1152.9975	0.0812598609481938	96	systole	13	B	500	diastole
1153.5973	0.0812598609481938	96	systole	14	B	500	diastole
1154.2013000000002	0.0812598609481938	96	systole	15	B	500	diastole
1156.4771999999998	0.0750076374970376	97	diastole	1	B	500	systole
1157.0871000000002	0.0750076374970376	97	diastole	2	B	500	systole
1157.6506	0.0750076374970376	97	diastole	3	B	500	systole
1158.2204000000002	0.0750076374970376	97	diastole	4	B	500	systole
1158.7903999999999	0.0750076374970376	97	diastole	5	B	500	systole
1159.3806	0.0750076374970376	97	diastole	6	B	500	systole
1159.9706	0.0750076374970376	97	diastole	7	B	500	systole
1160.5403000000001	0.0750076374970376	97	diastole	8	B	500	systole
1161.1205	0.0750076374970376	97	diastole	9	B	500	systole
1161.7304	0.0750076374970376	97	diastole	10	B	500	systole
1162.3306000000002	0.0750076374970376	97	diastole	11	B	500	systole
1162.9705	0.0750076374970376	97	diastole	12	B	500	systole
1163.6104	0.0750076374970376	97	diastole	13	B	500	systole
1164.2187	0.0750076374970376	97	diastole	14	B	500	systole
1164.8186999999998	0.0750076374970376	97	diastole	15	B	500	systole
1165.4551999999999	0.0750076374970376	97	diastole	16	B	500	systole
1167.9376000000002	0.0762565810873638	98	diastole	1	B	500	systole
1168.5376	0.0762565810873638	98	diastole	2	B	500	systole
1169.1377000000002	0.0762565810873638	98	diastole	3	B	500	systole
1169.4209	0.0762565810873638	98	diastole	4	B	500	systole
1170.0709000000002	0.0762565810873638	98	diastole	5	B	500	systole
1170.6174	0.0762565810873638	98	diastole	6	B	500	systole
1171.1689999999999	0.0762565810873638	98	diastole	7	B	500	systole
1171.7292000000002	0.0762565810873638	98	diastole	8	B	500	systole
1172.3002000000001	0.0762565810873638	98	diastole	9	B	500	systole
1172.8798000000002	0.0762565810873638	98	diastole	10	B	500	systole
1173.4594000000002	0.0762565810873638	98	diastole	11	B	500	systole
1174.0697	0.0762565810873638	98	diastole	12	B	500	systole
1174.6614	0.0762565810873638	98	diastole	13	B	500	systole
1175.2714999999998	0.0762565810873638	98	diastole	14	B	500	systole
1175.9488000000001	0.0762565810873638	98	diastole	15	B	500	systole
1176.6106	0.0762565810873638	98	diastole	16	B	500	systole
1177.2656000000002	0.0762565810873638	98	diastole	17	B	500	systole
1178.5989	0.0787531562091317	99	systole	1	B	500	systole
1179.1889999999999	0.0787531562091317	99	systole	2	B	500	systole
1179.7890000000002	0.0787531562091317	99	systole	3	B	500	systole
1180.3890000000001	0.0787531562091317	99	systole	4	B	500	systole
1181.0192000000002	0.0787531562091317	99	systole	5	B	500	systole
1181.6493	0.0787531562091317	99	systole	6	B	500	systole
1182.3087999999998	0.0787531562091317	99	systole	7	B	500	systole
1182.9687	0.0787531562091317	99	systole	8	B	500	systole
1183.6888	0.0787531562091317	99	systole	9	B	500	systole
1184.4188	0.0787531562091317	99	systole	10	B	500	systole
1185.1866	0.0787531562091317	99	systole	11	B	500	systole
1185.9558000000002	0.0787531562091317	99	systole	12	B	500	systole
1186.6958	0.0787531562091317	99	systole	13	B	500	systole
1187.4585000000002	0.0787531562091317	99	systole	14	B	500	systole
1188.1841	0.0787531562091317	99	systole	15	B	500	systole
1190.9541	0.0900143657927401	100	systole	1	B	500	systole
1191.6243	0.0900143657927401	100	systole	2	B	500	systole
1192.2584000000002	0.0900143657927401	100	systole	3	B	500	systole
1192.8768	0.0900143657927401	100	systole	4	B	500	systole
1193.5190000000002	0.0900143657927401	100	systole	5	B	500	systole
1194.1788000000001	0.0900143657927401	100	systole	6	B	500	systole
1194.8854000000001	0.0900143657927401	100	systole	7	B	500	systole
1195.6151	0.0900143657927401	100	systole	8	B	500	systole
1196.2699000000002	0.0900143657927401	100	systole	9	B	500	systole
1196.9304000000002	0.0900143657927401	100	systole	10	B	500	systole
1197.62	0.0900143657927401	100	systole	11	B	500	systole
1198.31	0.0900143657927401	100	systole	12	B	500	systole
1199.0273000000002	0.0900143657927401	100	systole	13	B	500	systole
1199.7275	0.0900143657927401	100	systole	14	B	500	systole
