onset	duration	trial_num	trial_type	tone_num	tone_type	frequency	response
306.7397	0.0768769185524433	1	systole	1	A	1578.5670027440333	coherent
306.8931	0.0768769185524433	1	systole	2	B	500.0	coherent
307.0471	0.0768769185524433	1	systole	3	A	1578.5670027440333	coherent
307.3496	0.0768769185524433	1	systole	4	A	1578.5670027440333	coherent
307.503	0.0768769185524433	1	systole	5	B	500.0	coherent
307.6571	0.0768769185524433	1	systole	6	A	1578.5670027440333	coherent
308.0842	0.0768769185524433	1	systole	7	A	1578.5670027440333	coherent
308.2388	0.0768769185524433	1	systole	8	B	500.0	coherent
308.3941	0.0768769185524433	1	systole	9	A	1578.5670027440333	coherent
308.8142	0.0768769185524433	1	systole	10	A	1578.5670027440333	coherent
308.9688	0.0768769185524433	1	systole	11	B	500.0	coherent
309.1241	0.0768769185524433	1	systole	12	A	1578.5670027440333	coherent
309.609	0.0768769185524433	1	systole	13	A	1578.5670027440333	coherent
309.765	0.0768769185524433	1	systole	14	B	500.0	coherent
309.9216	0.0768769185524433	1	systole	15	A	1578.5670027440333	coherent
310.399	0.0768769185524433	1	systole	16	A	1578.5670027440333	coherent
310.555	0.0768769185524433	1	systole	17	B	500.0	coherent
310.7116	0.0768769185524433	1	systole	18	A	1578.5670027440333	coherent
311.1281	0.0768769185524433	1	systole	19	A	1578.5670027440333	coherent
311.2866	0.0768769185524433	1	systole	20	B	500.0	coherent
311.4457	0.0768769185524433	1	systole	21	A	1578.5670027440333	coherent
311.8638	0.0768769185524433	1	systole	22	A	1578.5670027440333	coherent
312.0347	0.0768769185524433	1	systole	23	B	500.0	coherent
312.2063	0.0768769185524433	1	systole	24	A	1578.5670027440333	coherent
312.6721	0.0768769185524433	1	systole	25	A	1578.5670027440333	coherent
312.848	0.0768769185524433	1	systole	26	B	500.0	coherent
313.0246	0.0768769185524433	1	systole	27	A	1578.5670027440333	coherent
313.7804	0.0768769185524433	1	systole	28	A	1578.5670027440333	coherent
313.9613	0.0768769185524433	1	systole	29	B	500.0	coherent
314.1429	0.0768769185524433	1	systole	30	A	1578.5670027440333	coherent
314.8704	0.0768769185524433	1	systole	31	A	1578.5670027440333	coherent
315.0513	0.0768769185524433	1	systole	32	B	500.0	coherent
315.2329	0.0768769185524433	1	systole	33	A	1578.5670027440333	coherent
315.86	0.0768769185524433	1	systole	34	A	1578.5670027440333	coherent
316.0572	0.0768769185524433	1	systole	35	B	500.0	coherent
316.255	0.0768769185524433	1	systole	36	A	1578.5670027440333	coherent
330.851	0.1312509393319487	2	systole	1	A	2180.0224995339627	coherent
331.1198	0.1312509393319487	2	systole	2	B	500.0	coherent
331.3885	0.1312509393319487	2	systole	3	A	2180.0224995339627	coherent
331.5847	0.1312509393319487	2	systole	4	A	2180.0224995339627	coherent
331.8323	0.1312509393319487	2	systole	5	B	500.0	coherent
332.0797	0.1312509393319487	2	systole	6	A	2180.0224995339627	coherent
332.3964	0.1312509393319487	2	systole	7	A	2180.0224995339627	coherent
332.6439	0.1312509393319487	2	systole	8	B	500.0	coherent
332.8914	0.1312509393319487	2	systole	9	A	2180.0224995339627	coherent
333.1423	0.1312509393319487	2	systole	10	A	2180.0224995339627	coherent
333.3673	0.1312509393319487	2	systole	11	B	500.0	coherent
333.5923	0.1312509393319487	2	systole	12	A	2180.0224995339627	coherent
334.6348	0.1312509393319487	2	systole	13	A	2180.0224995339627	coherent
334.8824	0.1312509393319487	2	systole	14	B	500.0	coherent
335.1298	0.1312509393319487	2	systole	15	A	2180.0224995339627	coherent
336.0449	0.1312509393319487	2	systole	16	A	2180.0224995339627	coherent
336.2925	0.1312509393319487	2	systole	17	B	500.0	coherent
336.5399	0.1312509393319487	2	systole	18	A	2180.0224995339627	coherent
336.9257	0.1312509393319487	2	systole	19	A	2180.0224995339627	coherent
337.1707	0.1312509393319487	2	systole	20	B	500.0	coherent
337.4156	0.1312509393319487	2	systole	21	A	2180.0224995339627	coherent
337.8156	0.1312509393319487	2	systole	22	A	2180.0224995339627	coherent
338.0607	0.1312509393319487	2	systole	23	B	500.0	coherent
338.3056	0.1312509393319487	2	systole	24	A	2180.0224995339627	coherent
338.7055	0.1312509393319487	2	systole	25	A	2180.0224995339627	coherent
338.9506	0.1312509393319487	2	systole	26	B	500.0	coherent
339.1955	0.1312509393319487	2	systole	27	A	2180.0224995339627	coherent
339.8912	0.1312509393319487	2	systole	28	A	2180.0224995339627	coherent
340.1487	0.1312509393319487	2	systole	29	B	500.0	coherent
340.4062	0.1312509393319487	2	systole	30	A	2180.0224995339627	coherent
343.8384	0.1262535321293398	3	systole	1	A	1987.9452401467304	streaming
344.0846	0.1262535321293398	3	systole	2	B	500.0	streaming
344.3309	0.1262535321293398	3	systole	3	A	1987.9452401467304	streaming
344.7482	0.1262535321293398	3	systole	4	A	1987.9452401467304	streaming
344.9944	0.1262535321293398	3	systole	5	B	500.0	streaming
345.2407	0.1262535321293398	3	systole	6	A	1987.9452401467304	streaming
345.8473	0.1262535321293398	3	systole	7	A	1987.9452401467304	streaming
346.0961	0.1262535321293398	3	systole	8	B	500.0	streaming
346.3448	0.1262535321293398	3	systole	9	A	1987.9452401467304	streaming
346.8674	0.1262535321293398	3	systole	10	A	1987.9452401467304	streaming
347.1161	0.1262535321293398	3	systole	11	B	500.0	streaming
347.3649	0.1262535321293398	3	systole	12	A	1987.9452401467304	streaming
347.8874	0.1262535321293398	3	systole	13	A	1987.9452401467304	streaming
348.1362	0.1262535321293398	3	systole	14	B	500.0	streaming
348.3849	0.1262535321293398	3	systole	15	A	1987.9452401467304	streaming
348.7638	0.1262535321293398	3	systole	16	A	1987.9452401467304	streaming
349.0087	0.1262535321293398	3	systole	17	B	500.0	streaming
349.2538	0.1262535321293398	3	systole	18	A	1987.9452401467304	streaming
349.7045	0.1262535321293398	3	systole	19	A	1987.9452401467304	streaming
349.947	0.1262535321293398	3	systole	20	B	500.0	streaming
350.1896	0.1262535321293398	3	systole	21	A	1987.9452401467304	streaming
350.6983	0.1262535321293398	3	systole	22	A	1987.9452401467304	streaming
350.9445	0.1262535321293398	3	systole	23	B	500.0	streaming
351.1908	0.1262535321293398	3	systole	24	A	1987.9452401467304	streaming
351.5792	0.1262535321293398	3	systole	25	A	1987.9452401467304	streaming
351.8229	0.1262535321293398	3	systole	26	B	500.0	streaming
352.0667	0.1262535321293398	3	systole	27	A	1987.9452401467304	streaming
352.4693	0.1262535321293398	3	systole	28	A	1987.9452401467304	streaming
352.713	0.1262535321293398	3	systole	29	B	500.0	streaming
352.9568	0.1262535321293398	3	systole	30	A	1987.9452401467304	streaming
353.4785	0.1262535321293398	3	systole	31	A	1987.9452401467304	streaming
353.7247	0.1262535321293398	3	systole	32	B	500.0	streaming
353.971	0.1262535321293398	3	systole	33	A	1987.9452401467304	streaming
357.9648	0.1193779881577938	4	diastole	1	A	1578.5670027440333	coherent
358.2058	0.1193779881577938	4	diastole	2	B	500.0	coherent
358.4473	0.1193779881577938	4	diastole	3	A	1578.5670027440333	coherent
358.8331	0.1193779881577938	4	diastole	4	A	1578.5670027440333	coherent
359.074	0.1193779881577938	4	diastole	5	B	500.0	coherent
359.3156	0.1193779881577938	4	diastole	6	A	1578.5670027440333	coherent
359.7014	0.1193779881577938	4	diastole	7	A	1578.5670027440333	coherent
359.9423	0.1193779881577938	4	diastole	8	B	500.0	coherent
360.1839	0.1193779881577938	4	diastole	9	A	1578.5670027440333	coherent
360.5697	0.1193779881577938	4	diastole	10	A	1578.5670027440333	coherent
360.8106	0.1193779881577938	4	diastole	11	B	500.0	coherent
361.0522	0.1193779881577938	4	diastole	12	A	1578.5670027440333	coherent
361.3584	0.1193779881577938	4	diastole	13	A	1578.5670027440333	coherent
361.5956	0.1193779881577938	4	diastole	14	B	500.0	coherent
361.8335	0.1193779881577938	4	diastole	15	A	1578.5670027440333	coherent
362.1859	0.1193779881577938	4	diastole	16	A	1578.5670027440333	coherent
362.4156	0.1193779881577938	4	diastole	17	B	500.0	coherent
362.6459	0.1193779881577938	4	diastole	18	A	1578.5670027440333	coherent
363.0559	0.1193779881577938	4	diastole	19	A	1578.5670027440333	coherent
363.2855	0.1193779881577938	4	diastole	20	B	500.0	coherent
363.5159	0.1193779881577938	4	diastole	21	A	1578.5670027440333	coherent
364.0581	0.1193779881577938	4	diastole	22	A	1578.5670027440333	coherent
364.2953	0.1193779881577938	4	diastole	23	B	500.0	coherent
364.5331	0.1193779881577938	4	diastole	24	A	1578.5670027440333	coherent
364.8459	0.1193779881577938	4	diastole	25	A	1578.5670027440333	coherent
365.0756	0.1193779881577938	4	diastole	26	B	500.0	coherent
365.3059	0.1193779881577938	4	diastole	27	A	1578.5670027440333	coherent
365.636	0.1193779881577938	4	diastole	28	A	1578.5670027440333	coherent
365.8569	0.1193779881577938	4	diastole	29	B	500.0	coherent
366.0784	0.1193779881577938	4	diastole	30	A	1578.5670027440333	coherent
366.6586	0.1193779881577938	4	diastole	31	A	1578.5670027440333	coherent
366.887	0.1193779881577938	4	diastole	32	B	500.0	coherent
367.1161	0.1193779881577938	4	diastole	33	A	1578.5670027440333	coherent
371.1325	0.1168535061879083	5	systole	1	A	1143.0495706741503	streaming
371.3661	0.1168535061879083	5	systole	2	B	500.0	streaming
371.5999	0.1168535061879083	5	systole	3	A	1143.0495706741503	streaming
371.9325	0.1168535061879083	5	systole	4	A	1143.0495706741503	streaming
372.1661	0.1168535061879083	5	systole	5	B	500.0	streaming
372.3999	0.1168535061879083	5	systole	6	A	1143.0495706741503	streaming
372.7126	0.1168535061879083	5	systole	7	A	1143.0495706741503	streaming
372.9461	0.1168535061879083	5	systole	8	B	500.0	streaming
373.18	0.1168535061879083	5	systole	9	A	1143.0495706741503	streaming
373.4926	0.1168535061879083	5	systole	10	A	1143.0495706741503	streaming
373.7262	0.1168535061879083	5	systole	11	B	500.0	streaming
373.96	0.1168535061879083	5	systole	12	A	1143.0495706741503	streaming
374.1819	0.1168535061879083	5	systole	13	A	1143.0495706741503	streaming
374.388	0.1168535061879083	5	systole	14	B	500.0	streaming
374.5943	0.1168535061879083	5	systole	15	A	1143.0495706741503	streaming
374.9535	0.1168535061879083	5	systole	16	A	1143.0495706741503	streaming
375.1547	0.1168535061879083	5	systole	17	B	500.0	streaming
375.3561	0.1168535061879083	5	systole	18	A	1143.0495706741503	streaming
375.7435	0.1168535061879083	5	systole	19	A	1143.0495706741503	streaming
375.9447	0.1168535061879083	5	systole	20	B	500.0	streaming
376.146	0.1168535061879083	5	systole	21	A	1143.0495706741503	streaming
376.5335	0.1168535061879083	5	systole	22	A	1143.0495706741503	streaming
376.7346	0.1168535061879083	5	systole	23	B	500.0	streaming
376.936	0.1168535061879083	5	systole	24	A	1143.0495706741503	streaming
377.437	0.1168535061879083	5	systole	25	A	1143.0495706741503	streaming
377.6418	0.1168535061879083	5	systole	26	B	500.0	streaming
377.847	0.1168535061879083	5	systole	27	A	1143.0495706741503	streaming
378.3898	0.1168535061879083	5	systole	28	A	1143.0495706741503	streaming
378.6009	0.1168535061879083	5	systole	29	B	500.0	streaming
378.8123	0.1168535061879083	5	systole	30	A	1143.0495706741503	streaming
379.3298	0.1168535061879083	5	systole	31	A	1143.0495706741503	streaming
379.5409	0.1168535061879083	5	systole	32	B	500.0	streaming
379.7523	0.1168535061879083	5	systole	33	A	1143.0495706741503	streaming
380.2698	0.1168535061879083	5	systole	34	A	1143.0495706741503	streaming
380.4809	0.1168535061879083	5	systole	35	B	500.0	streaming
380.6923	0.1168535061879083	5	systole	36	A	1143.0495706741503	streaming
383.8318	0.1106088680680841	6	systole	1	A	866.753070272264	coherent
384.0537	0.1106088680680841	6	systole	2	B	500.0	coherent
384.2767	0.1106088680680841	6	systole	3	A	866.753070272264	coherent
384.7218	0.1106088680680841	6	systole	4	A	866.753070272264	coherent
384.9438	0.1106088680680841	6	systole	5	B	500.0	coherent
385.1667	0.1106088680680841	6	systole	6	A	866.753070272264	coherent
385.6565	0.1106088680680841	6	systole	7	A	866.753070272264	coherent
385.8798	0.1106088680680841	6	systole	8	B	500.0	coherent
386.104	0.1106088680680841	6	systole	9	A	866.753070272264	coherent
386.5668	0.1106088680680841	6	systole	10	A	866.753070272264	coherent
386.79	0.1106088680680841	6	systole	11	B	500.0	coherent
387.0143	0.1106088680680841	6	systole	12	A	866.753070272264	coherent
387.3672	0.1106088680680841	6	systole	13	A	866.753070272264	coherent
387.5879	0.1106088680680841	6	systole	14	B	500.0	coherent
387.8096	0.1106088680680841	6	systole	15	A	866.753070272264	coherent
388.1767	0.1106088680680841	6	systole	16	A	866.753070272264	coherent
388.3974	0.1106088680680841	6	systole	17	B	500.0	coherent
388.6192	0.1106088680680841	6	systole	18	A	866.753070272264	coherent
389.1233	0.1106088680680841	6	systole	19	A	866.753070272264	coherent
389.3404	0.1106088680680841	6	systole	20	B	500.0	coherent
389.5584	0.1106088680680841	6	systole	21	A	866.753070272264	coherent
390.0837	0.1106088680680841	6	systole	22	A	866.753070272264	coherent
390.3007	0.1106088680680841	6	systole	23	B	500.0	coherent
390.5187	0.1106088680680841	6	systole	24	A	866.753070272264	coherent
390.8908	0.1106088680680841	6	systole	25	A	866.753070272264	coherent
391.1016	0.1106088680680841	6	systole	26	B	500.0	coherent
391.3133	0.1106088680680841	6	systole	27	A	866.753070272264	coherent
391.7208	0.1106088680680841	6	systole	28	A	866.753070272264	coherent
391.9316	0.1106088680680841	6	systole	29	B	500.0	coherent
392.1434	0.1106088680680841	6	systole	30	A	866.753070272264	coherent
392.6837	0.1106088680680841	6	systole	31	A	866.753070272264	coherent
392.9007	0.1106088680680841	6	systole	32	B	500.0	coherent
393.1187	0.1106088680680841	6	systole	33	A	866.753070272264	coherent
396.8798	0.1131041826447472	7	diastole	1	A	2180.0224995339627	coherent
397.1135	0.1131041826447472	7	diastole	2	B	500.0	coherent
397.3472	0.1131041826447472	7	diastole	3	A	2180.0224995339627	coherent
397.8098	0.1131041826447472	7	diastole	4	A	2180.0224995339627	coherent
398.0436	0.1131041826447472	7	diastole	5	B	500.0	coherent
398.2772	0.1131041826447472	7	diastole	6	A	2180.0224995339627	coherent
398.6104	0.1131041826447472	7	diastole	7	A	2180.0224995339627	coherent
398.8355	0.1131041826447472	7	diastole	8	B	500.0	coherent
399.0605	0.1131041826447472	7	diastole	9	A	2180.0224995339627	coherent
399.5318	0.1131041826447472	7	diastole	10	A	2180.0224995339627	coherent
399.7606	0.1131041826447472	7	diastole	11	B	500.0	coherent
399.9893	0.1131041826447472	7	diastole	12	A	2180.0224995339627	coherent
400.4717	0.1131041826447472	7	diastole	13	A	2180.0224995339627	coherent
400.7005	0.1131041826447472	7	diastole	14	B	500.0	coherent
400.9292	0.1131041826447472	7	diastole	15	A	2180.0224995339627	coherent
401.3334	0.1131041826447472	7	diastole	16	A	2180.0224995339627	coherent
401.5572	0.1131041826447472	7	diastole	17	B	500.0	coherent
401.7809	0.1131041826447472	7	diastole	18	A	2180.0224995339627	coherent
402.2234	0.1131041826447472	7	diastole	19	A	2180.0224995339627	coherent
402.4473	0.1131041826447472	7	diastole	20	B	500.0	coherent
402.671	0.1131041826447472	7	diastole	21	A	2180.0224995339627	coherent
403.1575	0.1131041826447472	7	diastole	22	A	2180.0224995339627	coherent
403.3838	0.1131041826447472	7	diastole	23	B	500.0	coherent
403.61	0.1131041826447472	7	diastole	24	A	2180.0224995339627	coherent
404.0772	0.1131041826447472	7	diastole	25	A	2180.0224995339627	coherent
404.3036	0.1131041826447472	7	diastole	26	B	500.0	coherent
404.5298	0.1131041826447472	7	diastole	27	A	2180.0224995339627	coherent
404.8872	0.1131041826447472	7	diastole	28	A	2180.0224995339627	coherent
405.1136	0.1131041826447472	7	diastole	29	B	500.0	coherent
405.3398	0.1131041826447472	7	diastole	30	A	2180.0224995339627	coherent
420.1844	0.1081377150258049	8	systole	1	A	808.8220262698977	streaming
420.3987	0.1081377150258049	8	systole	2	B	500.0	streaming
420.6144	0.1081377150258049	8	systole	3	A	808.8220262698977	streaming
421.0643	0.1081377150258049	8	systole	4	A	808.8220262698977	streaming
421.2787	0.1081377150258049	8	systole	5	B	500.0	streaming
421.4943	0.1081377150258049	8	systole	6	A	808.8220262698977	streaming
421.9235	0.1081377150258049	8	systole	7	A	808.8220262698977	streaming
422.1404	0.1081377150258049	8	systole	8	B	500.0	streaming
422.3585	0.1081377150258049	8	systole	9	A	808.8220262698977	streaming
422.789	0.1081377150258049	8	systole	10	A	808.8220262698977	streaming
423.0047	0.1081377150258049	8	systole	11	B	500.0	streaming
423.2215	0.1081377150258049	8	systole	12	A	808.8220262698977	streaming
423.6792	0.1081377150258049	8	systole	13	A	808.8220262698977	streaming
423.8948	0.1081377150258049	8	systole	14	B	500.0	streaming
424.1117	0.1081377150258049	8	systole	15	A	808.8220262698977	streaming
424.5588	0.1081377150258049	8	systole	16	A	808.8220262698977	streaming
424.7744	0.1081377150258049	8	systole	17	B	500.0	streaming
424.9913	0.1081377150258049	8	systole	18	A	808.8220262698977	streaming
425.3588	0.1081377150258049	8	systole	19	A	808.8220262698977	streaming
425.5745	0.1081377150258049	8	systole	20	B	500.0	streaming
425.7914	0.1081377150258049	8	systole	21	A	808.8220262698977	streaming
426.179	0.1081377150258049	8	systole	22	A	808.8220262698977	streaming
426.3946	0.1081377150258049	8	systole	23	B	500.0	streaming
426.6115	0.1081377150258049	8	systole	24	A	808.8220262698977	streaming
427.0189	0.1081377150258049	8	systole	25	A	808.8220262698977	streaming
427.2346	0.1081377150258049	8	systole	26	B	500.0	streaming
427.4515	0.1081377150258049	8	systole	27	A	808.8220262698977	streaming
427.8991	0.1081377150258049	8	systole	28	A	808.8220262698977	streaming
428.1148	0.1081377150258049	8	systole	29	B	500.0	streaming
428.3317	0.1081377150258049	8	systole	30	A	808.8220262698977	streaming
428.7545	0.1081377150258049	8	systole	31	A	808.8220262698977	streaming
428.9689	0.1081377150258049	8	systole	32	B	500.0	streaming
429.1845	0.1081377150258049	8	systole	33	A	808.8220262698977	streaming
432.0458	0.1050013375934213	9	systole	1	A	3301.531841080714	streaming
432.2557	0.1050013375934213	9	systole	2	B	500.0	streaming
432.4658	0.1050013375934213	9	systole	3	A	3301.531841080714	streaming
432.9258	0.1050013375934213	9	systole	4	A	3301.531841080714	streaming
433.1357	0.1050013375934213	9	systole	5	B	500.0	streaming
433.3458	0.1050013375934213	9	systole	6	A	3301.531841080714	streaming
433.6665	0.1050013375934213	9	systole	7	A	3301.531841080714	streaming
433.874	0.1050013375934213	9	systole	8	B	500.0	streaming
434.0816	0.1050013375934213	9	systole	9	A	3301.531841080714	streaming
434.3765	0.1050013375934213	9	systole	10	A	3301.531841080714	streaming
434.584	0.1050013375934213	9	systole	11	B	500.0	streaming
434.7916	0.1050013375934213	9	systole	12	A	3301.531841080714	streaming
435.0865	0.1050013375934213	9	systole	13	A	3301.531841080714	streaming
435.2939	0.1050013375934213	9	systole	14	B	500.0	streaming
435.5015	0.1050013375934213	9	systole	15	A	3301.531841080714	streaming
435.7763	0.1050013375934213	9	systole	16	A	3301.531841080714	streaming
435.9836	0.1050013375934213	9	systole	17	B	500.0	streaming
436.1911	0.1050013375934213	9	systole	18	A	3301.531841080714	streaming
436.4336	0.1050013375934213	9	systole	19	A	3301.531841080714	streaming
436.6347	0.1050013375934213	9	systole	20	B	500.0	streaming
436.8361	0.1050013375934213	9	systole	21	A	3301.531841080714	streaming
437.2391	0.1050013375934213	9	systole	22	A	3301.531841080714	streaming
437.4391	0.1050013375934213	9	systole	23	B	500.0	streaming
437.6392	0.1050013375934213	9	systole	24	A	3301.531841080714	streaming
438.3693	0.1050013375934213	9	systole	25	A	3301.531841080714	streaming
438.5692	0.1050013375934213	9	systole	26	B	500.0	streaming
438.7694	0.1050013375934213	9	systole	27	A	3301.531841080714	streaming
439.332	0.1050013375934213	9	systole	28	A	3301.531841080714	streaming
439.5382	0.1050013375934213	9	systole	29	B	500.0	streaming
439.7446	0.1050013375934213	9	systole	30	A	3301.531841080714	streaming
440.1278	0.1050013375934213	9	systole	31	A	3301.531841080714	streaming
440.3302	0.1050013375934213	9	systole	32	B	500.0	streaming
440.5327	0.1050013375934213	9	systole	33	A	3301.531841080714	streaming
440.9088	0.1050013375934213	9	systole	34	A	3301.531841080714	streaming
441.1087	0.1050013375934213	9	systole	35	B	500.0	streaming
441.3087	0.1050013375934213	9	systole	36	A	3301.531841080714	streaming
445.1884	0.1012498424388468	10	systole	1	A	3378.544393000609	streaming
445.3908	0.1012498424388468	10	systole	2	B	500.0	streaming
445.5934	0.1012498424388468	10	systole	3	A	3378.544393000609	streaming
446.0384	0.1012498424388468	10	systole	4	A	3378.544393000609	streaming
446.2408	0.1012498424388468	10	systole	5	B	500.0	streaming
446.4434	0.1012498424388468	10	systole	6	A	3378.544393000609	streaming
446.8039	0.1012498424388468	10	systole	7	A	3378.544393000609	streaming
447.005	0.1012498424388468	10	systole	8	B	500.0	streaming
447.2062	0.1012498424388468	10	systole	9	A	3378.544393000609	streaming
447.5149	0.1012498424388468	10	systole	10	A	3378.544393000609	streaming
447.7136	0.1012498424388468	10	systole	11	B	500.0	streaming
447.9125	0.1012498424388468	10	systole	12	A	3378.544393000609	streaming
448.235	0.1012498424388468	10	systole	13	A	3378.544393000609	streaming
448.4337	0.1012498424388468	10	systole	14	B	500.0	streaming
448.6325	0.1012498424388468	10	systole	15	A	3378.544393000609	streaming
448.9747	0.1012498424388468	10	systole	16	A	3378.544393000609	streaming
449.1733	0.1012498424388468	10	systole	17	B	500.0	streaming
449.3721	0.1012498424388468	10	systole	18	A	3378.544393000609	streaming
449.7455	0.1012498424388468	10	systole	19	A	3378.544393000609	streaming
449.9417	0.1012498424388468	10	systole	20	B	500.0	streaming
450.1379	0.1012498424388468	10	systole	21	A	3378.544393000609	streaming
450.6855	0.1012498424388468	10	systole	22	A	3378.544393000609	streaming
450.8817	0.1012498424388468	10	systole	23	B	500.0	streaming
451.0779	0.1012498424388468	10	systole	24	A	3378.544393000609	streaming
451.5896	0.1012498424388468	10	systole	25	A	3378.544393000609	streaming
451.7896	0.1012498424388468	10	systole	26	B	500.0	streaming
451.9896	0.1012498424388468	10	systole	27	A	3378.544393000609	streaming
452.3989	0.1012498424388468	10	systole	28	A	3378.544393000609	streaming
452.5987	0.1012498424388468	10	systole	29	B	500.0	streaming
452.7987	0.1012498424388468	10	systole	30	A	3378.544393000609	streaming
453.2393	0.1012498424388468	10	systole	31	A	3378.544393000609	streaming
453.4391	0.1012498424388468	10	systole	32	B	500.0	streaming
453.6391	0.1012498424388468	10	systole	33	A	3378.544393000609	streaming
454.0797	0.1012498424388468	10	systole	34	A	3378.544393000609	streaming
454.2795	0.1012498424388468	10	systole	35	B	500.0	streaming
454.4795	0.1012498424388468	10	systole	36	A	3378.544393000609	streaming
458.1171	0.1062295060837641	11	diastole	1	A	1987.9452401467304	streaming
458.3308	0.1062295060837641	11	diastole	2	B	500.0	streaming
458.5447	0.1062295060837641	11	diastole	3	A	1987.9452401467304	streaming
458.987	0.1062295060837641	11	diastole	4	A	1987.9452401467304	streaming
459.2008	0.1062295060837641	11	diastole	5	B	500.0	streaming
459.4147	0.1062295060837641	11	diastole	6	A	1987.9452401467304	streaming
459.8597	0.1062295060837641	11	diastole	7	A	1987.9452401467304	streaming
460.0722	0.1062295060837641	11	diastole	8	B	500.0	streaming
460.2848	0.1062295060837641	11	diastole	9	A	1987.9452401467304	streaming
460.7397	0.1062295060837641	11	diastole	10	A	1987.9452401467304	streaming
460.9522	0.1062295060837641	11	diastole	11	B	500.0	streaming
461.1648	0.1062295060837641	11	diastole	12	A	1987.9452401467304	streaming
461.5595	0.1062295060837641	11	diastole	13	A	1987.9452401467304	streaming
461.7719	0.1062295060837641	11	diastole	14	B	500.0	streaming
461.9844	0.1062295060837641	11	diastole	15	A	1987.9452401467304	streaming
462.3795	0.1062295060837641	11	diastole	16	A	1987.9452401467304	streaming
462.5919	0.1062295060837641	11	diastole	17	B	500.0	streaming
462.8044	0.1062295060837641	11	diastole	18	A	1987.9452401467304	streaming
463.1995	0.1062295060837641	11	diastole	19	A	1987.9452401467304	streaming
463.412	0.1062295060837641	11	diastole	20	B	500.0	streaming
463.6244	0.1062295060837641	11	diastole	21	A	1987.9452401467304	streaming
463.9496	0.1062295060837641	11	diastole	22	A	1987.9452401467304	streaming
464.162	0.1062295060837641	11	diastole	23	B	500.0	streaming
464.3745	0.1062295060837641	11	diastole	24	A	1987.9452401467304	streaming
464.7128	0.1062295060837641	11	diastole	25	A	1987.9452401467304	streaming
464.924	0.1062295060837641	11	diastole	26	B	500.0	streaming
465.1353	0.1062295060837641	11	diastole	27	A	1987.9452401467304	streaming
465.4615	0.1062295060837641	11	diastole	28	A	1987.9452401467304	streaming
465.6689	0.1062295060837641	11	diastole	29	B	500.0	streaming
465.8765	0.1062295060837641	11	diastole	30	A	1987.9452401467304	streaming
466.2815	0.1062295060837641	11	diastole	31	A	1987.9452401467304	streaming
466.489	0.1062295060837641	11	diastole	32	B	500.0	streaming
466.6965	0.1062295060837641	11	diastole	33	A	1987.9452401467304	streaming
469.4632	0.1025003826944157	12	diastole	1	A	1143.0495706741503	coherent
469.6655	0.1025003826944157	12	diastole	2	B	500.0	coherent
469.8682	0.1025003826944157	12	diastole	3	A	1143.0495706741503	coherent
470.2803	0.1025003826944157	12	diastole	4	A	1143.0495706741503	coherent
470.4839	0.1025003826944157	12	diastole	5	B	500.0	coherent
470.6878	0.1025003826944157	12	diastole	6	A	1143.0495706741503	coherent
471.1373	0.1025003826944157	12	diastole	7	A	1143.0495706741503	coherent
471.3422	0.1025003826944157	12	diastole	8	B	500.0	coherent
471.5473	0.1025003826944157	12	diastole	9	A	1143.0495706741503	coherent
471.9974	0.1025003826944157	12	diastole	10	A	1143.0495706741503	coherent
472.2023	0.1025003826944157	12	diastole	11	B	500.0	coherent
472.4074	0.1025003826944157	12	diastole	12	A	1143.0495706741503	coherent
472.8574	0.1025003826944157	12	diastole	13	A	1143.0495706741503	coherent
473.0623	0.1025003826944157	12	diastole	14	B	500.0	coherent
473.2674	0.1025003826944157	12	diastole	15	A	1143.0495706741503	coherent
473.6276	0.1025003826944157	12	diastole	16	A	1143.0495706741503	coherent
473.8325	0.1025003826944157	12	diastole	17	B	500.0	coherent
474.0376	0.1025003826944157	12	diastole	18	A	1143.0495706741503	coherent
474.3978	0.1025003826944157	12	diastole	19	A	1143.0495706741503	coherent
474.6027	0.1025003826944157	12	diastole	20	B	500.0	coherent
474.8078	0.1025003826944157	12	diastole	21	A	1143.0495706741503	coherent
475.1875	0.1025003826944157	12	diastole	22	A	1143.0495706741503	coherent
475.3923	0.1025003826944157	12	diastole	23	B	500.0	coherent
475.5975	0.1025003826944157	12	diastole	24	A	1143.0495706741503	coherent
476.0075	0.1025003826944157	12	diastole	25	A	1143.0495706741503	coherent
476.2123	0.1025003826944157	12	diastole	26	B	500.0	coherent
476.4174	0.1025003826944157	12	diastole	27	A	1143.0495706741503	coherent
476.7706	0.1025003826944157	12	diastole	28	A	1143.0495706741503	coherent
476.9743	0.1025003826944157	12	diastole	29	B	500.0	coherent
477.1781	0.1025003826944157	12	diastole	30	A	1143.0495706741503	coherent
477.5408	0.1025003826944157	12	diastole	31	A	1143.0495706741503	coherent
477.7445	0.1025003826944157	12	diastole	32	B	500.0	coherent
477.9483	0.1025003826944157	12	diastole	33	A	1143.0495706741503	coherent
478.3678	0.1025003826944157	12	diastole	34	A	1143.0495706741503	coherent
478.5727	0.1025003826944157	12	diastole	35	B	500.0	coherent
478.7778	0.1025003826944157	12	diastole	36	A	1143.0495706741503	coherent
481.3574	0.1012474874733015	13	systole	1	A	3378.544393000609	streaming
481.5624	0.1012474874733015	13	systole	2	B	500.0	streaming
481.7674	0.1012474874733015	13	systole	3	A	3378.544393000609	streaming
482.2075	0.1012474874733015	13	systole	4	A	3378.544393000609	streaming
482.4124	0.1012474874733015	13	systole	5	B	500.0	streaming
482.6174	0.1012474874733015	13	systole	6	A	3378.544393000609	streaming
483.0469	0.1012474874733015	13	systole	7	A	3378.544393000609	streaming
483.2544	0.1012474874733015	13	systole	8	B	500.0	streaming
483.462	0.1012474874733015	13	systole	9	A	3378.544393000609	streaming
483.877	0.1012474874733015	13	systole	10	A	3378.544393000609	streaming
484.0845	0.1012474874733015	13	systole	11	B	500.0	streaming
484.2921	0.1012474874733015	13	systole	12	A	3378.544393000609	streaming
484.6619	0.1012474874733015	13	systole	13	A	3378.544393000609	streaming
484.8681	0.1012474874733015	13	systole	14	B	500.0	streaming
485.0744	0.1012474874733015	13	systole	15	A	3378.544393000609	streaming
485.4966	0.1012474874733015	13	systole	16	A	3378.544393000609	streaming
485.704	0.1012474874733015	13	systole	17	B	500.0	streaming
485.9116	0.1012474874733015	13	systole	18	A	3378.544393000609	streaming
486.3266	0.1012474874733015	13	systole	19	A	3378.544393000609	streaming
486.5341	0.1012474874733015	13	systole	20	B	500.0	streaming
486.7417	0.1012474874733015	13	systole	21	A	3378.544393000609	streaming
487.1867	0.1012474874733015	13	systole	22	A	3378.544393000609	streaming
487.3941	0.1012474874733015	13	systole	23	B	500.0	streaming
487.6017	0.1012474874733015	13	systole	24	A	3378.544393000609	streaming
488.0167	0.1012474874733015	13	systole	25	A	3378.544393000609	streaming
488.2242	0.1012474874733015	13	systole	26	B	500.0	streaming
488.4317	0.1012474874733015	13	systole	27	A	3378.544393000609	streaming
488.8467	0.1012474874733015	13	systole	28	A	3378.544393000609	streaming
489.0541	0.1012474874733015	13	systole	29	B	500.0	streaming
489.2617	0.1012474874733015	13	systole	30	A	3378.544393000609	streaming
489.6467	0.1012474874733015	13	systole	31	A	3378.544393000609	streaming
489.8541	0.1012474874733015	13	systole	32	B	500.0	streaming
490.0617	0.1012474874733015	13	systole	33	A	3378.544393000609	streaming
490.393	0.1012474874733015	13	systole	34	A	3378.544393000609	streaming
490.5966	0.1012474874733015	13	systole	35	B	500.0	streaming
490.8005	0.1012474874733015	13	systole	36	A	3378.544393000609	streaming
494.7161	0.101254500565119	14	diastole	1	A	1169.7126981694591	coherent
494.9173	0.101254500565119	14	diastole	2	B	500.0	coherent
495.1186	0.101254500565119	14	diastole	3	A	1169.7126981694591	coherent
495.5602	0.101254500565119	14	diastole	4	A	1169.7126981694591	coherent
495.7639	0.101254500565119	14	diastole	5	B	500.0	coherent
495.9678	0.101254500565119	14	diastole	6	A	1169.7126981694591	coherent
496.3902	0.101254500565119	14	diastole	7	A	1169.7126981694591	coherent
496.5939	0.101254500565119	14	diastole	8	B	500.0	coherent
496.7977	0.101254500565119	14	diastole	9	A	1169.7126981694591	coherent
497.3202	0.101254500565119	14	diastole	10	A	1169.7126981694591	coherent
497.5239	0.101254500565119	14	diastole	11	B	500.0	coherent
497.7277	0.101254500565119	14	diastole	12	A	1169.7126981694591	coherent
498.2502	0.101254500565119	14	diastole	13	A	1169.7126981694591	coherent
498.4538	0.101254500565119	14	diastole	14	B	500.0	coherent
498.6577	0.101254500565119	14	diastole	15	A	1169.7126981694591	coherent
499.0202	0.101254500565119	14	diastole	16	A	1169.7126981694591	coherent
499.2238	0.101254500565119	14	diastole	17	B	500.0	coherent
499.4277	0.101254500565119	14	diastole	18	A	1169.7126981694591	coherent
499.7902	0.101254500565119	14	diastole	19	A	1169.7126981694591	coherent
499.9938	0.101254500565119	14	diastole	20	B	500.0	coherent
500.1977	0.101254500565119	14	diastole	21	A	1169.7126981694591	coherent
500.5485	0.101254500565119	14	diastole	22	A	1169.7126981694591	coherent
500.7522	0.101254500565119	14	diastole	23	B	500.0	coherent
500.956	0.101254500565119	14	diastole	24	A	1169.7126981694591	coherent
501.4026	0.101254500565119	14	diastole	25	A	1169.7126981694591	coherent
501.6088	0.101254500565119	14	diastole	26	B	500.0	coherent
501.8151	0.101254500565119	14	diastole	27	A	1169.7126981694591	coherent
502.2426	0.101254500565119	14	diastole	28	A	1169.7126981694591	coherent
502.4488	0.101254500565119	14	diastole	29	B	500.0	coherent
502.6551	0.101254500565119	14	diastole	30	A	1169.7126981694591	coherent
503.0557	0.101254500565119	14	diastole	31	A	1169.7126981694591	coherent
503.2606	0.101254500565119	14	diastole	32	B	500.0	coherent
503.4657	0.101254500565119	14	diastole	33	A	1169.7126981694591	coherent
509.0327	0.1049955597845837	15	diastole	1	A	3457.353363503972	streaming
509.2439	0.1049955597845837	15	diastole	2	B	500.0	streaming
509.4551	0.1049955597845837	15	diastole	3	A	3457.353363503972	streaming
509.8126	0.1049955597845837	15	diastole	4	A	3457.353363503972	streaming
510.0238	0.1049955597845837	15	diastole	5	B	500.0	streaming
510.2351	0.1049955597845837	15	diastole	6	A	3457.353363503972	streaming
510.5926	0.1049955597845837	15	diastole	7	A	3457.353363503972	streaming
510.8038	0.1049955597845837	15	diastole	8	B	500.0	streaming
511.0151	0.1049955597845837	15	diastole	9	A	3457.353363503972	streaming
511.3225	0.1049955597845837	15	diastole	10	A	3457.353363503972	streaming
511.5337	0.1049955597845837	15	diastole	11	B	500.0	streaming
511.745	0.1049955597845837	15	diastole	12	A	3457.353363503972	streaming
511.9931	0.1049955597845837	15	diastole	13	A	3457.353363503972	streaming
512.1955	0.1049955597845837	15	diastole	14	B	500.0	streaming
512.3981	0.1049955597845837	15	diastole	15	A	3457.353363503972	streaming
512.6535	0.1049955597845837	15	diastole	16	A	3457.353363503972	streaming
512.8472	0.1049955597845837	15	diastole	17	B	500.0	streaming
513.041	0.1049955597845837	15	diastole	18	A	3457.353363503972	streaming
513.3452	0.1049955597845837	15	diastole	19	A	3457.353363503972	streaming
513.5339	0.1049955597845837	15	diastole	20	B	500.0	streaming
513.7227	0.1049955597845837	15	diastole	21	A	3457.353363503972	streaming
514.1651	0.1049955597845837	15	diastole	22	A	3457.353363503972	streaming
514.3539	0.1049955597845837	15	diastole	23	B	500.0	streaming
514.5426	0.1049955597845837	15	diastole	24	A	3457.353363503972	streaming
514.9851	0.1049955597845837	15	diastole	25	A	3457.353363503972	streaming
515.1738	0.1049955597845837	15	diastole	26	B	500.0	streaming
515.3626	0.1049955597845837	15	diastole	27	A	3457.353363503972	streaming
515.7651	0.1049955597845837	15	diastole	28	A	3457.353363503972	streaming
515.9538	0.1049955597845837	15	diastole	29	B	500.0	streaming
516.1426	0.1049955597845837	15	diastole	30	A	3457.353363503972	streaming
516.5451	0.1049955597845837	15	diastole	31	A	3457.353363503972	streaming
516.7338	0.1049955597845837	15	diastole	32	B	500.0	streaming
516.9226	0.1049955597845837	15	diastole	33	A	3457.353363503972	streaming
517.3251	0.1049955597845837	15	diastole	34	A	3457.353363503972	streaming
517.5138	0.1049955597845837	15	diastole	35	B	500.0	streaming
517.7026	0.1049955597845837	15	diastole	36	A	3457.353363503972	streaming
520.4647	0.0987477625021711	16	diastole	1	A	3704.9827347719142	streaming
520.6622	0.0987477625021711	16	diastole	2	B	500.0	streaming
520.8597	0.0987477625021711	16	diastole	3	A	3704.9827347719142	streaming
521.2447	0.0987477625021711	16	diastole	4	A	3704.9827347719142	streaming
521.4423	0.0987477625021711	16	diastole	5	B	500.0	streaming
521.6397	0.0987477625021711	16	diastole	6	A	3704.9827347719142	streaming
522.1148	0.0987477625021711	16	diastole	7	A	3704.9827347719142	streaming
522.3123	0.0987477625021711	16	diastole	8	B	500.0	streaming
522.5098	0.0987477625021711	16	diastole	9	A	3704.9827347719142	streaming
522.9848	0.0987477625021711	16	diastole	10	A	3704.9827347719142	streaming
523.1823	0.0987477625021711	16	diastole	11	B	500.0	streaming
523.3798	0.0987477625021711	16	diastole	12	A	3704.9827347719142	streaming
523.7548	0.0987477625021711	16	diastole	13	A	3704.9827347719142	streaming
523.9523	0.0987477625021711	16	diastole	14	B	500.0	streaming
524.1498	0.0987477625021711	16	diastole	15	A	3704.9827347719142	streaming
524.5248	0.0987477625021711	16	diastole	16	A	3704.9827347719142	streaming
524.7223	0.0987477625021711	16	diastole	17	B	500.0	streaming
524.9198	0.0987477625021711	16	diastole	18	A	3704.9827347719142	streaming
525.3047	0.0987477625021711	16	diastole	19	A	3704.9827347719142	streaming
525.5023	0.0987477625021711	16	diastole	20	B	500.0	streaming
525.6997	0.0987477625021711	16	diastole	21	A	3704.9827347719142	streaming
526.0847	0.0987477625021711	16	diastole	22	A	3704.9827347719142	streaming
526.2822	0.0987477625021711	16	diastole	23	B	500.0	streaming
526.4797	0.0987477625021711	16	diastole	24	A	3704.9827347719142	streaming
526.8947	0.0987477625021711	16	diastole	25	A	3704.9827347719142	streaming
527.0922	0.0987477625021711	16	diastole	26	B	500.0	streaming
527.2897	0.0987477625021711	16	diastole	27	A	3704.9827347719142	streaming
527.7747	0.0987477625021711	16	diastole	28	A	3704.9827347719142	streaming
527.9723	0.0987477625021711	16	diastole	29	B	500.0	streaming
528.1697	0.0987477625021711	16	diastole	30	A	3704.9827347719142	streaming
528.6919	0.0987477625021711	16	diastole	31	A	3704.9827347719142	streaming
528.8907	0.0987477625021711	16	diastole	32	B	500.0	streaming
529.0894	0.0987477625021711	16	diastole	33	A	3704.9827347719142	streaming
529.6019	0.0987477625021711	16	diastole	34	A	3704.9827347719142	streaming
529.8007	0.0987477625021711	16	diastole	35	B	500.0	streaming
529.9994	0.0987477625021711	16	diastole	36	A	3704.9827347719142	streaming
533.4993	0.1025050701573491	17	systole	1	A	510.0000000000003	coherent
533.7131	0.1025050701573491	17	systole	2	B	500.0	coherent
533.9268	0.1025050701573491	17	systole	3	A	510.0000000000003	coherent
534.4692	0.1025050701573491	17	systole	4	A	510.0000000000003	coherent
534.683	0.1025050701573491	17	systole	5	B	500.0	coherent
534.8968	0.1025050701573491	17	systole	6	A	510.0000000000003	coherent
535.4392	0.1025050701573491	17	systole	7	A	510.0000000000003	coherent
535.653	0.1025050701573491	17	systole	8	B	500.0	coherent
535.8667	0.1025050701573491	17	systole	9	A	510.0000000000003	coherent
536.3621	0.1025050701573491	17	systole	10	A	510.0000000000003	coherent
536.5821	0.1025050701573491	17	systole	11	B	500.0	coherent
536.8021	0.1025050701573491	17	systole	12	A	510.0000000000003	coherent
537.2124	0.1025050701573491	17	systole	13	A	510.0000000000003	coherent
537.4324	0.1025050701573491	17	systole	14	B	500.0	coherent
537.6524	0.1025050701573491	17	systole	15	A	510.0000000000003	coherent
538.0824	0.1025050701573491	17	systole	16	A	510.0000000000003	coherent
538.3024	0.1025050701573491	17	systole	17	B	500.0	coherent
538.5224	0.1025050701573491	17	systole	18	A	510.0000000000003	coherent
538.9524	0.1025050701573491	17	systole	19	A	510.0000000000003	coherent
539.1725	0.1025050701573491	17	systole	20	B	500.0	coherent
539.3924	0.1025050701573491	17	systole	21	A	510.0000000000003	coherent
539.8324	0.1025050701573491	17	systole	22	A	510.0000000000003	coherent
540.0525	0.1025050701573491	17	systole	23	B	500.0	coherent
540.2724	0.1025050701573491	17	systole	24	A	510.0000000000003	coherent
540.7616	0.1025050701573491	17	systole	25	A	510.0000000000003	coherent
540.9841	0.1025050701573491	17	systole	26	B	500.0	coherent
541.2066	0.1025050701573491	17	systole	27	A	510.0000000000003	coherent
541.5916	0.1025050701573491	17	systole	28	A	510.0000000000003	coherent
541.8141	0.1025050701573491	17	systole	29	B	500.0	coherent
542.0366	0.1025050701573491	17	systole	30	A	510.0000000000003	coherent
542.477	0.1025050701573491	17	systole	31	A	510.0000000000003	coherent
542.6982	0.1025050701573491	17	systole	32	B	500.0	coherent
542.9195	0.1025050701573491	17	systole	33	A	510.0000000000003	coherent
549.4478	0.1093756573973223	18	systole	1	A	3457.353363503972	coherent
549.6665	0.1093756573973223	18	systole	2	B	500.0	coherent
549.8853	0.1093756573973223	18	systole	3	A	3457.353363503972	coherent
550.2879	0.1093756573973223	18	systole	4	A	3457.353363503972	coherent
550.5066	0.1093756573973223	18	systole	5	B	500.0	coherent
550.7254	0.1093756573973223	18	systole	6	A	3457.353363503972	coherent
551.1295	0.1093756573973223	18	systole	7	A	3457.353363503972	coherent
551.3432	0.1093756573973223	18	systole	8	B	500.0	coherent
551.557	0.1093756573973223	18	systole	9	A	3457.353363503972	coherent
551.9895	0.1093756573973223	18	systole	10	A	3457.353363503972	coherent
552.2032	0.1093756573973223	18	systole	11	B	500.0	coherent
552.417	0.1093756573973223	18	systole	12	A	3457.353363503972	coherent
552.7903	0.1093756573973223	18	systole	13	A	3457.353363503972	coherent
553.0016	0.1093756573973223	18	systole	14	B	500.0	coherent
553.2129	0.1093756573973223	18	systole	15	A	3457.353363503972	coherent
553.5604	0.1093756573973223	18	systole	16	A	3457.353363503972	coherent
553.7716	0.1093756573973223	18	systole	17	B	500.0	coherent
553.9829	0.1093756573973223	18	systole	18	A	3457.353363503972	coherent
554.3304	0.1093756573973223	18	systole	19	A	3457.353363503972	coherent
554.5416	0.1093756573973223	18	systole	20	B	500.0	coherent
554.753	0.1093756573973223	18	systole	21	A	3457.353363503972	coherent
555.1105	0.1093756573973223	18	systole	22	A	3457.353363503972	coherent
555.3217	0.1093756573973223	18	systole	23	B	500.0	coherent
555.533	0.1093756573973223	18	systole	24	A	3457.353363503972	coherent
555.9168	0.1093756573973223	18	systole	25	A	3457.353363503972	coherent
556.1242	0.1093756573973223	18	systole	26	B	500.0	coherent
556.3318	0.1093756573973223	18	systole	27	A	3457.353363503972	coherent
556.7367	0.1093756573973223	18	systole	28	A	3457.353363503972	coherent
556.9442	0.1093756573973223	18	systole	29	B	500.0	coherent
557.1517	0.1093756573973223	18	systole	30	A	3457.353363503972	coherent
557.5184	0.1093756573973223	18	systole	31	A	3457.353363503972	coherent
557.7209	0.1093756573973223	18	systole	32	B	500.0	coherent
557.9234	0.1093756573973223	18	systole	33	A	3457.353363503972	coherent
558.3184	0.1093756573973223	18	systole	34	A	3457.353363503972	coherent
558.5209	0.1093756573973223	18	systole	35	B	500.0	coherent
558.7235	0.1093756573973223	18	systole	36	A	3457.353363503972	coherent
563.4281	0.1019022127147764	19	systole	1	A	559.276710600066	coherent
563.6307	0.1019022127147764	19	systole	2	B	500.0	coherent
563.8331	0.1019022127147764	19	systole	3	A	559.276710600066	coherent
564.1981	0.1019022127147764	19	systole	4	A	559.276710600066	coherent
564.4007	0.1019022127147764	19	systole	5	B	500.0	coherent
564.6032	0.1019022127147764	19	systole	6	A	559.276710600066	coherent
564.9682	0.1019022127147764	19	systole	7	A	559.276710600066	coherent
565.1707	0.1019022127147764	19	systole	8	B	500.0	coherent
565.3732	0.1019022127147764	19	systole	9	A	559.276710600066	coherent
565.8445	0.1019022127147764	19	systole	10	A	559.276710600066	coherent
566.0484	0.1019022127147764	19	systole	11	B	500.0	coherent
566.2521	0.1019022127147764	19	systole	12	A	559.276710600066	coherent
566.7161	0.1019022127147764	19	systole	13	A	559.276710600066	coherent
566.9199	0.1019022127147764	19	systole	14	B	500.0	coherent
567.1237	0.1019022127147764	19	systole	15	A	559.276710600066	coherent
567.6645	0.1019022127147764	19	systole	16	A	559.276710600066	coherent
567.8684	0.1019022127147764	19	systole	17	B	500.0	coherent
568.0721	0.1019022127147764	19	systole	18	A	559.276710600066	coherent
568.5181	0.1019022127147764	19	systole	19	A	559.276710600066	coherent
568.7257	0.1019022127147764	19	systole	20	B	500.0	coherent
568.9331	0.1019022127147764	19	systole	21	A	559.276710600066	coherent
569.4109	0.1019022127147764	19	systole	22	A	559.276710600066	coherent
569.6247	0.1019022127147764	19	systole	23	B	500.0	coherent
569.8384	0.1019022127147764	19	systole	24	A	559.276710600066	coherent
570.3451	0.1019022127147764	19	systole	25	A	559.276710600066	coherent
570.5628	0.1019022127147764	19	systole	26	B	500.0	coherent
570.7805	0.1019022127147764	19	systole	27	A	559.276710600066	coherent
571.2647	0.1019022127147764	19	systole	28	A	559.276710600066	coherent
571.4825	0.1019022127147764	19	systole	29	B	500.0	coherent
571.7001	0.1019022127147764	19	systole	30	A	559.276710600066	coherent
572.0905	0.1019022127147764	19	systole	31	A	559.276710600066	coherent
572.3043	0.1019022127147764	19	systole	32	B	500.0	coherent
572.518	0.1019022127147764	19	systole	33	A	559.276710600066	coherent
575.8572	0.1087489937199279	20	diastole	1	A	1169.7126981694591	streaming
576.0708	0.1087489937199279	20	diastole	2	B	500.0	streaming
576.2847	0.1087489937199279	20	diastole	3	A	1169.7126981694591	streaming
576.6971	0.1087489937199279	20	diastole	4	A	1169.7126981694591	streaming
576.9108	0.1087489937199279	20	diastole	5	B	500.0	streaming
577.1246	0.1087489937199279	20	diastole	6	A	1169.7126981694591	streaming
577.537	0.1087489937199279	20	diastole	7	A	1169.7126981694591	streaming
577.7507	0.1087489937199279	20	diastole	8	B	500.0	streaming
577.9645	0.1087489937199279	20	diastole	9	A	1169.7126981694591	streaming
578.3729	0.1087489937199279	20	diastole	10	A	1169.7126981694591	streaming
578.5841	0.1087489937199279	20	diastole	11	B	500.0	streaming
578.7954	0.1087489937199279	20	diastole	12	A	1169.7126981694591	streaming
579.2329	0.1087489937199279	20	diastole	13	A	1169.7126981694591	streaming
579.4441	0.1087489937199279	20	diastole	14	B	500.0	streaming
579.6554	0.1087489937199279	20	diastole	15	A	1169.7126981694591	streaming
580.0157	0.1087489937199279	20	diastole	16	A	1169.7126981694591	streaming
580.2257	0.1087489937199279	20	diastole	17	B	500.0	streaming
580.4357	0.1087489937199279	20	diastole	18	A	1169.7126981694591	streaming
580.8057	0.1087489937199279	20	diastole	19	A	1169.7126981694591	streaming
581.0156	0.1087489937199279	20	diastole	20	B	500.0	streaming
581.2257	0.1087489937199279	20	diastole	21	A	1169.7126981694591	streaming
581.5844	0.1087489937199279	20	diastole	22	A	1169.7126981694591	streaming
581.7906	0.1087489937199279	20	diastole	23	B	500.0	streaming
581.9969	0.1087489937199279	20	diastole	24	A	1169.7126981694591	streaming
582.3844	0.1087489937199279	20	diastole	25	A	1169.7126981694591	streaming
582.5906	0.1087489937199279	20	diastole	26	B	500.0	streaming
582.7969	0.1087489937199279	20	diastole	27	A	1169.7126981694591	streaming
583.1732	0.1087489937199279	20	diastole	28	A	1169.7126981694591	streaming
583.3757	0.1087489937199279	20	diastole	29	B	500.0	streaming
583.5783	0.1087489937199279	20	diastole	30	A	1169.7126981694591	streaming
583.9261	0.1087489937199279	20	diastole	31	A	1169.7126981694591	streaming
584.1272	0.1087489937199279	20	diastole	32	B	500.0	streaming
584.3286	0.1087489937199279	20	diastole	33	A	1169.7126981694591	streaming
584.7019	0.1087489937199279	20	diastole	34	A	1169.7126981694591	streaming
584.9006	0.1087489937199279	20	diastole	35	B	500.0	streaming
585.0994	0.1087489937199279	20	diastole	36	A	1169.7126981694591	streaming
588.0452	0.0974956062855199	21	systole	1	A	559.276710600066	coherent
588.2415	0.0974956062855199	21	systole	2	B	500.0	coherent
588.4377	0.0974956062855199	21	systole	3	A	559.276710600066	coherent
588.8652	0.0974956062855199	21	systole	4	A	559.276710600066	coherent
589.0615	0.0974956062855199	21	systole	5	B	500.0	coherent
589.2577	0.0974956062855199	21	systole	6	A	559.276710600066	coherent
589.6852	0.0974956062855199	21	systole	7	A	559.276710600066	coherent
589.8816	0.0974956062855199	21	systole	8	B	500.0	coherent
590.0777	0.0974956062855199	21	systole	9	A	559.276710600066	coherent
590.4607	0.0974956062855199	21	systole	10	A	559.276710600066	coherent
590.6557	0.0974956062855199	21	systole	11	B	500.0	coherent
590.8507	0.0974956062855199	21	systole	12	A	559.276710600066	coherent
591.2407	0.0974956062855199	21	systole	13	A	559.276710600066	coherent
591.4358	0.0974956062855199	21	systole	14	B	500.0	coherent
591.6307	0.0974956062855199	21	systole	15	A	559.276710600066	coherent
592.0706	0.0974956062855199	21	systole	16	A	559.276710600066	coherent
592.2657	0.0974956062855199	21	systole	17	B	500.0	coherent
592.4606	0.0974956062855199	21	systole	18	A	559.276710600066	coherent
592.9252	0.0974956062855199	21	systole	19	A	559.276710600066	coherent
593.1215	0.0974956062855199	21	systole	20	B	500.0	coherent
593.3177	0.0974956062855199	21	systole	21	A	559.276710600066	coherent
593.7752	0.0974956062855199	21	systole	22	A	559.276710600066	coherent
593.9715	0.0974956062855199	21	systole	23	B	500.0	coherent
594.1677	0.0974956062855199	21	systole	24	A	559.276710600066	coherent
594.5844	0.0974956062855199	21	systole	25	A	559.276710600066	coherent
594.7832	0.0974956062855199	21	systole	26	B	500.0	coherent
594.9819	0.0974956062855199	21	systole	27	A	559.276710600066	coherent
595.4374	0.0974956062855199	21	systole	28	A	559.276710600066	coherent
595.6398	0.0974956062855199	21	systole	29	B	500.0	coherent
595.842	0.0974956062855199	21	systole	30	A	559.276710600066	coherent
596.2774	0.0974956062855199	21	systole	31	A	559.276710600066	coherent
596.4798	0.0974956062855199	21	systole	32	B	500.0	coherent
596.682	0.0974956062855199	21	systole	33	A	559.276710600066	coherent
599.2962	0.1043734885752201	22	diastole	1	A	754.7629107028698	coherent
599.5054	0.1043734885752201	22	diastole	2	B	500.0	coherent
599.7161	0.1043734885752201	22	diastole	3	A	754.7629107028698	coherent
600.1162	0.1043734885752201	22	diastole	4	A	754.7629107028698	coherent
600.3254	0.1043734885752201	22	diastole	5	B	500.0	coherent
600.5361	0.1043734885752201	22	diastole	6	A	754.7629107028698	coherent
600.9362	0.1043734885752201	22	diastole	7	A	754.7629107028698	coherent
601.1454	0.1043734885752201	22	diastole	8	B	500.0	coherent
601.3562	0.1043734885752201	22	diastole	9	A	754.7629107028698	coherent
601.7562	0.1043734885752201	22	diastole	10	A	754.7629107028698	coherent
601.9654	0.1043734885752201	22	diastole	11	B	500.0	coherent
602.1762	0.1043734885752201	22	diastole	12	A	754.7629107028698	coherent
602.5962	0.1043734885752201	22	diastole	13	A	754.7629107028698	coherent
602.8055	0.1043734885752201	22	diastole	14	B	500.0	coherent
603.0162	0.1043734885752201	22	diastole	15	A	754.7629107028698	coherent
603.3562	0.1043734885752201	22	diastole	16	A	754.7629107028698	coherent
603.5655	0.1043734885752201	22	diastole	17	B	500.0	coherent
603.7762	0.1043734885752201	22	diastole	18	A	754.7629107028698	coherent
604.1162	0.1043734885752201	22	diastole	19	A	754.7629107028698	coherent
604.3255	0.1043734885752201	22	diastole	20	B	500.0	coherent
604.5362	0.1043734885752201	22	diastole	21	A	754.7629107028698	coherent
604.8821	0.1043734885752201	22	diastole	22	A	754.7629107028698	coherent
605.0889	0.1043734885752201	22	diastole	23	B	500.0	coherent
605.2971	0.1043734885752201	22	diastole	24	A	754.7629107028698	coherent
605.7581	0.1043734885752201	22	diastole	25	A	754.7629107028698	coherent
605.9623	0.1043734885752201	22	diastole	26	B	500.0	coherent
606.1681	0.1043734885752201	22	diastole	27	A	754.7629107028698	coherent
606.558	0.1043734885752201	22	diastole	28	A	754.7629107028698	coherent
606.7623	0.1043734885752201	22	diastole	29	B	500.0	coherent
606.968	0.1043734885752201	22	diastole	30	A	754.7629107028698	coherent
607.408	0.1043734885752201	22	diastole	31	A	754.7629107028698	coherent
607.6123	0.1043734885752201	22	diastole	32	B	500.0	coherent
607.818	0.1043734885752201	22	diastole	33	A	754.7629107028698	coherent
608.2581	0.1043734885752201	22	diastole	34	A	754.7629107028698	coherent
608.4623	0.1043734885752201	22	diastole	35	B	500.0	coherent
608.668	0.1043734885752201	22	diastole	36	A	754.7629107028698	coherent
611.102	0.101245834142901	23	systole	1	A	4886.027023828005	streaming
611.3055	0.101245834142901	23	systole	2	B	500.0	streaming
611.5091	0.101245834142901	23	systole	3	A	4886.027023828005	streaming
611.9419	0.101245834142901	23	systole	4	A	4886.027023828005	streaming
612.1481	0.101245834142901	23	systole	5	B	500.0	streaming
612.3544	0.101245834142901	23	systole	6	A	4886.027023828005	streaming
612.7719	0.101245834142901	23	systole	7	A	4886.027023828005	streaming
612.9781	0.101245834142901	23	systole	8	B	500.0	streaming
613.1844	0.101245834142901	23	systole	9	A	4886.027023828005	streaming
613.5367	0.101245834142901	23	systole	10	A	4886.027023828005	streaming
613.7414	0.101245834142901	23	systole	11	B	500.0	streaming
613.9463	0.101245834142901	23	systole	12	A	4886.027023828005	streaming
614.3166	0.101245834142901	23	systole	13	A	4886.027023828005	streaming
614.5213	0.101245834142901	23	systole	14	B	500.0	streaming
614.7262	0.101245834142901	23	systole	15	A	4886.027023828005	streaming
615.0965	0.101245834142901	23	systole	16	A	4886.027023828005	streaming
615.3012	0.101245834142901	23	systole	17	B	500.0	streaming
615.5061	0.101245834142901	23	systole	18	A	4886.027023828005	streaming
615.8305	0.101245834142901	23	systole	19	A	4886.027023828005	streaming
616.0282	0.101245834142901	23	systole	20	B	500.0	streaming
616.2259	0.101245834142901	23	systole	21	A	4886.027023828005	streaming
616.5905	0.101245834142901	23	systole	22	A	4886.027023828005	streaming
616.7882	0.101245834142901	23	systole	23	B	500.0	streaming
616.986	0.101245834142901	23	systole	24	A	4886.027023828005	streaming
617.3059	0.101245834142901	23	systole	25	A	4886.027023828005	streaming
617.4996	0.101245834142901	23	systole	26	B	500.0	streaming
617.6934	0.101245834142901	23	systole	27	A	4886.027023828005	streaming
618.0515	0.101245834142901	23	systole	28	A	4886.027023828005	streaming
618.2439	0.101245834142901	23	systole	29	B	500.0	streaming
618.4365	0.101245834142901	23	systole	30	A	4886.027023828005	streaming
618.8331	0.101245834142901	23	systole	31	A	4886.027023828005	streaming
619.0256	0.101245834142901	23	systole	32	B	500.0	streaming
619.2181	0.101245834142901	23	systole	33	A	4886.027023828005	streaming
619.6148	0.101245834142901	23	systole	34	A	4886.027023828005	streaming
619.8072	0.101245834142901	23	systole	35	B	500.0	streaming
619.9998	0.101245834142901	23	systole	36	A	4886.027023828005	streaming
620.4432	0.101245834142901	23	systole	37	A	4886.027023828005	streaming
620.6356	0.101245834142901	23	systole	38	B	500.0	streaming
620.8282	0.101245834142901	23	systole	39	A	4886.027023828005	streaming
622.8308	0.0968811062630266	24	systole	1	A	534.0703346994981	coherent
623.0258	0.0968811062630266	24	systole	2	B	500.0	coherent
623.2208	0.0968811062630266	24	systole	3	A	534.0703346994981	coherent
623.6004	0.0968811062630266	24	systole	4	A	534.0703346994981	coherent
623.7955	0.0968811062630266	24	systole	5	B	500.0	coherent
623.9904	0.0968811062630266	24	systole	6	A	534.0703346994981	coherent
624.3701	0.0968811062630266	24	systole	7	A	534.0703346994981	coherent
624.5651	0.0968811062630266	24	systole	8	B	500.0	coherent
624.7601	0.0968811062630266	24	systole	9	A	534.0703346994981	coherent
625.118	0.0968811062630266	24	systole	10	A	534.0703346994981	coherent
625.3131	0.0968811062630266	24	systole	11	B	500.0	coherent
625.508	0.0968811062630266	24	systole	12	A	534.0703346994981	coherent
625.8981	0.0968811062630266	24	systole	13	A	534.0703346994981	coherent
626.0931	0.0968811062630266	24	systole	14	B	500.0	coherent
626.2881	0.0968811062630266	24	systole	15	A	534.0703346994981	coherent
626.6781	0.0968811062630266	24	systole	16	A	534.0703346994981	coherent
626.8732	0.0968811062630266	24	systole	17	B	500.0	coherent
627.0681	0.0968811062630266	24	systole	18	A	534.0703346994981	coherent
627.5781	0.0968811062630266	24	systole	19	A	534.0703346994981	coherent
627.7732	0.0968811062630266	24	systole	20	B	500.0	coherent
627.9681	0.0968811062630266	24	systole	21	A	534.0703346994981	coherent
628.3381	0.0968811062630266	24	systole	22	A	534.0703346994981	coherent
628.5331	0.0968811062630266	24	systole	23	B	500.0	coherent
628.7281	0.0968811062630266	24	systole	24	A	534.0703346994981	coherent
629.104	0.0968811062630266	24	systole	25	A	534.0703346994981	coherent
629.2979	0.0968811062630266	24	systole	26	B	500.0	coherent
629.4916	0.0968811062630266	24	systole	27	A	534.0703346994981	coherent
629.8743	0.0968811062630266	24	systole	28	A	534.0703346994981	coherent
630.0682	0.0968811062630266	24	systole	29	B	500.0	coherent
630.2619	0.0968811062630266	24	systole	30	A	534.0703346994981	coherent
630.6944	0.0968811062630266	24	systole	31	A	534.0703346994981	coherent
630.8883	0.0968811062630266	24	systole	32	B	500.0	coherent
631.082	0.0968811062630266	24	systole	33	A	534.0703346994981	coherent
631.604	0.0968811062630266	24	systole	34	A	534.0703346994981	coherent
631.7979	0.0968811062630266	24	systole	35	B	500.0	coherent
631.9916	0.0968811062630266	24	systole	36	A	534.0703346994981	coherent
632.4943	0.0968811062630266	24	systole	37	A	534.0703346994981	coherent
632.7019	0.0968811062630266	24	systole	38	B	500.0	coherent
632.9093	0.0968811062630266	24	systole	39	A	534.0703346994981	coherent
635.4441	0.1075057798298075	25	systole	1	A	4999.999999999997	streaming
635.6591	0.1075057798298075	25	systole	2	B	500.0	streaming
635.8741	0.1075057798298075	25	systole	3	A	4999.999999999997	streaming
636.4042	0.1075057798298075	25	systole	4	A	4999.999999999997	streaming
636.6192	0.1075057798298075	25	systole	5	B	500.0	streaming
636.8343	0.1075057798298075	25	systole	6	A	4999.999999999997	streaming
637.2171	0.1075057798298075	25	systole	7	A	4999.999999999997	streaming
637.4383	0.1075057798298075	25	systole	8	B	500.0	streaming
637.6595	0.1075057798298075	25	systole	9	A	4999.999999999997	streaming
637.9971	0.1075057798298075	25	systole	10	A	4999.999999999997	streaming
638.2184	0.1075057798298075	25	systole	11	B	500.0	streaming
638.4396	0.1075057798298075	25	systole	12	A	4999.999999999997	streaming
638.7773	0.1075057798298075	25	systole	13	A	4999.999999999997	streaming
638.9984	0.1075057798298075	25	systole	14	B	500.0	streaming
639.2197	0.1075057798298075	25	systole	15	A	4999.999999999997	streaming
639.59	0.1075057798298075	25	systole	16	A	4999.999999999997	streaming
639.8038	0.1075057798298075	25	systole	17	B	500.0	streaming
640.0175	0.1075057798298075	25	systole	18	A	4999.999999999997	streaming
640.4159	0.1075057798298075	25	systole	19	A	4999.999999999997	streaming
640.6259	0.1075057798298075	25	systole	20	B	500.0	streaming
640.8359	0.1075057798298075	25	systole	21	A	4999.999999999997	streaming
641.2261	0.1075057798298075	25	systole	22	A	4999.999999999997	streaming
641.4361	0.1075057798298075	25	systole	23	B	500.0	streaming
641.6461	0.1075057798298075	25	systole	24	A	4999.999999999997	streaming
642.0365	0.1075057798298075	25	systole	25	A	4999.999999999997	streaming
642.2465	0.1075057798298075	25	systole	26	B	500.0	streaming
642.4565	0.1075057798298075	25	systole	27	A	4999.999999999997	streaming
642.9765	0.1075057798298075	25	systole	28	A	4999.999999999997	streaming
643.1864	0.1075057798298075	25	systole	29	B	500.0	streaming
643.3964	0.1075057798298075	25	systole	30	A	4999.999999999997	streaming
643.9266	0.1075057798298075	25	systole	31	A	4999.999999999997	streaming
644.1365	0.1075057798298075	25	systole	32	B	500.0	streaming
644.3465	0.1075057798298075	25	systole	33	A	4999.999999999997	streaming
644.8766	0.1075057798298075	25	systole	34	A	4999.999999999997	streaming
645.0866	0.1075057798298075	25	systole	35	B	500.0	streaming
645.2966	0.1075057798298075	25	systole	36	A	4999.999999999997	streaming
654.4127	0.1056387257995083	26	diastole	1	A	4157.735780147634	streaming
654.6238	0.1056387257995083	26	diastole	2	B	500.0	streaming
654.8351	0.1056387257995083	26	diastole	3	A	4157.735780147634	streaming
655.1657	0.1056387257995083	26	diastole	4	A	4157.735780147634	streaming
655.3756	0.1056387257995083	26	diastole	5	B	500.0	streaming
655.5857	0.1056387257995083	26	diastole	6	A	4157.735780147634	streaming
655.9257	0.1056387257995083	26	diastole	7	A	4157.735780147634	streaming
656.1356	0.1056387257995083	26	diastole	8	B	500.0	streaming
656.3457	0.1056387257995083	26	diastole	9	A	4157.735780147634	streaming
656.6857	0.1056387257995083	26	diastole	10	A	4157.735780147634	streaming
656.8956	0.1056387257995083	26	diastole	11	B	500.0	streaming
657.1057	0.1056387257995083	26	diastole	12	A	4157.735780147634	streaming
657.4144	0.1056387257995083	26	diastole	13	A	4157.735780147634	streaming
657.6206	0.1056387257995083	26	diastole	14	B	500.0	streaming
657.8269	0.1056387257995083	26	diastole	15	A	4157.735780147634	streaming
658.1645	0.1056387257995083	26	diastole	16	A	4157.735780147634	streaming
658.3706	0.1056387257995083	26	diastole	17	B	500.0	streaming
658.577	0.1056387257995083	26	diastole	18	A	4157.735780147634	streaming
658.8106	0.1056387257995083	26	diastole	19	A	4157.735780147634	streaming
659.0056	0.1056387257995083	26	diastole	20	B	500.0	streaming
659.2006	0.1056387257995083	26	diastole	21	A	4157.735780147634	streaming
659.5207	0.1056387257995083	26	diastole	22	A	4157.735780147634	streaming
659.7156	0.1056387257995083	26	diastole	23	B	500.0	streaming
659.9106	0.1056387257995083	26	diastole	24	A	4157.735780147634	streaming
660.2365	0.1056387257995083	26	diastole	25	A	4157.735780147634	streaming
660.4289	0.1056387257995083	26	diastole	26	B	500.0	streaming
660.6214	0.1056387257995083	26	diastole	27	A	4157.735780147634	streaming
661.1365	0.1056387257995083	26	diastole	28	A	4157.735780147634	streaming
661.3289	0.1056387257995083	26	diastole	29	B	500.0	streaming
661.5215	0.1056387257995083	26	diastole	30	A	4157.735780147634	streaming
661.9465	0.1056387257995083	26	diastole	31	A	4157.735780147634	streaming
662.1389	0.1056387257995083	26	diastole	32	B	500.0	streaming
662.3315	0.1056387257995083	26	diastole	33	A	4157.735780147634	streaming
662.7565	0.1056387257995083	26	diastole	34	A	4157.735780147634	streaming
662.9489	0.1056387257995083	26	diastole	35	B	500.0	streaming
663.1415	0.1056387257995083	26	diastole	36	A	4157.735780147634	streaming
665.818	0.1012489986605942	27	systole	1	A	534.0703346994981	coherent
666.0206	0.1012489986605942	27	systole	2	B	500.0	coherent
666.223	0.1012489986605942	27	systole	3	A	534.0703346994981	coherent
666.608	0.1012489986605942	27	systole	4	A	534.0703346994981	coherent
666.8105	0.1012489986605942	27	systole	5	B	500.0	coherent
667.013	0.1012489986605942	27	systole	6	A	534.0703346994981	coherent
667.3834	0.1012489986605942	27	systole	7	A	534.0703346994981	coherent
667.5847	0.1012489986605942	27	systole	8	B	500.0	coherent
667.7859	0.1012489986605942	27	systole	9	A	534.0703346994981	coherent
668.1443	0.1012489986605942	27	systole	10	A	534.0703346994981	coherent
668.3431	0.1012489986605942	27	systole	11	B	500.0	coherent
668.5418	0.1012489986605942	27	systole	12	A	534.0703346994981	coherent
668.9142	0.1012489986605942	27	systole	13	A	534.0703346994981	coherent
669.113	0.1012489986605942	27	systole	14	B	500.0	coherent
669.3117	0.1012489986605942	27	systole	15	A	534.0703346994981	coherent
669.7887	0.1012489986605942	27	systole	16	A	534.0703346994981	coherent
669.9888	0.1012489986605942	27	systole	17	B	500.0	coherent
670.1887	0.1012489986605942	27	systole	18	A	534.0703346994981	coherent
670.6688	0.1012489986605942	27	systole	19	A	534.0703346994981	coherent
670.8688	0.1012489986605942	27	systole	20	B	500.0	coherent
671.0688	0.1012489986605942	27	systole	21	A	534.0703346994981	coherent
671.4151	0.1012489986605942	27	systole	22	A	534.0703346994981	coherent
671.6114	0.1012489986605942	27	systole	23	B	500.0	coherent
671.8076	0.1012489986605942	27	systole	24	A	534.0703346994981	coherent
672.1751	0.1012489986605942	27	systole	25	A	534.0703346994981	coherent
672.3714	0.1012489986605942	27	systole	26	B	500.0	coherent
672.5676	0.1012489986605942	27	systole	27	A	534.0703346994981	coherent
672.9051	0.1012489986605942	27	systole	28	A	534.0703346994981	coherent
673.1014	0.1012489986605942	27	systole	29	B	500.0	coherent
673.2976	0.1012489986605942	27	systole	30	A	534.0703346994981	coherent
673.6259	0.1012489986605942	27	systole	31	A	534.0703346994981	coherent
673.8197	0.1012489986605942	27	systole	32	B	500.0	coherent
674.0134	0.1012489986605942	27	systole	33	A	534.0703346994981	coherent
674.3559	0.1012489986605942	27	systole	34	A	534.0703346994981	coherent
674.5497	0.1012489986605942	27	systole	35	B	500.0	coherent
674.7434	0.1012489986605942	27	systole	36	A	534.0703346994981	coherent
675.0421	0.1012489986605942	27	systole	37	A	534.0703346994981	coherent
675.2322	0.1012489986605942	27	systole	38	B	500.0	coherent
675.4221	0.1012489986605942	27	systole	39	A	534.0703346994981	coherent
678.3505	0.0912517358083278	28	diastole	1	A	772.3687435845811	coherent
678.5323	0.0912517358083278	28	diastole	2	B	500.0	coherent
678.7155	0.0912517358083278	28	diastole	3	A	772.3687435845811	coherent
679.2006	0.0912517358083278	28	diastole	4	A	772.3687435845811	coherent
679.3823	0.0912517358083278	28	diastole	5	B	500.0	coherent
679.5656	0.0912517358083278	28	diastole	6	A	772.3687435845811	coherent
680.0506	0.0912517358083278	28	diastole	7	A	772.3687435845811	coherent
680.2324	0.0912517358083278	28	diastole	8	B	500.0	coherent
680.4156	0.0912517358083278	28	diastole	9	A	772.3687435845811	coherent
680.8177	0.0912517358083278	28	diastole	10	A	772.3687435845811	coherent
681.0007	0.0912517358083278	28	diastole	11	B	500.0	coherent
681.1852	0.0912517358083278	28	diastole	12	A	772.3687435845811	coherent
681.5776	0.0912517358083278	28	diastole	13	A	772.3687435845811	coherent
681.7607	0.0912517358083278	28	diastole	14	B	500.0	coherent
681.9451	0.0912517358083278	28	diastole	15	A	772.3687435845811	coherent
682.3419	0.0912517358083278	28	diastole	16	A	772.3687435845811	coherent
682.5274	0.0912517358083278	28	diastole	17	B	500.0	coherent
682.7144	0.0912517358083278	28	diastole	18	A	772.3687435845811	coherent
683.1758	0.0912517358083278	28	diastole	19	A	772.3687435845811	coherent
683.3638	0.0912517358083278	28	diastole	20	B	500.0	coherent
683.5533	0.0912517358083278	28	diastole	21	A	772.3687435845811	coherent
683.9956	0.0912517358083278	28	diastole	22	A	772.3687435845811	coherent
684.1836	0.0912517358083278	28	diastole	23	B	500.0	coherent
684.3731	0.0912517358083278	28	diastole	24	A	772.3687435845811	coherent
684.8144	0.0912517358083278	28	diastole	25	A	772.3687435845811	coherent
685.0112	0.0912517358083278	28	diastole	26	B	500.0	coherent
685.2093	0.0912517358083278	28	diastole	27	A	772.3687435845811	coherent
685.584	0.0912517358083278	28	diastole	28	A	772.3687435845811	coherent
685.7807	0.0912517358083278	28	diastole	29	B	500.0	coherent
685.9789	0.0912517358083278	28	diastole	30	A	772.3687435845811	coherent
686.3536	0.0912517358083278	28	diastole	31	A	772.3687435845811	coherent
686.5503	0.0912517358083278	28	diastole	32	B	500.0	coherent
686.7485	0.0912517358083278	28	diastole	33	A	772.3687435845811	coherent
687.2069	0.0912517358083278	28	diastole	34	A	772.3687435845811	coherent
687.4024	0.0912517358083278	28	diastole	35	B	500.0	coherent
687.5994	0.0912517358083278	28	diastole	36	A	772.3687435845811	coherent
690.8503	0.1012777588330209	29	diastole	1	A	4062.961875947593	streaming
691.054	0.1012777588330209	29	diastole	2	B	500.0	streaming
691.2579	0.1012777588330209	29	diastole	3	A	4062.961875947593	streaming
691.9089	0.1012777588330209	29	diastole	4	A	4062.961875947593	streaming
692.1176	0.1012777588330209	29	diastole	5	B	500.0	streaming
692.3265	0.1012777588330209	29	diastole	6	A	4062.961875947593	streaming
692.9684	0.1012777588330209	29	diastole	7	A	4062.961875947593	streaming
693.1858	0.1012777588330209	29	diastole	8	B	500.0	streaming
693.4034	0.1012777588330209	29	diastole	9	A	4062.961875947593	streaming
693.9786	0.1012777588330209	29	diastole	10	A	4062.961875947593	streaming
694.196	0.1012777588330209	29	diastole	11	B	500.0	streaming
694.4136	0.1012777588330209	29	diastole	12	A	4062.961875947593	streaming
694.7787	0.1012777588330209	29	diastole	13	A	4062.961875947593	streaming
694.9961	0.1012777588330209	29	diastole	14	B	500.0	streaming
695.2137	0.1012777588330209	29	diastole	15	A	4062.961875947593	streaming
695.5787	0.1012777588330209	29	diastole	16	A	4062.961875947593	streaming
695.7961	0.1012777588330209	29	diastole	17	B	500.0	streaming
696.0137	0.1012777588330209	29	diastole	18	A	4062.961875947593	streaming
696.3787	0.1012777588330209	29	diastole	19	A	4062.961875947593	streaming
696.5961	0.1012777588330209	29	diastole	20	B	500.0	streaming
696.8137	0.1012777588330209	29	diastole	21	A	4062.961875947593	streaming
697.2558	0.1012777588330209	29	diastole	22	A	4062.961875947593	streaming
697.4745	0.1012777588330209	29	diastole	23	B	500.0	streaming
697.6933	0.1012777588330209	29	diastole	24	A	4062.961875947593	streaming
698.0859	0.1012777588330209	29	diastole	25	A	4062.961875947593	streaming
698.3046	0.1012777588330209	29	diastole	26	B	500.0	streaming
698.5234	0.1012777588330209	29	diastole	27	A	4062.961875947593	streaming
698.9158	0.1012777588330209	29	diastole	28	A	4062.961875947593	streaming
699.1345	0.1012777588330209	29	diastole	29	B	500.0	streaming
699.3534	0.1012777588330209	29	diastole	30	A	4062.961875947593	streaming
699.7793	0.1012777588330209	29	diastole	31	A	4062.961875947593	streaming
699.9968	0.1012777588330209	29	diastole	32	B	500.0	streaming
700.2144	0.1012777588330209	29	diastole	33	A	4062.961875947593	streaming
703.3392	0.1081049571512267	30	diastole	1	A	808.8220262698977	coherent
703.5561	0.1081049571512267	30	diastole	2	B	500.0	coherent
703.7743	0.1081049571512267	30	diastole	3	A	808.8220262698977	coherent
704.1788	0.1081049571512267	30	diastole	4	A	808.8220262698977	coherent
704.3957	0.1081049571512267	30	diastole	5	B	500.0	coherent
704.6139	0.1081049571512267	30	diastole	6	A	808.8220262698977	coherent
705.0185	0.1081049571512267	30	diastole	7	A	808.8220262698977	coherent
705.2354	0.1081049571512267	30	diastole	8	B	500.0	coherent
705.4536	0.1081049571512267	30	diastole	9	A	808.8220262698977	coherent
705.973	0.1081049571512267	30	diastole	10	A	808.8220262698977	coherent
706.1924	0.1081049571512267	30	diastole	11	B	500.0	coherent
706.413	0.1081049571512267	30	diastole	12	A	808.8220262698977	coherent
706.7815	0.1081049571512267	30	diastole	13	A	808.8220262698977	coherent
706.9971	0.1081049571512267	30	diastole	14	B	500.0	coherent
707.214	0.1081049571512267	30	diastole	15	A	808.8220262698977	coherent
707.5911	0.1081049571512267	30	diastole	16	A	808.8220262698977	coherent
707.8067	0.1081049571512267	30	diastole	17	B	500.0	coherent
708.0236	0.1081049571512267	30	diastole	18	A	808.8220262698977	coherent
708.4007	0.1081049571512267	30	diastole	19	A	808.8220262698977	coherent
708.6163	0.1081049571512267	30	diastole	20	B	500.0	coherent
708.8332	0.1081049571512267	30	diastole	21	A	808.8220262698977	coherent
709.2126	0.1081049571512267	30	diastole	22	A	808.8220262698977	coherent
709.4233	0.1081049571512267	30	diastole	23	B	500.0	coherent
709.6352	0.1081049571512267	30	diastole	24	A	808.8220262698977	coherent
710.0526	0.1081049571512267	30	diastole	25	A	808.8220262698977	coherent
710.2633	0.1081049571512267	30	diastole	26	B	500.0	coherent
710.4752	0.1081049571512267	30	diastole	27	A	808.8220262698977	coherent
710.8854	0.1081049571512267	30	diastole	28	A	808.8220262698977	coherent
711.0948	0.1081049571512267	30	diastole	29	B	500.0	coherent
711.3054	0.1081049571512267	30	diastole	30	A	808.8220262698977	coherent
711.7282	0.1081049571512267	30	diastole	31	A	808.8220262698977	coherent
711.9363	0.1081049571512267	30	diastole	32	B	500.0	coherent
712.1456	0.1081049571512267	30	diastole	33	A	808.8220262698977	coherent
714.7656	0.1037472304888069	31	systole	1	A	4886.027023828005	streaming
714.9755	0.1037472304888069	31	systole	2	B	500.0	streaming
715.1856	0.1037472304888069	31	systole	3	A	4886.027023828005	streaming
715.6556	0.1037472304888069	31	systole	4	A	4886.027023828005	streaming
715.8656	0.1037472304888069	31	systole	5	B	500.0	streaming
716.0756	0.1037472304888069	31	systole	6	A	4886.027023828005	streaming
716.5839	0.1037472304888069	31	systole	7	A	4886.027023828005	streaming
716.7989	0.1037472304888069	31	systole	8	B	500.0	streaming
717.0139	0.1037472304888069	31	systole	9	A	4886.027023828005	streaming
717.354	0.1037472304888069	31	systole	10	A	4886.027023828005	streaming
717.5689	0.1037472304888069	31	systole	11	B	500.0	streaming
717.784	0.1037472304888069	31	systole	12	A	4886.027023828005	streaming
718.124	0.1037472304888069	31	systole	13	A	4886.027023828005	streaming
718.339	0.1037472304888069	31	systole	14	B	500.0	streaming
718.554	0.1037472304888069	31	systole	15	A	4886.027023828005	streaming
718.914	0.1037472304888069	31	systole	16	A	4886.027023828005	streaming
719.129	0.1037472304888069	31	systole	17	B	500.0	streaming
719.344	0.1037472304888069	31	systole	18	A	4886.027023828005	streaming
719.8222	0.1037472304888069	31	systole	19	A	4886.027023828005	streaming
720.0422	0.1037472304888069	31	systole	20	B	500.0	streaming
720.2622	0.1037472304888069	31	systole	21	A	4886.027023828005	streaming
720.7122	0.1037472304888069	31	systole	22	A	4886.027023828005	streaming
720.9322	0.1037472304888069	31	systole	23	B	500.0	streaming
721.1522	0.1037472304888069	31	systole	24	A	4886.027023828005	streaming
721.4994	0.1037472304888069	31	systole	25	A	4886.027023828005	streaming
721.7131	0.1037472304888069	31	systole	26	B	500.0	streaming
721.9269	0.1037472304888069	31	systole	27	A	4886.027023828005	streaming
722.3631	0.1037472304888069	31	systole	28	A	4886.027023828005	streaming
722.5805	0.1037472304888069	31	systole	29	B	500.0	streaming
722.7981	0.1037472304888069	31	systole	30	A	4886.027023828005	streaming
723.2094	0.1037472304888069	31	systole	31	A	4886.027023828005	streaming
723.4231	0.1037472304888069	31	systole	32	B	500.0	streaming
723.6369	0.1037472304888069	31	systole	33	A	4886.027023828005	streaming
726.1185	0.1043697813292965	32	diastole	1	A	3791.406306907005	streaming
726.3273	0.1043697813292965	32	diastole	2	B	500.0	streaming
726.536	0.1043697813292965	32	diastole	3	A	3791.406306907005	streaming
726.9386	0.1043697813292965	32	diastole	4	A	3791.406306907005	streaming
727.1474	0.1043697813292965	32	diastole	5	B	500.0	streaming
727.3561	0.1043697813292965	32	diastole	6	A	3791.406306907005	streaming
727.8697	0.1043697813292965	32	diastole	7	A	3791.406306907005	streaming
728.0822	0.1043697813292965	32	diastole	8	B	500.0	streaming
728.2947	0.1043697813292965	32	diastole	9	A	3791.406306907005	streaming
728.7297	0.1043697813292965	32	diastole	10	A	3791.406306907005	streaming
728.9423	0.1043697813292965	32	diastole	11	B	500.0	streaming
729.1547	0.1043697813292965	32	diastole	12	A	3791.406306907005	streaming
729.4886	0.1043697813292965	32	diastole	13	A	3791.406306907005	streaming
729.6974	0.1043697813292965	32	diastole	14	B	500.0	streaming
729.9061	0.1043697813292965	32	diastole	15	A	3791.406306907005	streaming
730.2885	0.1043697813292965	32	diastole	16	A	3791.406306907005	streaming
730.4974	0.1043697813292965	32	diastole	17	B	500.0	streaming
730.7061	0.1043697813292965	32	diastole	18	A	3791.406306907005	streaming
731.0874	0.1043697813292965	32	diastole	19	A	3791.406306907005	streaming
731.2925	0.1043697813292965	32	diastole	20	B	500.0	streaming
731.4974	0.1043697813292965	32	diastole	21	A	3791.406306907005	streaming
731.9574	0.1043697813292965	32	diastole	22	A	3791.406306907005	streaming
732.1625	0.1043697813292965	32	diastole	23	B	500.0	streaming
732.3675	0.1043697813292965	32	diastole	24	A	3791.406306907005	streaming
732.8174	0.1043697813292965	32	diastole	25	A	3791.406306907005	streaming
733.0225	0.1043697813292965	32	diastole	26	B	500.0	streaming
733.2275	0.1043697813292965	32	diastole	27	A	3791.406306907005	streaming
733.6886	0.1043697813292965	32	diastole	28	A	3791.406306907005	streaming
733.8974	0.1043697813292965	32	diastole	29	B	500.0	streaming
734.1061	0.1043697813292965	32	diastole	30	A	3791.406306907005	streaming
734.5968	0.1043697813292965	32	diastole	31	A	3791.406306907005	streaming
734.8106	0.1043697813292965	32	diastole	32	B	500.0	streaming
735.0243	0.1043697813292965	32	diastole	33	A	3791.406306907005	streaming
735.4768	0.1043697813292965	32	diastole	34	A	3791.406306907005	streaming
735.6906	0.1043697813292965	32	diastole	35	B	500.0	streaming
735.9043	0.1043697813292965	32	diastole	36	A	3791.406306907005	streaming
739.3292	0.1068760040216147	33	systole	1	A	546.5282243579111	coherent
739.543	0.1068760040216147	33	systole	2	B	500.0	coherent
739.7566	0.1068760040216147	33	systole	3	A	546.5282243579111	coherent
740.1772	0.1068760040216147	33	systole	4	A	546.5282243579111	coherent
740.391	0.1068760040216147	33	systole	5	B	500.0	coherent
740.6047	0.1068760040216147	33	systole	6	A	546.5282243579111	coherent
740.9726	0.1068760040216147	33	systole	7	A	546.5282243579111	coherent
741.1852	0.1068760040216147	33	systole	8	B	500.0	coherent
741.3976	0.1068760040216147	33	systole	9	A	546.5282243579111	coherent
741.8018	0.1068760040216147	33	systole	10	A	546.5282243579111	coherent
742.0142	0.1068760040216147	33	systole	11	B	500.0	coherent
742.2263	0.1068760040216147	33	systole	12	A	546.5282243579111	coherent
742.6429	0.1068760040216147	33	systole	13	A	546.5282243579111	coherent
742.8527	0.1068760040216147	33	systole	14	B	500.0	coherent
743.0625	0.1068760040216147	33	systole	15	A	546.5282243579111	coherent
743.4346	0.1068760040216147	33	systole	16	A	546.5282243579111	coherent
743.6422	0.1068760040216147	33	systole	17	B	500.0	coherent
743.8497	0.1068760040216147	33	systole	18	A	546.5282243579111	coherent
744.2928	0.1068760040216147	33	systole	19	A	546.5282243579111	coherent
744.5027	0.1068760040216147	33	systole	20	B	500.0	coherent
744.7124	0.1068760040216147	33	systole	21	A	546.5282243579111	coherent
745.1428	0.1068760040216147	33	systole	22	A	546.5282243579111	coherent
745.3526	0.1068760040216147	33	systole	23	B	500.0	coherent
745.5624	0.1068760040216147	33	systole	24	A	546.5282243579111	coherent
746.0817	0.1068760040216147	33	systole	25	A	546.5282243579111	coherent
746.294	0.1068760040216147	33	systole	26	B	500.0	coherent
746.5062	0.1068760040216147	33	systole	27	A	546.5282243579111	coherent
747.0117	0.1068760040216147	33	systole	28	A	546.5282243579111	coherent
747.224	0.1068760040216147	33	systole	29	B	500.0	coherent
747.4362	0.1068760040216147	33	systole	30	A	546.5282243579111	coherent
747.9126	0.1068760040216147	33	systole	31	A	546.5282243579111	coherent
748.1251	0.1068760040216147	33	systole	32	B	500.0	coherent
748.3376	0.1068760040216147	33	systole	33	A	546.5282243579111	coherent
750.463	0.1087337617063894	34	systole	1	A	4774.652015515508	streaming
750.6804	0.1087337617063894	34	systole	2	B	500.0	streaming
750.8979	0.1087337617063894	34	systole	3	A	4774.652015515508	streaming
751.303	0.1087337617063894	34	systole	4	A	4774.652015515508	streaming
751.5204	0.1087337617063894	34	systole	5	B	500.0	streaming
751.7379	0.1087337617063894	34	systole	6	A	4774.652015515508	streaming
752.143	0.1087337617063894	34	systole	7	A	4774.652015515508	streaming
752.3604	0.1087337617063894	34	systole	8	B	500.0	streaming
752.5779	0.1087337617063894	34	systole	9	A	4774.652015515508	streaming
752.983	0.1087337617063894	34	systole	10	A	4774.652015515508	streaming
753.2004	0.1087337617063894	34	systole	11	B	500.0	streaming
753.4179	0.1087337617063894	34	systole	12	A	4774.652015515508	streaming
753.8229	0.1087337617063894	34	systole	13	A	4774.652015515508	streaming
754.0403	0.1087337617063894	34	systole	14	B	500.0	streaming
754.2579	0.1087337617063894	34	systole	15	A	4774.652015515508	streaming
754.5701	0.1087337617063894	34	systole	16	A	4774.652015515508	streaming
754.7812	0.1087337617063894	34	systole	17	B	500.0	streaming
754.9926	0.1087337617063894	34	systole	18	A	4774.652015515508	streaming
755.3455	0.1087337617063894	34	systole	19	A	4774.652015515508	streaming
755.5554	0.1087337617063894	34	systole	20	B	500.0	streaming
755.7655	0.1087337617063894	34	systole	21	A	4774.652015515508	streaming
756.1255	0.1087337617063894	34	systole	22	A	4774.652015515508	streaming
756.3354	0.1087337617063894	34	systole	23	B	500.0	streaming
756.5455	0.1087337617063894	34	systole	24	A	4774.652015515508	streaming
756.9909	0.1087337617063894	34	systole	25	A	4774.652015515508	streaming
757.1996	0.1087337617063894	34	systole	26	B	500.0	streaming
757.4084	0.1087337617063894	34	systole	27	A	4774.652015515508	streaming
757.8609	0.1087337617063894	34	systole	28	A	4774.652015515508	streaming
758.0696	0.1087337617063894	34	systole	29	B	500.0	streaming
758.2784	0.1087337617063894	34	systole	30	A	4774.652015515508	streaming
758.6564	0.1087337617063894	34	systole	31	A	4774.652015515508	streaming
758.8638	0.1087337617063894	34	systole	32	B	500.0	streaming
759.0714	0.1087337617063894	34	systole	33	A	4774.652015515508	streaming
759.4565	0.1087337617063894	34	systole	34	A	4774.652015515508	streaming
759.6639	0.1087337617063894	34	systole	35	B	500.0	streaming
759.8715	0.1087337617063894	34	systole	36	A	4774.652015515508	streaming
763.3962	0.1050006763543933	35	diastole	1	A	866.753070272264	coherent
763.6057	0.1050006763543933	35	diastole	2	B	500.0	coherent
763.8162	0.1050006763543933	35	diastole	3	A	866.753070272264	coherent
764.2064	0.1050006763543933	35	diastole	4	A	866.753070272264	coherent
764.4158	0.1050006763543933	35	diastole	5	B	500.0	coherent
764.6264	0.1050006763543933	35	diastole	6	A	866.753070272264	coherent
765.0265	0.1050006763543933	35	diastole	7	A	866.753070272264	coherent
765.2359	0.1050006763543933	35	diastole	8	B	500.0	coherent
765.4465	0.1050006763543933	35	diastole	9	A	866.753070272264	coherent
765.9318	0.1050006763543933	35	diastole	10	A	866.753070272264	coherent
766.1475	0.1050006763543933	35	diastole	11	B	500.0	coherent
766.3643	0.1050006763543933	35	diastole	12	A	866.753070272264	coherent
766.7748	0.1050006763543933	35	diastole	13	A	866.753070272264	coherent
766.9893	0.1050006763543933	35	diastole	14	B	500.0	coherent
767.2048	0.1050006763543933	35	diastole	15	A	866.753070272264	coherent
767.6889	0.1050006763543933	35	diastole	16	A	866.753070272264	coherent
767.9059	0.1050006763543933	35	diastole	17	B	500.0	coherent
768.1239	0.1050006763543933	35	diastole	18	A	866.753070272264	coherent
768.5889	0.1050006763543933	35	diastole	19	A	866.753070272264	coherent
768.8059	0.1050006763543933	35	diastole	20	B	500.0	coherent
769.0239	0.1050006763543933	35	diastole	21	A	866.753070272264	coherent
769.5914	0.1050006763543933	35	diastole	22	A	866.753070272264	coherent
769.8159	0.1050006763543933	35	diastole	23	B	500.0	coherent
770.0414	0.1050006763543933	35	diastole	24	A	866.753070272264	coherent
770.5514	0.1050006763543933	35	diastole	25	A	866.753070272264	coherent
770.7759	0.1050006763543933	35	diastole	26	B	500.0	coherent
771.0014	0.1050006763543933	35	diastole	27	A	866.753070272264	coherent
771.5114	0.1050006763543933	35	diastole	28	A	866.753070272264	coherent
771.7359	0.1050006763543933	35	diastole	29	B	500.0	coherent
771.9614	0.1050006763543933	35	diastole	30	A	866.753070272264	coherent
775.1257	0.1156002384377643	36	diastole	1	A	3538.000656405778	streaming
775.3568	0.1156002384377643	36	diastole	2	B	500.0	streaming
775.588	0.1156002384377643	36	diastole	3	A	3538.000656405778	streaming
775.9156	0.1156002384377643	36	diastole	4	A	3538.000656405778	streaming
776.1468	0.1156002384377643	36	diastole	5	B	500.0	streaming
776.378	0.1156002384377643	36	diastole	6	A	3538.000656405778	streaming
776.6757	0.1156002384377643	36	diastole	7	A	3538.000656405778	streaming
776.9069	0.1156002384377643	36	diastole	8	B	500.0	streaming
777.1381	0.1156002384377643	36	diastole	9	A	3538.000656405778	streaming
777.4757	0.1156002384377643	36	diastole	10	A	3538.000656405778	streaming
777.7069	0.1156002384377643	36	diastole	11	B	500.0	streaming
777.9381	0.1156002384377643	36	diastole	12	A	3538.000656405778	streaming
778.2349	0.1156002384377643	36	diastole	13	A	3538.000656405778	streaming
778.4535	0.1156002384377643	36	diastole	14	B	500.0	streaming
778.6723	0.1156002384377643	36	diastole	15	A	3538.000656405778	streaming
778.9102	0.1156002384377643	36	diastole	16	A	3538.000656405778	streaming
779.114	0.1156002384377643	36	diastole	17	B	500.0	streaming
779.3177	0.1156002384377643	36	diastole	18	A	3538.000656405778	streaming
779.6688	0.1156002384377643	36	diastole	19	A	3538.000656405778	streaming
779.8688	0.1156002384377643	36	diastole	20	B	500.0	streaming
780.0688	0.1156002384377643	36	diastole	21	A	3538.000656405778	streaming
780.4516	0.1156002384377643	36	diastole	22	A	3538.000656405778	streaming
780.6504	0.1156002384377643	36	diastole	23	B	500.0	streaming
780.8491	0.1156002384377643	36	diastole	24	A	3538.000656405778	streaming
781.2817	0.1156002384377643	36	diastole	25	A	3538.000656405778	streaming
781.4804	0.1156002384377643	36	diastole	26	B	500.0	streaming
781.6792	0.1156002384377643	36	diastole	27	A	3538.000656405778	streaming
782.0447	0.1156002384377643	36	diastole	28	A	3538.000656405778	streaming
782.2421	0.1156002384377643	36	diastole	29	B	500.0	streaming
782.4396	0.1156002384377643	36	diastole	30	A	3538.000656405778	streaming
782.8147	0.1156002384377643	36	diastole	31	A	3538.000656405778	streaming
783.0121	0.1156002384377643	36	diastole	32	B	500.0	streaming
783.2097	0.1156002384377643	36	diastole	33	A	3538.000656405778	streaming
783.5847	0.1156002384377643	36	diastole	34	A	3538.000656405778	streaming
783.7822	0.1156002384377643	36	diastole	35	B	500.0	streaming
783.9796	0.1156002384377643	36	diastole	36	A	3538.000656405778	streaming
786.0482	0.0987327188486233	37	systole	1	A	559.276710600066	coherent
786.2507	0.0987327188486233	37	systole	2	B	500.0	coherent
786.4532	0.0987327188486233	37	systole	3	A	559.276710600066	coherent
786.9309	0.0987327188486233	37	systole	4	A	559.276710600066	coherent
787.1398	0.0987327188486233	37	systole	5	B	500.0	coherent
787.3484	0.0987327188486233	37	systole	6	A	559.276710600066	coherent
787.8401	0.0987327188486233	37	systole	7	A	559.276710600066	coherent
788.0515	0.0987327188486233	37	systole	8	B	500.0	coherent
788.2627	0.0987327188486233	37	systole	9	A	559.276710600066	coherent
788.7692	0.0987327188486233	37	systole	10	A	559.276710600066	coherent
788.983	0.0987327188486233	37	systole	11	B	500.0	coherent
789.1967	0.0987327188486233	37	systole	12	A	559.276710600066	coherent
789.6892	0.0987327188486233	37	systole	13	A	559.276710600066	coherent
789.903	0.0987327188486233	37	systole	14	B	500.0	coherent
790.1167	0.0987327188486233	37	systole	15	A	559.276710600066	coherent
790.5392	0.0987327188486233	37	systole	16	A	559.276710600066	coherent
790.753	0.0987327188486233	37	systole	17	B	500.0	coherent
790.9667	0.0987327188486233	37	systole	18	A	559.276710600066	coherent
791.3892	0.0987327188486233	37	systole	19	A	559.276710600066	coherent
791.603	0.0987327188486233	37	systole	20	B	500.0	coherent
791.8167	0.0987327188486233	37	systole	21	A	559.276710600066	coherent
792.2391	0.0987327188486233	37	systole	22	A	559.276710600066	coherent
792.453	0.0987327188486233	37	systole	23	B	500.0	coherent
792.6667	0.0987327188486233	37	systole	24	A	559.276710600066	coherent
793.1465	0.0987327188486233	37	systole	25	A	559.276710600066	coherent
793.3679	0.0987327188486233	37	systole	26	B	500.0	coherent
793.589	0.0987327188486233	37	systole	27	A	559.276710600066	coherent
794.0265	0.0987327188486233	37	systole	28	A	559.276710600066	coherent
794.2478	0.0987327188486233	37	systole	29	B	500.0	coherent
794.469	0.0987327188486233	37	systole	30	A	559.276710600066	coherent
794.9266	0.0987327188486233	37	systole	31	A	559.276710600066	coherent
795.1479	0.0987327188486233	37	systole	32	B	500.0	coherent
795.369	0.0987327188486233	37	systole	33	A	559.276710600066	coherent
795.7127	0.0987327188486233	37	systole	34	A	559.276710600066	coherent
795.9302	0.0987327188486233	37	systole	35	B	500.0	coherent
796.1476	0.0987327188486233	37	systole	36	A	559.276710600066	coherent
798.0454	0.1062509008916094	38	systole	1	A	4665.815755436727	streaming
798.2554	0.1062509008916094	38	systole	2	B	500.0	streaming
798.4654	0.1062509008916094	38	systole	3	A	4665.815755436727	streaming
798.8454	0.1062509008916094	38	systole	4	A	4665.815755436727	streaming
799.0555	0.1062509008916094	38	systole	5	B	500.0	streaming
799.2654	0.1062509008916094	38	systole	6	A	4665.815755436727	streaming
799.6454	0.1062509008916094	38	systole	7	A	4665.815755436727	streaming
799.8555	0.1062509008916094	38	systole	8	B	500.0	streaming
800.0654	0.1062509008916094	38	systole	9	A	4665.815755436727	streaming
800.5051	0.1062509008916094	38	systole	10	A	4665.815755436727	streaming
800.7151	0.1062509008916094	38	systole	11	B	500.0	streaming
800.9251	0.1062509008916094	38	systole	12	A	4665.815755436727	streaming
801.4554	0.1062509008916094	38	systole	13	A	4665.815755436727	streaming
801.6655	0.1062509008916094	38	systole	14	B	500.0	streaming
801.8754	0.1062509008916094	38	systole	15	A	4665.815755436727	streaming
802.265	0.1062509008916094	38	systole	16	A	4665.815755436727	streaming
802.4751	0.1062509008916094	38	systole	17	B	500.0	streaming
802.685	0.1062509008916094	38	systole	18	A	4665.815755436727	streaming
803.0746	0.1062509008916094	38	systole	19	A	4665.815755436727	streaming
803.2847	0.1062509008916094	38	systole	20	B	500.0	streaming
803.4946	0.1062509008916094	38	systole	21	A	4665.815755436727	streaming
803.885	0.1062509008916094	38	systole	22	A	4665.815755436727	streaming
804.0951	0.1062509008916094	38	systole	23	B	500.0	streaming
804.305	0.1062509008916094	38	systole	24	A	4665.815755436727	streaming
804.6954	0.1062509008916094	38	systole	25	A	4665.815755436727	streaming
804.9055	0.1062509008916094	38	systole	26	B	500.0	streaming
805.1154	0.1062509008916094	38	systole	27	A	4665.815755436727	streaming
805.6894	0.1062509008916094	38	systole	28	A	4665.815755436727	streaming
805.9031	0.1062509008916094	38	systole	29	B	500.0	streaming
806.1168	0.1062509008916094	38	systole	30	A	4665.815755436727	streaming
806.5293	0.1062509008916094	38	systole	31	A	4665.815755436727	streaming
806.7431	0.1062509008916094	38	systole	32	B	500.0	streaming
806.9567	0.1062509008916094	38	systole	33	A	4665.815755436727	streaming
807.4346	0.1062509008916094	38	systole	34	A	4665.815755436727	streaming
807.652	0.1062509008916094	38	systole	35	B	500.0	streaming
807.8693	0.1062509008916094	38	systole	36	A	4665.815755436727	streaming
811.6693	0.110604481305927	39	diastole	1	A	928.8333655934664	coherent
811.8901	0.110604481305927	39	diastole	2	B	500.0	coherent
812.1117	0.110604481305927	39	diastole	3	A	928.8333655934664	coherent
812.4593	0.110604481305927	39	diastole	4	A	928.8333655934664	coherent
812.6801	0.110604481305927	39	diastole	5	B	500.0	coherent
812.9017	0.110604481305927	39	diastole	6	A	928.8333655934664	coherent
813.2493	0.110604481305927	39	diastole	7	A	928.8333655934664	coherent
813.4701	0.110604481305927	39	diastole	8	B	500.0	coherent
813.6917	0.110604481305927	39	diastole	9	A	928.8333655934664	coherent
814.1818	0.110604481305927	39	diastole	10	A	928.8333655934664	coherent
814.4066	0.110604481305927	39	diastole	11	B	500.0	coherent
814.6322	0.110604481305927	39	diastole	12	A	928.8333655934664	coherent
815.0073	0.110604481305927	39	diastole	13	A	928.8333655934664	coherent
815.2296	0.110604481305927	39	diastole	14	B	500.0	coherent
815.4527	0.110604481305927	39	diastole	15	A	928.8333655934664	coherent
815.8469	0.110604481305927	39	diastole	16	A	928.8333655934664	coherent
816.0692	0.110604481305927	39	diastole	17	B	500.0	coherent
816.2923	0.110604481305927	39	diastole	18	A	928.8333655934664	coherent
816.5969	0.110604481305927	39	diastole	19	A	928.8333655934664	coherent
816.8192	0.110604481305927	39	diastole	20	B	500.0	coherent
817.0424	0.110604481305927	39	diastole	21	A	928.8333655934664	coherent
817.3003	0.110604481305927	39	diastole	22	A	928.8333655934664	coherent
817.5161	0.110604481305927	39	diastole	23	B	500.0	coherent
817.7327	0.110604481305927	39	diastole	24	A	928.8333655934664	coherent
817.9959	0.110604481305927	39	diastole	25	A	928.8333655934664	coherent
818.1968	0.110604481305927	39	diastole	26	B	500.0	coherent
818.3986	0.110604481305927	39	diastole	27	A	928.8333655934664	coherent
818.776	0.110604481305927	39	diastole	28	A	928.8333655934664	coherent
818.9769	0.110604481305927	39	diastole	29	B	500.0	coherent
819.1786	0.110604481305927	39	diastole	30	A	928.8333655934664	coherent
819.696	0.110604481305927	39	diastole	31	A	928.8333655934664	coherent
819.8969	0.110604481305927	39	diastole	32	B	500.0	coherent
820.0986	0.110604481305927	39	diastole	33	A	928.8333655934664	coherent
826.0986	0.0993949436815455	40	systole	1	A	585.6727451368844	coherent
826.2988	0.0993949436815455	40	systole	2	B	500.0	coherent
826.4987	0.0993949436815455	40	systole	3	A	585.6727451368844	coherent
826.8987	0.0993949436815455	40	systole	4	A	585.6727451368844	coherent
827.0988	0.0993949436815455	40	systole	5	B	500.0	coherent
827.2987	0.0993949436815455	40	systole	6	A	585.6727451368844	coherent
827.6587	0.0993949436815455	40	systole	7	A	585.6727451368844	coherent
827.8588	0.0993949436815455	40	systole	8	B	500.0	coherent
828.0587	0.0993949436815455	40	systole	9	A	585.6727451368844	coherent
828.4087	0.0993949436815455	40	systole	10	A	585.6727451368844	coherent
828.6088	0.0993949436815455	40	systole	11	B	500.0	coherent
828.8087	0.0993949436815455	40	systole	12	A	585.6727451368844	coherent
829.1587	0.0993949436815455	40	systole	13	A	585.6727451368844	coherent
829.3588	0.0993949436815455	40	systole	14	B	500.0	coherent
829.5587	0.0993949436815455	40	systole	15	A	585.6727451368844	coherent
830.0241	0.0993949436815455	40	systole	16	A	585.6727451368844	coherent
830.223	0.0993949436815455	40	systole	17	B	500.0	coherent
830.4216	0.0993949436815455	40	systole	18	A	585.6727451368844	coherent
830.8941	0.0993949436815455	40	systole	19	A	585.6727451368844	coherent
831.093	0.0993949436815455	40	systole	20	B	500.0	coherent
831.2916	0.0993949436815455	40	systole	21	A	585.6727451368844	coherent
831.7425	0.0993949436815455	40	systole	22	A	585.6727451368844	coherent
831.9463	0.0993949436815455	40	systole	23	B	500.0	coherent
832.15	0.0993949436815455	40	systole	24	A	585.6727451368844	coherent
832.5725	0.0993949436815455	40	systole	25	A	585.6727451368844	coherent
832.7764	0.0993949436815455	40	systole	26	B	500.0	coherent
832.9801	0.0993949436815455	40	systole	27	A	585.6727451368844	coherent
833.4325	0.0993949436815455	40	systole	28	A	585.6727451368844	coherent
833.6364	0.0993949436815455	40	systole	29	B	500.0	coherent
833.8401	0.0993949436815455	40	systole	30	A	585.6727451368844	coherent
834.3122	0.0993949436815455	40	systole	31	A	585.6727451368844	coherent
834.516	0.0993949436815455	40	systole	32	B	500.0	coherent
834.7197	0.0993949436815455	40	systole	33	A	585.6727451368844	coherent
835.2297	0.0993949436815455	40	systole	34	A	585.6727451368844	coherent
835.441	0.0993949436815455	40	systole	35	B	500.0	coherent
835.6522	0.0993949436815455	40	systole	36	A	585.6727451368844	coherent
838.6217	0.1093519750284031	41	diastole	1	A	3226.274759109801	streaming
838.8415	0.1093519750284031	41	diastole	2	B	500.0	streaming
839.0615	0.1093519750284031	41	diastole	3	A	3226.274759109801	streaming
839.4018	0.1093519750284031	41	diastole	4	A	3226.274759109801	streaming
839.6216	0.1093519750284031	41	diastole	5	B	500.0	streaming
839.8416	0.1093519750284031	41	diastole	6	A	3226.274759109801	streaming
840.1819	0.1093519750284031	41	diastole	7	A	3226.274759109801	streaming
840.4017	0.1093519750284031	41	diastole	8	B	500.0	streaming
840.6217	0.1093519750284031	41	diastole	9	A	3226.274759109801	streaming
840.9719	0.1093519750284031	41	diastole	10	A	3226.274759109801	streaming
841.1917	0.1093519750284031	41	diastole	11	B	500.0	streaming
841.4117	0.1093519750284031	41	diastole	12	A	3226.274759109801	streaming
841.7619	0.1093519750284031	41	diastole	13	A	3226.274759109801	streaming
841.9817	0.1093519750284031	41	diastole	14	B	500.0	streaming
842.2017	0.1093519750284031	41	diastole	15	A	3226.274759109801	streaming
842.5919	0.1093519750284031	41	diastole	16	A	3226.274759109801	streaming
842.8116	0.1093519750284031	41	diastole	17	B	500.0	streaming
843.0317	0.1093519750284031	41	diastole	18	A	3226.274759109801	streaming
843.3269	0.1093519750284031	41	diastole	19	A	3226.274759109801	streaming
843.5405	0.1093519750284031	41	diastole	20	B	500.0	streaming
843.7543	0.1093519750284031	41	diastole	21	A	3226.274759109801	streaming
844.0235	0.1093519750284031	41	diastole	22	A	3226.274759109801	streaming
844.2258	0.1093519750284031	41	diastole	23	B	500.0	streaming
844.4285	0.1093519750284031	41	diastole	24	A	3226.274759109801	streaming
844.8022	0.1093519750284031	41	diastole	25	A	3226.274759109801	streaming
845.0008	0.1093519750284031	41	diastole	26	B	500.0	streaming
845.1997	0.1093519750284031	41	diastole	27	A	3226.274759109801	streaming
845.6021	0.1093519750284031	41	diastole	28	A	3226.274759109801	streaming
845.8008	0.1093519750284031	41	diastole	29	B	500.0	streaming
845.9996	0.1093519750284031	41	diastole	30	A	3226.274759109801	streaming
846.4822	0.1093519750284031	41	diastole	31	A	3226.274759109801	streaming
846.6808	0.1093519750284031	41	diastole	32	B	500.0	streaming
846.8797	0.1093519750284031	41	diastole	33	A	3226.274759109801	streaming
847.2632	0.1093519750284031	41	diastole	34	A	3226.274759109801	streaming
847.4605	0.1093519750284031	41	diastole	35	B	500.0	streaming
847.6582	0.1093519750284031	41	diastole	36	A	3226.274759109801	streaming
850.6229	0.0999892433173954	42	diastole	1	A	3010.640720484466	streaming
850.8255	0.0999892433173954	42	diastole	2	B	500.0	streaming
851.0279	0.0999892433173954	42	diastole	3	A	3010.640720484466	streaming
851.4429	0.0999892433173954	42	diastole	4	A	3010.640720484466	streaming
851.6454	0.0999892433173954	42	diastole	5	B	500.0	streaming
851.8478	0.0999892433173954	42	diastole	6	A	3010.640720484466	streaming
852.2628	0.0999892433173954	42	diastole	7	A	3010.640720484466	streaming
852.4654	0.0999892433173954	42	diastole	8	B	500.0	streaming
852.6678	0.0999892433173954	42	diastole	9	A	3010.640720484466	streaming
853.0828	0.0999892433173954	42	diastole	10	A	3010.640720484466	streaming
853.2853	0.0999892433173954	42	diastole	11	B	500.0	streaming
853.4878	0.0999892433173954	42	diastole	12	A	3010.640720484466	streaming
853.9	0.0999892433173954	42	diastole	13	A	3010.640720484466	streaming
854.1038	0.0999892433173954	42	diastole	14	B	500.0	streaming
854.3075	0.0999892433173954	42	diastole	15	A	3010.640720484466	streaming
854.68	0.0999892433173954	42	diastole	16	A	3010.640720484466	streaming
854.8838	0.0999892433173954	42	diastole	17	B	500.0	streaming
855.0875	0.0999892433173954	42	diastole	18	A	3010.640720484466	streaming
855.46	0.0999892433173954	42	diastole	19	A	3010.640720484466	streaming
855.6638	0.0999892433173954	42	diastole	20	B	500.0	streaming
855.8675	0.0999892433173954	42	diastole	21	A	3010.640720484466	streaming
856.323	0.0999892433173954	42	diastole	22	A	3010.640720484466	streaming
856.5256	0.0999892433173954	42	diastole	23	B	500.0	streaming
856.728	0.0999892433173954	42	diastole	24	A	3010.640720484466	streaming
857.193	0.0999892433173954	42	diastole	25	A	3010.640720484466	streaming
857.3956	0.0999892433173954	42	diastole	26	B	500.0	streaming
857.598	0.0999892433173954	42	diastole	27	A	3010.640720484466	streaming
858.0129	0.0999892433173954	42	diastole	28	A	3010.640720484466	streaming
858.2155	0.0999892433173954	42	diastole	29	B	500.0	streaming
858.418	0.0999892433173954	42	diastole	30	A	3010.640720484466	streaming
858.7731	0.0999892433173954	42	diastole	31	A	3010.640720484466	streaming
858.9757	0.0999892433173954	42	diastole	32	B	500.0	streaming
859.1781	0.0999892433173954	42	diastole	33	A	3010.640720484466	streaming
859.5627	0.0999892433173954	42	diastole	34	A	3010.640720484466	streaming
859.7653	0.0999892433173954	42	diastole	35	B	500.0	streaming
859.9677	0.0999892433173954	42	diastole	36	A	3010.640720484466	streaming
862.3135	0.1006321938475593	43	systole	1	A	4353.967332736322	streaming
862.5148	0.1006321938475593	43	systole	2	B	500.0	streaming
862.7161	0.1006321938475593	43	systole	3	A	4353.967332736322	streaming
863.1435	0.1006321938475593	43	systole	4	A	4353.967332736322	streaming
863.3448	0.1006321938475593	43	systole	5	B	500.0	streaming
863.5461	0.1006321938475593	43	systole	6	A	4353.967332736322	streaming
863.9735	0.1006321938475593	43	systole	7	A	4353.967332736322	streaming
864.1748	0.1006321938475593	43	systole	8	B	500.0	streaming
864.376	0.1006321938475593	43	systole	9	A	4353.967332736322	streaming
864.8336	0.1006321938475593	43	systole	10	A	4353.967332736322	streaming
865.0348	0.1006321938475593	43	systole	11	B	500.0	streaming
865.2361	0.1006321938475593	43	systole	12	A	4353.967332736322	streaming
865.6936	0.1006321938475593	43	systole	13	A	4353.967332736322	streaming
865.8948	0.1006321938475593	43	systole	14	B	500.0	streaming
866.0961	0.1006321938475593	43	systole	15	A	4353.967332736322	streaming
866.4836	0.1006321938475593	43	systole	16	A	4353.967332736322	streaming
866.6848	0.1006321938475593	43	systole	17	B	500.0	streaming
866.8861	0.1006321938475593	43	systole	18	A	4353.967332736322	streaming
867.2981	0.1006321938475593	43	systole	19	A	4353.967332736322	streaming
867.5006	0.1006321938475593	43	systole	20	B	500.0	streaming
867.7031	0.1006321938475593	43	systole	21	A	4353.967332736322	streaming
