onset	duration	trial_num	trial_type	tone_num	tone_type	frequency	response
42.811100000000124	0.1124683514935895	1	diastole	1	B	500	diastole
43.671100000000024	0.1124683514935895	1	diastole	2	B	500	diastole
44.53099999999995	0.1124683514935895	1	diastole	3	B	500	diastole
45.67970000000014	0.1124683514935895	1	diastole	4	B	500	diastole
46.7197000000001	0.1124683514935895	1	diastole	5	B	500	diastole
47.869699999999966	0.1124683514935895	1	diastole	6	B	500	diastole
48.87979999999993	0.1124683514935895	1	diastole	7	B	500	diastole
49.88850000000002	0.1124683514935895	1	diastole	8	B	500	diastole
50.89170000000013	0.1124683514935895	1	diastole	9	B	500	diastole
61.73530000000005	0.1106229067081585	2	diastole	1	B	500	systole
62.665300000000116	0.1106229067081585	2	diastole	2	B	500	systole
63.48530000000005	0.1106229067081585	2	diastole	3	B	500	systole
64.30529999999999	0.1106229067081585	2	diastole	4	B	500	systole
65.03030000000012	0.1106229067081585	2	diastole	5	B	500	systole
65.88030000000003	0.1106229067081585	2	diastole	6	B	500	systole
66.93690000000015	0.1106229067081585	2	diastole	7	B	500	systole
67.75700000000006	0.1106229067081585	2	diastole	8	B	500	systole
68.57719999999995	0.1106229067081585	2	diastole	9	B	500	systole
69.30549999999994	0.1106229067081585	2	diastole	10	B	500	systole
70.2056	0.1106229067081585	2	diastole	11	B	500	systole
75.08860000000004	0.1087437374517321	3	systole	1	B	500	systole
75.84860000000003	0.1087437374517321	3	systole	2	B	500	systole
76.58860000000004	0.1087437374517321	3	systole	3	B	500	systole
77.26880000000006	0.1087437374517321	3	systole	4	B	500	systole
77.94769999999994	0.1087437374517321	3	systole	5	B	500	systole
78.69600000000014	0.1087437374517321	3	systole	6	B	500	systole
79.53610000000003	0.1087437374517321	3	systole	7	B	500	systole
80.38609999999994	0.1087437374517321	3	systole	8	B	500	systole
81.22610000000009	0.1087437374517321	3	systole	9	B	500	systole
82.02600000000007	0.1087437374517321	3	systole	10	B	500	systole
82.82590000000005	0.1087437374517321	3	systole	11	B	500	systole
83.57600000000002	0.1087437374517321	3	systole	12	B	500	systole
84.34580000000005	0.1087437374517321	3	systole	13	B	500	systole
88.74760000000015	0.1043759235180914	4	systole	1	B	500	systole
89.59760000000006	0.1043759235180914	4	systole	2	B	500	systole
90.3900000000001	0.1043759235180914	4	systole	3	B	500	systole
91.16000000000008	0.1043759235180914	4	systole	4	B	500	systole
91.90000000000009	0.1043759235180914	4	systole	5	B	500	systole
92.64010000000007	0.1043759235180914	4	systole	6	B	500	systole
93.38020000000006	0.1043759235180914	4	systole	7	B	500	systole
94.26040000000012	0.1043759235180914	4	systole	8	B	500	systole
95.14059999999995	0.1043759235180914	4	systole	9	B	500	systole
96.10079999999994	0.1043759235180914	4	systole	10	B	500	systole
96.89910000000009	0.1043759235180914	4	systole	11	B	500	systole
97.70900000000006	0.1043759235180914	4	systole	12	B	500	systole
101.27379999999994	0.1125188444275409	5	diastole	1	B	500	diastole
102.12380000000007	0.1125188444275409	5	diastole	2	B	500	diastole
102.85860000000002	0.1125188444275409	5	diastole	3	B	500	diastole
103.61339999999996	0.1125188444275409	5	diastole	4	B	500	diastole
104.51340000000005	0.1125188444275409	5	diastole	5	B	500	diastole
105.4819	0.1125188444275409	5	diastole	6	B	500	diastole
106.35040000000004	0.1125188444275409	5	diastole	7	B	500	diastole
107.1286	0.1125188444275409	5	diastole	8	B	500	diastole
107.94849999999997	0.1125188444275409	5	diastole	9	B	500	diastole
108.85850000000005	0.1125188444275409	5	diastole	10	B	500	diastole
109.69010000000003	0.1125188444275409	5	diastole	11	B	500	diastole
112.89210000000003	0.1062532829819247	6	diastole	1	B	500	diastole
113.74209999999994	0.1062532829819247	6	diastole	2	B	500	diastole
114.62380000000007	0.1062532829819247	6	diastole	3	B	500	diastole
115.50540000000001	0.1062532829819247	6	diastole	4	B	500	diastole
116.3003000000001	0.1062532829819247	6	diastole	5	B	500	diastole
117.12210000000005	0.1062532829819247	6	diastole	6	B	500	diastole
117.99180000000001	0.1062532829819247	6	diastole	7	B	500	diastole
118.79189999999994	0.1062532829819247	6	diastole	8	B	500	diastole
119.5920000000001	0.1062532829819247	6	diastole	9	B	500	diastole
120.3420000000001	0.1062532829819247	6	diastole	10	B	500	diastole
121.10190000000011	0.1062532829819247	6	diastole	11	B	500	diastole
121.87709999999993	0.1062532829819247	6	diastole	12	B	500	diastole
127.48849999999993	0.1068685486679896	7	diastole	1	B	500	systole
128.35850000000005	0.1068685486679896	7	diastole	2	B	500	systole
129.22839999999997	0.1068685486679896	7	diastole	3	B	500	systole
130.0385000000001	0.1068685486679896	7	diastole	4	B	500	systole
130.84840000000008	0.1068685486679896	7	diastole	5	B	500	systole
131.6717000000001	0.1068685486679896	7	diastole	6	B	500	systole
132.61180000000013	0.1068685486679896	7	diastole	7	B	500	systole
133.59180000000015	0.1068685486679896	7	diastole	8	B	500	systole
134.5217	0.1068685486679896	7	diastole	9	B	500	systole
135.2482	0.1068685486679896	7	diastole	10	B	500	systole
136.05830000000014	0.1068685486679896	7	diastole	11	B	500	systole
140.3818000000001	0.1099942481378093	8	diastole	1	B	500	diastole
141.25160000000005	0.1099942481378093	8	diastole	2	B	500	diastole
142.15340000000015	0.1099942481378093	8	diastole	3	B	500	diastole
143.02330000000006	0.1099942481378093	8	diastole	4	B	500	diastole
143.80349999999999	0.1099942481378093	8	diastole	5	B	500	diastole
144.58359999999993	0.1099942481378093	8	diastole	6	B	500	diastole
145.34349999999995	0.1099942481378093	8	diastole	7	B	500	diastole
146.08349999999996	0.1099942481378093	8	diastole	8	B	500	diastole
146.72379999999998	0.1099942481378093	8	diastole	9	B	500	diastole
147.4638	0.1099942481378093	8	diastole	10	B	500	diastole
148.202	0.1099942481378093	8	diastole	11	B	500	diastole
148.87149999999997	0.1099942481378093	8	diastole	12	B	500	diastole
152.47119999999995	0.0951088245492428	9	systole	1	B	500	systole
153.20849999999996	0.0951088245492428	9	systole	2	B	500	systole
154.00120000000015	0.0951088245492428	9	systole	3	B	500	systole
154.7813000000001	0.0951088245492428	9	systole	4	B	500	systole
155.59370000000013	0.0951088245492428	9	systole	5	B	500	systole
156.34400000000005	0.0951088245492428	9	systole	6	B	500	systole
157.0942	0.0951088245492428	9	systole	7	B	500	systole
157.7967000000001	0.0951088245492428	9	systole	8	B	500	systole
158.51890000000003	0.0951088245492428	9	systole	9	B	500	systole
159.2587000000001	0.0951088245492428	9	systole	10	B	500	systole
160.11889999999994	0.0951088245492428	9	systole	11	B	500	systole
161.09640000000013	0.0951088245492428	9	systole	12	B	500	systole
161.95939999999996	0.0951088245492428	9	systole	13	B	500	systole
165.692	0.1018830111715942	10	diastole	1	B	500	systole
166.45190000000002	0.1018830111715942	10	diastole	2	B	500	systole
167.46000000000004	0.1018830111715942	10	diastole	3	B	500	systole
168.57200000000012	0.1018830111715942	10	diastole	4	B	500	systole
169.61030000000005	0.1018830111715942	10	diastole	5	B	500	systole
170.6486	0.1018830111715942	10	diastole	6	B	500	systole
171.68679999999995	0.1018830111715942	10	diastole	7	B	500	systole
172.60190000000011	0.1018830111715942	10	diastole	8	B	500	systole
173.37360000000012	0.1018830111715942	10	diastole	9	B	500	systole
174.11200000000008	0.1018830111715942	10	diastole	10	B	500	systole
177.81950000000006	0.1311121541075408	11	diastole	1	B	500	diastole
178.84000000000015	0.1311121541075408	11	diastole	2	B	500	diastole
179.59629999999993	0.1311121541075408	11	diastole	3	B	500	diastole
180.15560000000005	0.1311121541075408	11	diastole	4	B	500	diastole
180.91560000000004	0.1311121541075408	11	diastole	5	B	500	diastole
181.68560000000002	0.1311121541075408	11	diastole	6	B	500	diastole
182.62260000000015	0.1311121541075408	11	diastole	7	B	500	diastole
183.60259999999994	0.1311121541075408	11	diastole	8	B	500	diastole
184.57259999999997	0.1311121541075408	11	diastole	9	B	500	diastole
185.44759999999997	0.1311121541075408	11	diastole	10	B	500	diastole
186.34760000000006	0.1311121541075408	11	diastole	11	B	500	diastole
190.44870000000014	0.1106381874997168	12	diastole	1	B	500	systole
191.32860000000005	0.1106381874997168	12	diastole	2	B	500	systole
192.10680000000002	0.1106381874997168	12	diastole	3	B	500	systole
192.92669999999998	0.1106381874997168	12	diastole	4	B	500	systole
193.68510000000015	0.1106381874997168	12	diastole	5	B	500	systole
194.48710000000005	0.1106381874997168	12	diastole	6	B	500	systole
195.4583	0.1106381874997168	12	diastole	7	B	500	systole
196.52160000000003	0.1106381874997168	12	diastole	8	B	500	systole
197.4598000000001	0.1106381874997168	12	diastole	9	B	500	systole
198.3895	0.1106381874997168	12	diastole	10	B	500	systole
199.1531	0.1106381874997168	12	diastole	11	B	500	systole
202.3976	0.1056486506713554	13	systole	1	B	500	systole
203.07730000000015	0.1056486506713554	13	systole	2	B	500	systole
203.75700000000006	0.1056486506713554	13	systole	3	B	500	systole
204.39300000000003	0.1056486506713554	13	systole	4	B	500	systole
205.09310000000005	0.1056486506713554	13	systole	5	B	500	systole
206.18309999999997	0.1056486506713554	13	systole	6	B	500	systole
207.01310000000012	0.1056486506713554	13	systole	7	B	500	systole
207.84310000000005	0.1056486506713554	13	systole	8	B	500	systole
208.5625	0.1056486506713554	13	systole	9	B	500	systole
209.32269999999994	0.1056486506713554	13	systole	10	B	500	systole
210.0942	0.1056486506713554	13	systole	11	B	500	systole
211.02739999999994	0.1056486506713554	13	systole	12	B	500	systole
215.46180000000004	0.0988736101426184	14	systole	1	B	500	systole
216.7219	0.0988736101426184	14	systole	2	B	500	systole
217.73939999999993	0.0988736101426184	14	systole	3	B	500	systole
218.69939999999997	0.0988736101426184	14	systole	4	B	500	systole
219.49430000000007	0.0988736101426184	14	systole	5	B	500	systole
220.29430000000002	0.0988736101426184	14	systole	6	B	500	systole
220.9919	0.0988736101426184	14	systole	7	B	500	systole
221.85609999999997	0.0988736101426184	14	systole	8	B	500	systole
222.72620000000006	0.0988736101426184	14	systole	9	B	500	systole
223.76739999999995	0.0988736101426184	14	systole	10	B	500	systole
224.81639999999993	0.0988736101426184	14	systole	11	B	500	systole
229.55690000000004	0.1055920722428709	15	diastole	1	B	500	systole
230.33640000000014	0.1055920722428709	15	diastole	2	B	500	systole
231.07680000000005	0.1055920722428709	15	diastole	3	B	500	systole
232.11480000000006	0.1055920722428709	15	diastole	4	B	500	systole
233.01510000000007	0.1055920722428709	15	diastole	5	B	500	systole
233.91059999999993	0.1055920722428709	15	diastole	6	B	500	systole
234.85640000000012	0.1055920722428709	15	diastole	7	B	500	systole
235.7763	0.1055920722428709	15	diastole	8	B	500	systole
236.7704000000001	0.1055920722428709	15	diastole	9	B	500	systole
237.72350000000006	0.1055920722428709	15	diastole	10	B	500	systole
241.4072000000001	0.1106556375743821	16	systole	1	B	500	systole
242.2573	0.1106556375743821	16	systole	2	B	500	systole
243.0693000000001	0.1106556375743821	16	systole	3	B	500	systole
243.89869999999996	0.1106556375743821	16	systole	4	B	500	systole
244.77819999999997	0.1106556375743821	16	systole	5	B	500	systole
245.65660000000003	0.1106556375743821	16	systole	6	B	500	systole
246.53510000000006	0.1106556375743821	16	systole	7	B	500	systole
247.35889999999995	0.1106556375743821	16	systole	8	B	500	systole
248.10910000000013	0.1106556375743821	16	systole	9	B	500	systole
248.87900000000013	0.1106556375743821	16	systole	10	B	500	systole
249.64879999999994	0.1106556375743821	16	systole	11	B	500	systole
250.56780000000003	0.1106556375743821	16	systole	12	B	500	systole
253.70900000000006	0.1018610554747283	17	systole	1	B	500	diastole
254.46219999999994	0.1018610554747283	17	systole	2	B	500	diastole
255.21219999999994	0.1018610554747283	17	systole	3	B	500	diastole
255.96219999999994	0.1018610554747283	17	systole	4	B	500	diastole
256.65650000000005	0.1018610554747283	17	systole	5	B	500	diastole
257.35030000000006	0.1018610554747283	17	systole	6	B	500	diastole
258.03420000000006	0.1018610554747283	17	systole	7	B	500	diastole
258.70859999999993	0.1018610554747283	17	systole	8	B	500	diastole
259.41059999999993	0.1018610554747283	17	systole	9	B	500	diastole
260.1911	0.1018610554747283	17	systole	10	B	500	diastole
260.92509999999993	0.1018610554747283	17	systole	11	B	500	diastole
261.66509999999994	0.1018610554747283	17	systole	12	B	500	diastole
262.405	0.1018610554747283	17	systole	13	B	500	diastole
263.0974000000001	0.1018610554747283	17	systole	14	B	500	diastole
266.8616999999999	0.086850368999876	18	diastole	1	B	500	systole
267.7319	0.086850368999876	18	diastole	2	B	500	systole
268.49220000000014	0.086850368999876	18	diastole	3	B	500	systole
269.22050000000013	0.086850368999876	18	diastole	4	B	500	systole
269.93730000000005	0.086850368999876	18	diastole	5	B	500	systole
270.6372000000001	0.086850368999876	18	diastole	6	B	500	systole
271.32730000000015	0.086850368999876	18	diastole	7	B	500	systole
272.13740000000007	0.086850368999876	18	diastole	8	B	500	systole
273.57089999999994	0.086850368999876	18	diastole	9	B	500	systole
274.7391	0.086850368999876	18	diastole	10	B	500	systole
275.89920000000006	0.086850368999876	18	diastole	11	B	500	systole
280.77480000000014	0.1163279552711173	19	diastole	1	B	500	systole
281.7043000000001	0.1163279552711173	19	diastole	2	B	500	systole
282.63380000000006	0.1163279552711173	19	diastole	3	B	500	systole
283.6839	0.1163279552711173	19	diastole	4	B	500	systole
284.7341000000001	0.1163279552711173	19	diastole	5	B	500	systole
285.69409999999993	0.1163279552711173	19	diastole	6	B	500	systole
286.4480000000001	0.1163279552711173	19	diastole	7	B	500	systole
287.22800000000007	0.1163279552711173	19	diastole	8	B	500	systole
287.94180000000006	0.1163279552711173	19	diastole	9	B	500	systole
288.76800000000003	0.1163279552711173	19	diastole	10	B	500	systole
295.0169000000001	0.1225005681626498	20	systole	1	B	500	systole
295.81860000000006	0.1225005681626498	20	systole	2	B	500	systole
296.6204	0.1225005681626498	20	systole	3	B	500	systole
297.4003	0.1225005681626498	20	systole	4	B	500	systole
298.1803	0.1225005681626498	20	systole	5	B	500	systole
298.9370000000001	0.1225005681626498	20	systole	6	B	500	systole
299.7871	0.1225005681626498	20	systole	7	B	500	systole
300.43730000000005	0.1225005681626498	20	systole	8	B	500	systole
301.21540000000005	0.1225005681626498	20	systole	9	B	500	systole
302.20540000000005	0.1225005681626498	20	systole	10	B	500	systole
303.19550000000004	0.1225005681626498	20	systole	11	B	500	systole
307.77700000000004	0.1050043191062286	21	systole	1	B	500	diastole
308.76700000000005	0.1050043191062286	21	systole	2	B	500	diastole
309.7569000000001	0.1050043191062286	21	systole	3	B	500	diastole
310.5567000000001	0.1050043191062286	21	systole	4	B	500	diastole
311.56510000000003	0.1050043191062286	21	systole	5	B	500	diastole
312.6116999999999	0.1050043191062286	21	systole	6	B	500	diastole
313.61159999999995	0.1050043191062286	21	systole	7	B	500	diastole
314.56819999999993	0.1050043191062286	21	systole	8	B	500	diastole
315.4782	0.1050043191062286	21	systole	9	B	500	diastole
316.32809999999995	0.1050043191062286	21	systole	10	B	500	diastole
320.24	0.1174958308693021	22	diastole	1	B	500	diastole
321.10990000000015	0.1174958308693021	22	diastole	2	B	500	diastole
321.81989999999996	0.1174958308693021	22	diastole	3	B	500	diastole
322.62979999999993	0.1174958308693021	22	diastole	4	B	500	diastole
323.35480000000007	0.1174958308693021	22	diastole	5	B	500	diastole
324.05999999999995	0.1174958308693021	22	diastole	6	B	500	diastole
324.78999999999996	0.1174958308693021	22	diastole	7	B	500	diastole
325.48810000000003	0.1174958308693021	22	diastole	8	B	500	diastole
326.22810000000004	0.1174958308693021	22	diastole	9	B	500	diastole
327.49800000000005	0.1174958308693021	22	diastole	10	B	500	diastole
328.5081	0.1174958308693021	22	diastole	11	B	500	diastole
329.2564	0.1174958308693021	22	diastole	12	B	500	diastole
333.1970000000001	0.1075059133581817	23	diastole	1	B	500	systole
334.06539999999995	0.1075059133581817	23	diastole	2	B	500	systole
335.0454	0.1075059133581817	23	diastole	3	B	500	systole
336.0253	0.1075059133581817	23	diastole	4	B	500	systole
336.86580000000004	0.1075059133581817	23	diastole	5	B	500	systole
337.7062000000001	0.1075059133581817	23	diastole	6	B	500	systole
338.60270000000014	0.1075059133581817	23	diastole	7	B	500	systole
339.69409999999993	0.1075059133581817	23	diastole	8	B	500	systole
340.92409999999995	0.1075059133581817	23	diastole	9	B	500	systole
341.8778	0.1075059133581817	23	diastole	10	B	500	systole
346.5742	0.1243621642934158	24	systole	1	B	500	diastole
347.39419999999996	0.1243621642934158	24	systole	2	B	500	diastole
348.14779999999996	0.1243621642934158	24	systole	3	B	500	diastole
348.83529999999996	0.1243621642934158	24	systole	4	B	500	diastole
349.5752	0.1243621642934158	24	systole	5	B	500	diastole
350.21350000000007	0.1243621642934158	24	systole	6	B	500	diastole
350.9086	0.1243621642934158	24	systole	7	B	500	diastole
351.6386	0.1243621642934158	24	systole	8	B	500	diastole
352.98860000000013	0.1243621642934158	24	systole	9	B	500	diastole
354.33860000000004	0.1243621642934158	24	systole	10	B	500	diastole
355.68870000000015	0.1243621642934158	24	systole	11	B	500	diastole
360.61349999999993	0.1125030972762033	25	systole	1	B	500	systole
361.4334000000001	0.1125030972762033	25	systole	2	B	500	systole
362.20589999999993	0.1125030972762033	25	systole	3	B	500	systole
363.0258000000001	0.1125030972762033	25	systole	4	B	500	systole
363.8457000000001	0.1125030972762033	25	systole	5	B	500	systole
364.60570000000007	0.1125030972762033	25	systole	6	B	500	systole
365.3396	0.1125030972762033	25	systole	7	B	500	systole
366.30960000000005	0.1125030972762033	25	systole	8	B	500	systole
367.2796000000001	0.1125030972762033	25	systole	9	B	500	systole
368.3293000000001	0.1125030972762033	25	systole	10	B	500	systole
369.24469999999997	0.1125030972762033	25	systole	11	B	500	systole
373.49530000000004	0.1156394525896757	26	systole	1	B	500	diastole
374.48530000000005	0.1156394525896757	26	systole	2	B	500	diastole
375.4352000000001	0.1156394525896757	26	systole	3	B	500	diastole
376.23350000000005	0.1156394525896757	26	systole	4	B	500	diastole
377.0435	0.1156394525896757	26	systole	5	B	500	diastole
377.76099999999997	0.1156394525896757	26	systole	6	B	500	diastole
378.4402	0.1156394525896757	26	systole	7	B	500	diastole
379.0911000000001	0.1156394525896757	26	systole	8	B	500	diastole
379.7202	0.1156394525896757	26	systole	9	B	500	diastole
380.365	0.1156394525896757	26	systole	10	B	500	diastole
381.23160000000007	0.1156394525896757	26	systole	11	B	500	diastole
382.12149999999997	0.1156394525896757	26	systole	12	B	500	diastole
386.7809	0.0993821105221286	27	systole	1	B	500	diastole
387.501	0.0993821105221286	27	systole	2	B	500	diastole
388.2211	0.0993821105221286	27	systole	3	B	500	diastole
388.9412	0.0993821105221286	27	systole	4	B	500	diastole
389.6119000000001	0.0993821105221286	27	systole	5	B	500	diastole
390.3120000000001	0.0993821105221286	27	systole	6	B	500	diastole
390.9801	0.0993821105221286	27	systole	7	B	500	diastole
391.6412	0.0993821105221286	27	systole	8	B	500	diastole
392.29380000000015	0.0993821105221286	27	systole	9	B	500	diastole
392.97209999999995	0.0993821105221286	27	systole	10	B	500	diastole
393.66070000000013	0.0993821105221286	27	systole	11	B	500	diastole
394.4706000000001	0.0993821105221286	27	systole	12	B	500	diastole
395.32050000000004	0.0993821105221286	27	systole	13	B	500	diastole
396.2305000000001	0.0993821105221286	27	systole	14	B	500	diastole
399.28	0.1000065612606704	28	systole	1	B	500	systole
400.2835	0.1000065612606704	28	systole	2	B	500	systole
401.19229999999993	0.1000065612606704	28	systole	3	B	500	systole
401.9927	0.1000065612606704	28	systole	4	B	500	systole
402.92150000000015	0.1000065612606704	28	systole	5	B	500	systole
403.8212000000001	0.1000065612606704	28	systole	6	B	500	systole
404.8914	0.1000065612606704	28	systole	7	B	500	systole
405.9616000000001	0.1000065612606704	28	systole	8	B	500	systole
406.84169999999995	0.1000065612606704	28	systole	9	B	500	systole
407.72170000000006	0.1000065612606704	28	systole	10	B	500	systole
408.71180000000027	0.1000065612606704	28	systole	11	B	500	systole
411.04020000000014	0.1099986778572201	29	systole	1	B	500	diastole
411.7301	0.1099986778572201	29	systole	2	B	500	diastole
412.43840000000023	0.1099986778572201	29	systole	3	B	500	diastole
413.1400000000001	0.1099986778572201	29	systole	4	B	500	diastole
413.8999000000001	0.1099986778572201	29	systole	5	B	500	diastole
414.6416999999999	0.1099986778572201	29	systole	6	B	500	diastole
415.3801000000001	0.1099986778572201	29	systole	7	B	500	diastole
416.1042	0.1099986778572201	29	systole	8	B	500	diastole
416.7926	0.1099986778572201	29	systole	9	B	500	diastole
417.49260000000027	0.1099986778572201	29	systole	10	B	500	diastole
418.16920000000005	0.1099986778572201	29	systole	11	B	500	diastole
418.8691000000001	0.1099986778572201	29	systole	12	B	500	diastole
419.5690000000002	0.1099986778572201	29	systole	13	B	500	diastole
420.269	0.1099986778572201	29	systole	14	B	500	diastole
423.6542999999999	0.0868760560406372	30	systole	1	B	500	systole
424.3641	0.0868760560406372	30	systole	2	B	500	systole
425.1998000000001	0.0868760560406372	30	systole	3	B	500	systole
426.0296999999998	0.0868760560406372	30	systole	4	B	500	systole
426.8596	0.0868760560406372	30	systole	5	B	500	systole
427.73389999999995	0.0868760560406372	30	systole	6	B	500	systole
428.60230000000024	0.0868760560406372	30	systole	7	B	500	systole
429.5276000000001	0.0868760560406372	30	systole	8	B	500	systole
430.3808999999999	0.0868760560406372	30	systole	9	B	500	systole
431.42150000000015	0.0868760560406372	30	systole	10	B	500	systole
432.46090000000027	0.0868760560406372	30	systole	11	B	500	systole
435.55759999999987	0.1118842943105846	31	systole	1	B	500	systole
436.3677	0.1118842943105846	31	systole	2	B	500	systole
437.22810000000004	0.1118842943105846	31	systole	3	B	500	systole
438.11760000000027	0.1118842943105846	31	systole	4	B	500	systole
439.48090000000025	0.1118842943105846	31	systole	5	B	500	systole
440.3952999999999	0.1118842943105846	31	systole	6	B	500	systole
441.3153	0.1118842943105846	31	systole	7	B	500	systole
442.2176000000002	0.1118842943105846	31	systole	8	B	500	systole
443.13760000000025	0.1118842943105846	31	systole	9	B	500	systole
444.06769999999983	0.1118842943105846	31	systole	10	B	500	systole
448.01520000000005	0.115006610401906	32	diastole	1	B	500	systole
449.1652999999999	0.115006610401906	32	diastole	2	B	500	systole
450.3153	0.115006610401906	32	diastole	3	B	500	systole
451.3138999999999	0.115006610401906	32	diastole	4	B	500	systole
452.30410000000006	0.115006610401906	32	diastole	5	B	500	systole
453.29420000000005	0.115006610401906	32	diastole	6	B	500	systole
454.26080000000024	0.115006610401906	32	diastole	7	B	500	systole
455.01250000000005	0.115006610401906	32	diastole	8	B	500	systole
455.77250000000026	0.115006610401906	32	diastole	9	B	500	systole
460.84690000000023	0.1093556191772222	33	diastole	1	B	500	diastole
461.5004999999999	0.1093556191772222	33	diastole	2	B	500	diastole
462.2003000000002	0.1093556191772222	33	diastole	3	B	500	diastole
462.89999999999986	0.1093556191772222	33	diastole	4	B	500	diastole
463.5899999999999	0.1093556191772222	33	diastole	5	B	500	diastole
464.2699	0.1093556191772222	33	diastole	6	B	500	diastole
464.8702999999998	0.1093556191772222	33	diastole	7	B	500	diastole
465.92989999999986	0.1093556191772222	33	diastole	8	B	500	diastole
466.77009999999996	0.1093556191772222	33	diastole	9	B	500	diastole
467.64999999999986	0.1093556191772222	33	diastole	10	B	500	diastole
468.53	0.1093556191772222	33	diastole	11	B	500	diastole
469.6162999999999	0.1093556191772222	33	diastole	12	B	500	diastole
472.8976	0.1075054340763017	34	systole	1	B	500	systole
473.9375000000002	0.1075054340763017	34	systole	2	B	500	systole
474.9774	0.1075054340763017	34	systole	3	B	500	systole
476.0173000000002	0.1075054340763017	34	systole	4	B	500	systole
476.98490000000015	0.1075054340763017	34	systole	5	B	500	systole
477.9523999999999	0.1075054340763017	34	systole	6	B	500	systole
478.9082000000001	0.1075054340763017	34	systole	7	B	500	systole
479.8181000000002	0.1075054340763017	34	systole	8	B	500	systole
480.6481000000001	0.1075054340763017	34	systole	9	B	500	systole
481.47799999999984	0.1075054340763017	34	systole	10	B	500	systole
485.6969999999999	0.1187501460080966	35	systole	1	B	500	systole
486.7452999999998	0.1187501460080966	35	systole	2	B	500	systole
487.7936000000002	0.1187501460080966	35	systole	3	B	500	systole
488.5631000000001	0.1187501460080966	35	systole	4	B	500	systole
489.3434	0.1187501460080966	35	systole	5	B	500	systole
490.1034000000002	0.1187501460080966	35	systole	6	B	500	systole
490.88289999999984	0.1187501460080966	35	systole	7	B	500	systole
491.5355000000002	0.1187501460080966	35	systole	8	B	500	systole
492.1310000000001	0.1187501460080966	35	systole	9	B	500	systole
492.83140000000026	0.1187501460080966	35	systole	10	B	500	systole
493.5319000000002	0.1187501460080966	35	systole	11	B	500	systole
498.64030000000025	0.0875123962759971	36	systole	1	B	500	diastole
499.4502	0.0875123962759971	36	systole	2	B	500	diastole
500.21310000000017	0.0875123962759971	36	systole	3	B	500	diastole
500.9529	0.0875123962759971	36	systole	4	B	500	diastole
501.6847	0.0875123962759971	36	systole	5	B	500	diastole
502.4046999999998	0.0875123962759971	36	systole	6	B	500	diastole
503.0948999999998	0.0875123962759971	36	systole	7	B	500	diastole
503.78469999999993	0.0875123962759971	36	systole	8	B	500	diastole
504.4548000000002	0.0875123962759971	36	systole	9	B	500	diastole
505.1250000000002	0.0875123962759971	36	systole	10	B	500	diastole
505.79499999999985	0.0875123962759971	36	systole	11	B	500	diastole
506.405	0.0875123962759971	36	systole	12	B	500	diastole
507.07500000000005	0.0875123962759971	36	systole	13	B	500	diastole
507.7848999999999	0.0875123962759971	36	systole	14	B	500	diastole
508.49480000000017	0.0875123962759971	36	systole	15	B	500	diastole
511.1685	0.0849979355698451	37	systole	1	B	500	diastole
511.9685000000002	0.0849979355698451	37	systole	2	B	500	diastole
512.7891000000002	0.0849979355698451	37	systole	3	B	500	diastole
513.6141	0.0849979355698451	37	systole	4	B	500	diastole
514.4040000000002	0.0849979355698451	37	systole	5	B	500	diastole
515.5132000000001	0.0849979355698451	37	systole	6	B	500	diastole
516.6391000000001	0.0849979355698451	37	systole	7	B	500	diastole
517.7592000000002	0.0849979355698451	37	systole	8	B	500	diastole
518.8792999999998	0.0849979355698451	37	systole	9	B	500	diastole
519.8608999999999	0.0849979355698451	37	systole	10	B	500	diastole
520.8309999999999	0.0849979355698451	37	systole	11	B	500	diastole
524.7032999999999	0.1199978125514462	38	diastole	1	B	500	diastole
525.5249999999999	0.1199978125514462	38	diastole	2	B	500	diastole
526.2018	0.1199978125514462	38	diastole	3	B	500	diastole
526.9619	0.1199978125514462	38	diastole	4	B	500	diastole
527.6368	0.1199978125514462	38	diastole	5	B	500	diastole
528.45	0.1199978125514462	38	diastole	6	B	500	diastole
529.4001000000001	0.1199978125514462	38	diastole	7	B	500	diastole
530.1852999999999	0.1199978125514462	38	diastole	8	B	500	diastole
530.9954	0.1199978125514462	38	diastole	9	B	500	diastole
531.8055999999999	0.1199978125514462	38	diastole	10	B	500	diastole
532.6157000000001	0.1199978125514462	38	diastole	11	B	500	diastole
540.7625	0.1026068549836054	39	systole	1	B	500	systole
541.5125	0.1026068549836054	39	systole	2	B	500	systole
542.2625	0.1026068549836054	39	systole	3	B	500	systole
543.0045000000002	0.1026068549836054	39	systole	4	B	500	systole
543.7924	0.1026068549836054	39	systole	5	B	500	systole
544.7102000000002	0.1026068549836054	39	systole	6	B	500	systole
545.6101000000001	0.1026068549836054	39	systole	7	B	500	systole
546.4474000000002	0.1026068549836054	39	systole	8	B	500	systole
547.3275000000001	0.1026068549836054	39	systole	9	B	500	systole
548.2974000000002	0.1026068549836054	39	systole	10	B	500	systole
549.2924	0.1026068549836054	39	systole	11	B	500	systole
550.2524000000001	0.1026068549836054	39	systole	12	B	500	systole
553.5849000000001	0.104381617042236	40	diastole	1	B	500	systole
554.2450999999999	0.104381617042236	40	diastole	2	B	500	systole
554.9552000000001	0.104381617042236	40	diastole	3	B	500	systole
555.6717999999998	0.104381617042236	40	diastole	4	B	500	systole
556.6618000000001	0.104381617042236	40	diastole	5	B	500	systole
557.6519000000001	0.104381617042236	40	diastole	6	B	500	systole
558.642	0.104381617042236	40	diastole	7	B	500	systole
559.722	0.104381617042236	40	diastole	8	B	500	systole
560.8019999999999	0.104381617042236	40	diastole	9	B	500	systole
561.8551	0.104381617042236	40	diastole	10	B	500	systole
566.5782000000002	0.1143707761075347	41	diastole	1	B	500	systole
567.3633000000002	0.1143707761075347	41	diastole	2	B	500	systole
568.1732	0.1143707761075347	41	diastole	3	B	500	systole
569.0364000000002	0.1143707761075347	41	diastole	4	B	500	systole
570.0530999999999	0.1143707761075347	41	diastole	5	B	500	systole
571.0532000000001	0.1143707761075347	41	diastole	6	B	500	systole
571.8880999999999	0.1143707761075347	41	diastole	7	B	500	systole
572.8550000000002	0.1143707761075347	41	diastole	8	B	500	systole
573.8052	0.1143707761075347	41	diastole	9	B	500	systole
574.7574999999999	0.1143707761075347	41	diastole	10	B	500	systole
579.6983000000002	0.1075016756076365	42	diastole	1	B	500	diastole
580.4582000000003	0.1075016756076365	42	diastole	2	B	500	diastole
580.7855000000002	0.1075016756076365	42	diastole	3	B	500	diastole
581.1816999999999	0.1075016756076365	42	diastole	4	B	500	diastole
581.8667000000003	0.1075016756076365	42	diastole	5	B	500	diastole
582.5764999999999	0.1075016756076365	42	diastole	6	B	500	diastole
583.2502000000002	0.1075016756076365	42	diastole	7	B	500	diastole
584.1602	0.1075016756076365	42	diastole	8	B	500	diastole
585.0968	0.1075016756076365	42	diastole	9	B	500	diastole
586.0168999999999	0.1075016756076365	42	diastole	10	B	500	diastole
586.9370000000001	0.1075016756076365	42	diastole	11	B	500	diastole
587.7590000000002	0.1075016756076365	42	diastole	12	B	500	diastole
590.4770000000001	0.0957210683263838	43	systole	1	B	500	systole
591.3869000000002	0.0957210683263838	43	systole	2	B	500	systole
592.2169000000001	0.0957210683263838	43	systole	3	B	500	systole
592.9485000000002	0.0957210683263838	43	systole	4	B	500	systole
593.6985999999999	0.0957210683263838	43	systole	5	B	500	systole
594.4388000000001	0.0957210683263838	43	systole	6	B	500	systole
595.1789999999999	0.0957210683263838	43	systole	7	B	500	systole
595.9863000000003	0.0957210683263838	43	systole	8	B	500	systole
596.7763000000002	0.0957210683263838	43	systole	9	B	500	systole
597.6054999999999	0.0957210683263838	43	systole	10	B	500	systole
598.4170999999999	0.0957210683263838	43	systole	11	B	500	systole
599.4469999999999	0.0957210683263838	43	systole	12	B	500	systole
600.3365999999999	0.0957210683263838	43	systole	13	B	500	systole
603.7122000000002	0.0975269143236801	44	diastole	1	B	500	systole
604.4323999999999	0.0975269143236801	44	diastole	2	B	500	systole
605.1236000000001	0.0975269143236801	44	diastole	3	B	500	systole
605.8199999999999	0.0975269143236801	44	diastole	4	B	500	systole
606.55	0.0975269143236801	44	diastole	5	B	500	systole
607.5204000000001	0.0975269143236801	44	diastole	6	B	500	systole
608.3700999999999	0.0975269143236801	44	diastole	7	B	500	systole
609.2704000000001	0.0975269143236801	44	diastole	8	B	500	systole
610.1708000000001	0.0975269143236801	44	diastole	9	B	500	systole
611.0710999999999	0.0975269143236801	44	diastole	10	B	500	systole
612.1025000000002	0.0975269143236801	44	diastole	11	B	500	systole
614.5651	0.1087616272270679	45	systole	1	B	500	systole
615.3050000000001	0.1087616272270679	45	systole	2	B	500	systole
616.0449000000001	0.1087616272270679	45	systole	3	B	500	systole
616.749	0.1087616272270679	45	systole	4	B	500	systole
617.4556	0.1087616272270679	45	systole	5	B	500	systole
618.1857000000002	0.1087616272270679	45	systole	6	B	500	systole
618.8599000000002	0.1087616272270679	45	systole	7	B	500	systole
619.6499000000001	0.1087616272270679	45	systole	8	B	500	systole
620.4399000000001	0.1087616272270679	45	systole	9	B	500	systole
621.5599	0.1087616272270679	45	systole	10	B	500	systole
622.6798999999999	0.1087616272270679	45	systole	11	B	500	systole
623.6398999999999	0.1087616272270679	45	systole	12	B	500	systole
626.3799000000001	0.0975022099446505	46	diastole	1	B	500	diastole
627.3599000000002	0.0975022099446505	46	diastole	2	B	500	diastole
628.2899	0.0975022099446505	46	diastole	3	B	500	diastole
629.0699000000002	0.0975022099446505	46	diastole	4	B	500	diastole
629.8199000000002	0.0975022099446505	46	diastole	5	B	500	diastole
630.4817	0.0975022099446505	46	diastole	6	B	500	diastole
631.2165000000002	0.0975022099446505	46	diastole	7	B	500	diastole
631.9764000000002	0.0975022099446505	46	diastole	8	B	500	diastole
632.7864999999999	0.0975022099446505	46	diastole	9	B	500	diastole
633.5966000000001	0.0975022099446505	46	diastole	10	B	500	diastole
634.3574000000001	0.0975022099446505	46	diastole	11	B	500	diastole
635.1346000000001	0.0975022099446505	46	diastole	12	B	500	diastole
640.7958999999998	0.1012598625384271	47	systole	1	B	500	systole
641.5624	0.1012598625384271	47	systole	2	B	500	systole
642.4723000000001	0.1012598625384271	47	systole	3	B	500	systole
643.5874999999999	0.1012598625384271	47	systole	4	B	500	systole
644.6897999999999	0.1012598625384271	47	systole	5	B	500	systole
645.7396999999999	0.1012598625384271	47	systole	6	B	500	systole
646.6863000000001	0.1012598625384271	47	systole	7	B	500	systole
647.7189000000001	0.1012598625384271	47	systole	8	B	500	systole
648.6989999999998	0.1012598625384271	47	systole	9	B	500	systole
649.7492	0.1012598625384271	47	systole	10	B	500	systole
653.5357000000001	0.1256153375143185	48	systole	1	B	500	diastole
654.4257	0.1256153375143185	48	systole	2	B	500	diastole
655.1582000000001	0.1256153375143185	48	systole	3	B	500	diastole
655.9080999999999	0.1256153375143185	48	systole	4	B	500	diastole
656.6580999999999	0.1256153375143185	48	systole	5	B	500	diastole
657.3896000000002	0.1256153375143185	48	systole	6	B	500	diastole
658.1578999999999	0.1256153375143185	48	systole	7	B	500	diastole
658.9676999999999	0.1256153375143185	48	systole	8	B	500	diastole
659.7046000000003	0.1256153375143185	48	systole	9	B	500	diastole
660.5047000000002	0.1256153375143185	48	systole	10	B	500	diastole
661.2122000000002	0.1256153375143185	48	systole	11	B	500	diastole
661.8648000000001	0.1256153375143185	48	systole	12	B	500	diastole
662.2915	0.1256153375143185	48	systole	13	B	500	diastole
665.1834000000001	0.0862636331003159	49	diastole	1	B	500	diastole
665.9516000000001	0.0862636331003159	49	diastole	2	B	500	diastole
666.7265	0.0862636331003159	49	diastole	3	B	500	diastole
667.4766000000002	0.0862636331003159	49	diastole	4	B	500	diastole
668.2983000000002	0.0862636331003159	49	diastole	5	B	500	diastole
669.0782000000002	0.0862636331003159	49	diastole	6	B	500	diastole
670.0416000000002	0.0862636331003159	49	diastole	7	B	500	diastole
671.0264	0.0862636331003159	49	diastole	8	B	500	diastole
671.9215999999999	0.0862636331003159	49	diastole	9	B	500	diastole
672.7749999999999	0.0862636331003159	49	diastole	10	B	500	diastole
673.6200000000001	0.0862636331003159	49	diastole	11	B	500	diastole
676.4732999999999	0.1087571248644962	50	diastole	1	B	500	systole
677.7232999999999	0.1087571248644962	50	diastole	2	B	500	systole
678.8562	0.1087571248644962	50	diastole	3	B	500	systole
679.9394	0.1087571248644962	50	diastole	4	B	500	systole
680.9894000000002	0.1087571248644962	50	diastole	5	B	500	systole
682.1751999999999	0.1087571248644962	50	diastole	6	B	500	systole
683.3568000000002	0.1087571248644962	50	diastole	7	B	500	systole
684.3068000000001	0.1087571248644962	50	diastole	8	B	500	systole
685.2771	0.1087571248644962	50	diastole	9	B	500	systole
688.2783000000002	0.1237110024085268	51	diastole	1	B	500	diastole
689.0285000000001	0.1237110024085268	51	diastole	2	B	500	diastole
689.7336000000003	0.1237110024085268	51	diastole	3	B	500	diastole
690.5984000000001	0.1237110024085268	51	diastole	4	B	500	diastole
691.6184000000001	0.1237110024085268	51	diastole	5	B	500	diastole
692.4215000000002	0.1237110024085268	51	diastole	6	B	500	diastole
693.2913999999998	0.1237110024085268	51	diastole	7	B	500	diastole
694.1814000000002	0.1237110024085268	51	diastole	8	B	500	diastole
695.0616000000002	0.1237110024085268	51	diastole	9	B	500	diastole
695.9732000000001	0.1237110024085268	51	diastole	10	B	500	diastole
696.8430999999998	0.1237110024085268	51	diastole	11	B	500	diastole
701.1333000000002	0.1125052126590162	52	diastole	1	B	500	systole
702.1533999999999	0.1125052126590162	52	diastole	2	B	500	systole
703.1733999999999	0.1125052126590162	52	diastole	3	B	500	systole
704.3066000000001	0.1125052126590162	52	diastole	4	B	500	systole
705.3066000000001	0.1125052126590162	52	diastole	5	B	500	systole
706.3397000000002	0.1125052126590162	52	diastole	6	B	500	systole
707.3098000000002	0.1125052126590162	52	diastole	7	B	500	systole
708.3948000000003	0.1125052126590162	52	diastole	8	B	500	systole
709.5216000000003	0.1125052126590162	52	diastole	9	B	500	systole
714.0507	0.1287412293022498	53	systole	1	B	500	diastole
715.0707	0.1287412293022498	53	systole	2	B	500	diastole
716.0907	0.1287412293022498	53	systole	3	B	500	diastole
717.1822	0.1287412293022498	53	systole	4	B	500	diastole
718.0907	0.1287412293022498	53	systole	5	B	500	diastole
719.1050000000002	0.1287412293022498	53	systole	6	B	500	diastole
720.1090999999999	0.1287412293022498	53	systole	7	B	500	diastole
721.0431999999998	0.1287412293022498	53	systole	8	B	500	diastole
721.9831000000001	0.1287412293022498	53	systole	9	B	500	diastole
722.7872	0.1287412293022498	53	systole	10	B	500	diastole
725.0781	0.0712442325893789	54	systole	1	B	500	diastole
725.7282000000002	0.0712442325893789	54	systole	2	B	500	diastole
726.3783999999998	0.0712442325893789	54	systole	3	B	500	diastole
727.0285000000001	0.0712442325893789	54	systole	4	B	500	diastole
727.2493999999999	0.0712442325893789	54	systole	5	B	500	diastole
727.7756999999999	0.0712442325893789	54	systole	6	B	500	diastole
728.2540999999999	0.0712442325893789	54	systole	7	B	500	diastole
728.7441999999999	0.0712442325893789	54	systole	8	B	500	diastole
729.4930999999999	0.0712442325893789	54	systole	9	B	500	diastole
730.1531000000002	0.0712442325893789	54	systole	10	B	500	diastole
730.8131000000001	0.0712442325893789	54	systole	11	B	500	diastole
731.5762000000002	0.0712442325893789	54	systole	12	B	500	diastole
732.2461000000001	0.0712442325893789	54	systole	13	B	500	diastole
732.9159999999999	0.0712442325893789	54	systole	14	B	500	diastole
733.6427999999999	0.0712442325893789	54	systole	15	B	500	diastole
734.3185999999998	0.0712442325893789	54	systole	16	B	500	diastole
734.9885000000002	0.0712442325893789	54	systole	17	B	500	diastole
737.0132000000001	0.0831226335139945	55	systole	1	B	500	diastole
737.6232000000002	0.0831226335139945	55	systole	2	B	500	diastole
738.2313999999999	0.0831226335139945	55	systole	3	B	500	diastole
738.8197000000002	0.0831226335139945	55	systole	4	B	500	diastole
739.4197000000001	0.0831226335139945	55	systole	5	B	500	diastole
740.0024000000001	0.0831226335139945	55	systole	6	B	500	diastole
740.6526000000001	0.0831226335139945	55	systole	7	B	500	diastole
741.9824000000001	0.0831226335139945	55	systole	8	B	500	diastole
743.0524000000003	0.0831226335139945	55	systole	9	B	500	diastole
744.1524000000002	0.0831226335139945	55	systole	10	B	500	diastole
745.2943000000002	0.0831226335139945	55	systole	11	B	500	diastole
746.4244000000001	0.0831226335139945	55	systole	12	B	500	diastole
750.4712999999999	0.1356188674690202	56	diastole	1	B	500	systole
751.5112999999999	0.1356188674690202	56	diastole	2	B	500	systole
752.5512999999999	0.1356188674690202	56	diastole	3	B	500	systole
753.7711999999999	0.1356188674690202	56	diastole	4	B	500	systole
754.9150000000002	0.1356188674690202	56	diastole	5	B	500	systole
756.0253	0.1356188674690202	56	diastole	6	B	500	systole
756.6885	0.1356188674690202	56	diastole	7	B	500	systole
757.4684	0.1356188674690202	56	diastole	8	B	500	systole
762.0031999999999	0.1206095181405544	57	diastole	1	B	500	systole
762.8201000000001	0.1206095181405544	57	diastole	2	B	500	systole
763.5181	0.1206095181405544	57	diastole	3	B	500	systole
764.3079	0.1206095181405544	57	diastole	4	B	500	systole
765.0013000000001	0.1206095181405544	57	diastole	5	B	500	systole
765.8187	0.1206095181405544	57	diastole	6	B	500	systole
767.2106000000001	0.1206095181405544	57	diastole	7	B	500	systole
768.4564000000003	0.1206095181405544	57	diastole	8	B	500	systole
769.5359000000001	0.1206095181405544	57	diastole	9	B	500	systole
770.1998000000001	0.1206095181405544	57	diastole	10	B	500	systole
771.0301999999999	0.1206095181405544	57	diastole	11	B	500	systole
774.2749000000001	0.1181105562718585	58	diastole	1	B	500	systole
775.1650999999999	0.1181105562718585	58	diastole	2	B	500	systole
776.1679999999999	0.1181105562718585	58	diastole	3	B	500	systole
777.0773000000002	0.1181105562718585	58	diastole	4	B	500	systole
778.0292999999999	0.1181105562718585	58	diastole	5	B	500	systole
778.8136999999999	0.1181105562718585	58	diastole	6	B	500	systole
779.6137999999999	0.1181105562718585	58	diastole	7	B	500	systole
780.8576	0.1181105562718585	58	diastole	8	B	500	systole
782.0878	0.1181105562718585	58	diastole	9	B	500	systole
785.3226000000002	0.1200042472919449	59	systole	1	B	500	systole
786.1721	0.1200042472919449	59	systole	2	B	500	systole
786.912	0.1200042472919449	59	systole	3	B	500	systole
787.682	0.1200042472919449	59	systole	4	B	500	systole
788.9621	0.1200042472919449	59	systole	5	B	500	systole
789.9417999999998	0.1200042472919449	59	systole	6	B	500	systole
790.9215000000002	0.1200042472919449	59	systole	7	B	500	systole
791.9012	0.1200042472919449	59	systole	8	B	500	systole
792.8192999999999	0.1200042472919449	59	systole	9	B	500	systole
793.8012999999999	0.1200042472919449	59	systole	10	B	500	systole
798.3765999999998	0.1226084164809435	60	diastole	1	B	500	systole
799.5166000000002	0.1226084164809435	60	diastole	2	B	500	systole
800.5166000000002	0.1226084164809435	60	diastole	3	B	500	systole
801.5316	0.1226084164809435	60	diastole	4	B	500	systole
802.4748000000002	0.1226084164809435	60	diastole	5	B	500	systole
803.4247000000003	0.1226084164809435	60	diastole	6	B	500	systole
804.3080000000002	0.1226084164809435	60	diastole	7	B	500	systole
805.1762999999999	0.1226084164809435	60	diastole	8	B	500	systole
806.3279	0.1226084164809435	60	diastole	9	B	500	systole
810.6047000000001	0.1212436250643804	61	systole	1	B	500	systole
811.6648000000002	0.1212436250643804	61	systole	2	B	500	systole
812.6306000000002	0.1212436250643804	61	systole	3	B	500	systole
813.4804999999999	0.1212436250643804	61	systole	4	B	500	systole
814.3302999999999	0.1212436250643804	61	systole	5	B	500	systole
815.0955000000001	0.1212436250643804	61	systole	6	B	500	systole
815.8145000000002	0.1212436250643804	61	systole	7	B	500	systole
816.5294999999999	0.1212436250643804	61	systole	8	B	500	systole
817.3284999999998	0.1212436250643804	61	systole	9	B	500	systole
818.5982000000001	0.1212436250643804	61	systole	10	B	500	systole
819.4981	0.1212436250643804	61	systole	11	B	500	systole
825.7665	0.1187552697956562	62	diastole	1	B	500	systole
826.6866000000002	0.1187552697956562	62	diastole	2	B	500	systole
828.0627000000002	0.1187552697956562	62	diastole	3	B	500	systole
829.3223	0.1187552697956562	62	diastole	4	B	500	systole
830.0539999999999	0.1187552697956562	62	diastole	5	B	500	systole
830.894	0.1187552697956562	62	diastole	6	B	500	systole
831.9138	0.1187552697956562	62	diastole	7	B	500	systole
832.7789	0.1187552697956562	62	diastole	8	B	500	systole
833.7286999999999	0.1187552697956562	62	diastole	9	B	500	systole
838.8961000000002	0.1150000940542668	63	diastole	1	B	500	diastole
839.6062	0.1150000940542668	63	diastole	2	B	500	diastole
840.3163000000002	0.1150000940542668	63	diastole	3	B	500	diastole
840.8984000000003	0.1150000940542668	63	diastole	4	B	500	diastole
841.5317000000002	0.1150000940542668	63	diastole	5	B	500	diastole
842.2376000000002	0.1150000940542668	63	diastole	6	B	500	diastole
842.9694000000002	0.1150000940542668	63	diastole	7	B	500	diastole
843.7094	0.1150000940542668	63	diastole	8	B	500	diastole
845.0098	0.1150000940542668	63	diastole	9	B	500	diastole
846.3100999999999	0.1150000940542668	63	diastole	10	B	500	diastole
847.1582999999998	0.1150000940542668	63	diastole	11	B	500	diastole
851.8046000000002	0.1105164916953072	64	diastole	1	B	500	systole
852.6748	0.1105164916953072	64	diastole	2	B	500	systole
853.6148000000001	0.1105164916953072	64	diastole	3	B	500	systole
854.4795999999999	0.1105164916953072	64	diastole	4	B	500	systole
855.3695	0.1105164916953072	64	diastole	5	B	500	systole
856.2293999999999	0.1105164916953072	64	diastole	6	B	500	systole
857.0892999999999	0.1105164916953072	64	diastole	7	B	500	systole
858.2275999999999	0.1105164916953072	64	diastole	8	B	500	systole
859.2275000000002	0.1105164916953072	64	diastole	9	B	500	systole
864.4113	0.1187625002348795	65	systole	1	B	500	diastole
865.2812999999999	0.1187625002348795	65	systole	2	B	500	diastole
866.1513000000002	0.1187625002348795	65	systole	3	B	500	diastole
867.0213000000001	0.1187625002348795	65	systole	4	B	500	diastole
867.3833999999999	0.1187625002348795	65	systole	5	B	500	diastole
867.5979	0.1187625002348795	65	systole	6	B	500	diastole
868.3779999999999	0.1187625002348795	65	systole	7	B	500	diastole
869.2178000000001	0.1187625002348795	65	systole	8	B	500	diastole
870.0577000000001	0.1187625002348795	65	systole	9	B	500	diastole
870.9975999999999	0.1187625002348795	65	systole	10	B	500	diastole
871.9376	0.1187625002348795	65	systole	11	B	500	diastole
873.0879000000002	0.1187625002348795	65	systole	12	B	500	diastole
876.1020000000001	0.1081171858822926	66	systole	1	B	500	diastole
876.9421	0.1081171858822926	66	systole	2	B	500	diastole
877.7821000000001	0.1081171858822926	66	systole	3	B	500	diastole
878.6379	0.1081171858822926	66	systole	4	B	500	diastole
879.3988999999999	0.1081171858822926	66	systole	5	B	500	diastole
879.7257999999999	0.1081171858822926	66	systole	6	B	500	diastole
879.8633000000002	0.1081171858822926	66	systole	7	B	500	diastole
880.0233000000001	0.1081171858822926	66	systole	8	B	500	diastole
880.4284	0.1081171858822926	66	systole	9	B	500	diastole
881.1306999999999	0.1081171858822926	66	systole	10	B	500	diastole
881.7924	0.1081171858822926	66	systole	11	B	500	diastole
882.5123000000001	0.1081171858822926	66	systole	12	B	500	diastole
883.9538	0.1081171858822926	66	systole	13	B	500	diastole
885.3835999999999	0.1081171858822926	66	systole	14	B	500	diastole
888.2355	0.1087464583106339	67	systole	1	B	500	systole
889.3345999999999	0.1087464583106339	67	systole	2	B	500	systole
890.5163	0.1087464583106339	67	systole	3	B	500	systole
891.6537000000001	0.1087464583106339	67	systole	4	B	500	systole
892.7737	0.1087464583106339	67	systole	5	B	500	systole
893.7037000000003	0.1087464583106339	67	systole	6	B	500	systole
894.5948999999998	0.1087464583106339	67	systole	7	B	500	systole
895.8241	0.1087464583106339	67	systole	8	B	500	systole
896.9570000000001	0.1087464583106339	67	systole	9	B	500	systole
901.7016999999998	0.1186534607550129	68	diastole	1	B	500	systole
902.6317000000001	0.1186534607550129	68	diastole	2	B	500	systole
903.5802000000001	0.1186534607550129	68	diastole	3	B	500	systole
904.4201	0.1186534607550129	68	diastole	4	B	500	systole
905.2599000000002	0.1186534607550129	68	diastole	5	B	500	systole
906.0415	0.1186534607550129	68	diastole	6	B	500	systole
906.7495999999999	0.1186534607550129	68	diastole	7	B	500	systole
907.4428	0.1186534607550129	68	diastole	8	B	500	systole
908.7693999999999	0.1186534607550129	68	diastole	9	B	500	systole
909.7998	0.1186534607550129	68	diastole	10	B	500	systole
915.0802999999999	0.110025365371257	69	diastole	1	B	500	systole
915.8803	0.110025365371257	69	diastole	2	B	500	systole
916.6804	0.110025365371257	69	diastole	3	B	500	systole
917.7493999999999	0.110025365371257	69	diastole	4	B	500	systole
918.5881000000002	0.110025365371257	69	diastole	5	B	500	systole
919.4685000000002	0.110025365371257	69	diastole	6	B	500	systole
920.3489000000002	0.110025365371257	69	diastole	7	B	500	systole
921.2662000000003	0.110025365371257	69	diastole	8	B	500	systole
922.1641999999999	0.110025365371257	69	diastole	9	B	500	systole
923.0242000000001	0.110025365371257	69	diastole	10	B	500	systole
926.7412000000002	0.1100332242203876	70	diastole	1	B	500	diastole
927.4847000000002	0.1100332242203876	70	diastole	2	B	500	diastole
928.2450000000001	0.1100332242203876	70	diastole	3	B	500	diastole
929.0051999999998	0.1100332242203876	70	diastole	4	B	500	diastole
929.8127999999999	0.1100332242203876	70	diastole	5	B	500	diastole
930.5375999999999	0.1100332242203876	70	diastole	6	B	500	diastole
931.2635000000002	0.1100332242203876	70	diastole	7	B	500	diastole
932.1024	0.1100332242203876	70	diastole	8	B	500	diastole
932.9426999999998	0.1100332242203876	70	diastole	9	B	500	diastole
933.7724000000001	0.1100332242203876	70	diastole	10	B	500	diastole
934.5541000000001	0.1100332242203876	70	diastole	11	B	500	diastole
935.2760000000001	0.1100332242203876	70	diastole	12	B	500	diastole
939.8239000000001	0.094378464622423	71	systole	1	B	500	systole
940.7639999999999	0.094378464622423	71	systole	2	B	500	systole
941.6631	0.094378464622423	71	systole	3	B	500	systole
942.5332000000001	0.094378464622423	71	systole	4	B	500	systole
943.4372999999998	0.094378464622423	71	systole	5	B	500	systole
944.3706	0.094378464622423	71	systole	6	B	500	systole
945.2005999999999	0.094378464622423	71	systole	7	B	500	systole
946.1198000000002	0.094378464622423	71	systole	8	B	500	systole
947.0597	0.094378464622423	71	systole	9	B	500	systole
947.9995999999999	0.094378464622423	71	systole	10	B	500	systole
948.7902999999999	0.094378464622423	71	systole	11	B	500	systole
951.1780000000001	0.1043793562566861	72	diastole	1	B	500	diastole
951.8595000000003	0.1043793562566861	72	diastole	2	B	500	diastole
952.5494000000001	0.1043793562566861	72	diastole	3	B	500	diastole
953.1726999999998	0.1043793562566861	72	diastole	4	B	500	diastole
953.7895999999998	0.1043793562566861	72	diastole	5	B	500	diastole
954.4929	0.1043793562566861	72	diastole	6	B	500	diastole
955.2129000000002	0.1043793562566861	72	diastole	7	B	500	diastole
955.9145000000001	0.1043793562566861	72	diastole	8	B	500	diastole
956.6159	0.1043793562566861	72	diastole	9	B	500	diastole
957.3158000000001	0.1043793562566861	72	diastole	10	B	500	diastole
958.0458000000001	0.1043793562566861	72	diastole	11	B	500	diastole
958.8260000000002	0.1043793562566861	72	diastole	12	B	500	diastole
959.6061000000002	0.1043793562566861	72	diastole	13	B	500	diastole
960.4411000000002	0.1043793562566861	72	diastole	14	B	500	diastole
963.4581000000001	0.097512298147194	73	diastole	1	B	500	systole
964.4280000000001	0.097512298147194	73	diastole	2	B	500	systole
965.3979000000002	0.097512298147194	73	diastole	3	B	500	systole
966.4628	0.097512298147194	73	diastole	4	B	500	systole
967.3898000000002	0.097512298147194	73	diastole	5	B	500	systole
968.2497999999998	0.097512298147194	73	diastole	6	B	500	systole
969.1098	0.097512298147194	73	diastole	7	B	500	systole
970.2112	0.097512298147194	73	diastole	8	B	500	systole
971.2212000000002	0.097512298147194	73	diastole	9	B	500	systole
972.2410000000002	0.097512298147194	73	diastole	10	B	500	systole
977.3727999999999	0.1237449500476941	74	diastole	1	B	500	diastole
977.8028999999999	0.1237449500476941	74	diastole	2	B	500	diastole
978.1803000000002	0.1237449500476941	74	diastole	3	B	500	diastole
978.5328000000002	0.1237449500476941	74	diastole	4	B	500	diastole
979.0229000000002	0.1237449500476941	74	diastole	5	B	500	diastole
979.7729999999999	0.1237449500476941	74	diastole	6	B	500	diastole
980.5231000000001	0.1237449500476941	74	diastole	7	B	500	diastole
981.0417	0.1237449500476941	74	diastole	8	B	500	diastole
981.7630999999999	0.1237449500476941	74	diastole	9	B	500	diastole
982.5832000000003	0.1237449500476941	74	diastole	10	B	500	diastole
982.8927999999999	0.1237449500476941	74	diastole	11	B	500	diastole
983.1528000000001	0.1237449500476941	74	diastole	12	B	500	diastole
983.3127999999999	0.1237449500476941	74	diastole	13	B	500	diastole
984.2630999999999	0.1237449500476941	74	diastole	14	B	500	diastole
985.0881000000002	0.1237449500476941	74	diastole	15	B	500	diastole
990.1630000000002	0.1012546181445941	75	diastole	1	B	500	systole
990.963	0.1012546181445941	75	diastole	2	B	500	systole
991.8947000000001	0.1012546181445941	75	diastole	3	B	500	systole
992.8662000000002	0.1012546181445941	75	diastole	4	B	500	systole
993.7998	0.1012546181445941	75	diastole	5	B	500	systole
994.6998000000001	0.1012546181445941	75	diastole	6	B	500	systole
995.4566000000002	0.1012546181445941	75	diastole	7	B	500	systole
996.2967000000001	0.1012546181445941	75	diastole	8	B	500	systole
997.3253000000002	0.1012546181445941	75	diastole	9	B	500	systole
998.1836000000001	0.1012546181445941	75	diastole	10	B	500	systole
999.0336	0.1012546181445941	75	diastole	11	B	500	systole
1002.2598	0.1062542184954509	76	diastole	1	B	500	systole
1003.4296999999999	0.1062542184954509	76	diastole	2	B	500	systole
1004.5730999999998	0.1062542184954509	76	diastole	3	B	500	systole
1005.5797	0.1062542184954509	76	diastole	4	B	500	systole
1006.5164000000002	0.1062542184954509	76	diastole	5	B	500	systole
1007.4863000000003	0.1062542184954509	76	diastole	6	B	500	systole
1008.4997000000001	0.1062542184954509	76	diastole	7	B	500	systole
1009.4795000000001	0.1062542184954509	76	diastole	8	B	500	systole
1010.3796	0.1062542184954509	76	diastole	9	B	500	systole
1011.2796999999998	0.1062542184954509	76	diastole	10	B	500	systole
1014.2079000000001	0.1225025169551372	77	diastole	1	B	500	diastole
1015.0094999999999	0.1225025169551372	77	diastole	2	B	500	diastole
1015.8194999999998	0.1225025169551372	77	diastole	3	B	500	diastole
1016.6513000000002	0.1225025169551372	77	diastole	4	B	500	diastole
1017.5343	0.1225025169551372	77	diastole	5	B	500	diastole
1018.4842000000001	0.1225025169551372	77	diastole	6	B	500	diastole
1018.8451000000002	0.1225025169551372	77	diastole	7	B	500	diastole
1019.0890999999999	0.1225025169551372	77	diastole	8	B	500	diastole
1019.7592999999999	0.1225025169551372	77	diastole	9	B	500	diastole
1020.3924	0.1225025169551372	77	diastole	10	B	500	diastole
1021.0276000000001	0.1225025169551372	77	diastole	11	B	500	diastole
1021.7776000000001	0.1225025169551372	77	diastole	12	B	500	diastole
1022.5276000000001	0.1225025169551372	77	diastole	13	B	500	diastole
1025.6964	0.0918795296456664	78	diastole	1	B	500	systole
1026.4265000000003	0.0918795296456664	78	diastole	2	B	500	systole
1027.2913	0.0918795296456664	78	diastole	3	B	500	systole
1028.2495000000001	0.0918795296456664	78	diastole	4	B	500	systole
1029.1992000000002	0.0918795296456664	78	diastole	5	B	500	systole
1030.1355	0.0918795296456664	78	diastole	6	B	500	systole
1030.9554	0.0918795296456664	78	diastole	7	B	500	systole
1031.7254	0.0918795296456664	78	diastole	8	B	500	systole
1032.427	0.0918795296456664	78	diastole	9	B	500	systole
1033.2103	0.0918795296456664	78	diastole	10	B	500	systole
1034.0103000000001	0.0918795296456664	78	diastole	11	B	500	systole
1037.0554	0.1031241696327924	79	systole	1	B	500	systole
1038.0254000000002	0.1031241696327924	79	systole	2	B	500	systole
1039.1955	0.1031241696327924	79	systole	3	B	500	systole
1040.2955	0.1031241696327924	79	systole	4	B	500	systole
1041.4271	0.1031241696327924	79	systole	5	B	500	systole
1042.4113	0.1031241696327924	79	systole	6	B	500	systole
1043.3314000000003	0.1031241696327924	79	systole	7	B	500	systole
1044.2515	0.1031241696327924	79	systole	8	B	500	systole
1045.1014000000002	0.1031241696327924	79	systole	9	B	500	systole
1045.9513	0.1031241696327924	79	systole	10	B	500	systole
1050.4082999999998	0.1150167619343847	80	systole	1	B	500	systole
1051.2333	0.1150167619343847	80	systole	2	B	500	systole
1051.9932999999999	0.1150167619343847	80	systole	3	B	500	systole
1052.7432999999999	0.1150167619343847	80	systole	4	B	500	systole
1053.4534999999998	0.1150167619343847	80	systole	5	B	500	systole
1054.2153	0.1150167619343847	80	systole	6	B	500	systole
1055.1354	0.1150167619343847	80	systole	7	B	500	systole
1056.0555000000002	0.1150167619343847	80	systole	8	B	500	systole
1056.8783	0.1150167619343847	80	systole	9	B	500	systole
1057.7184	0.1150167619343847	80	systole	10	B	500	systole
1058.6083999999998	0.1150167619343847	80	systole	11	B	500	systole
1059.4966000000002	0.1150167619343847	80	systole	12	B	500	systole
1062.1896	0.1062563613522797	81	diastole	1	B	500	diastole
1062.9198	0.1062563613522797	81	diastole	2	B	500	diastole
1063.5832000000003	0.1062563613522797	81	diastole	3	B	500	diastole
1064.2734000000003	0.1062563613522797	81	diastole	4	B	500	diastole
1065.0233	0.1062563613522797	81	diastole	5	B	500	diastole
1065.8134000000002	0.1062563613522797	81	diastole	6	B	500	diastole
1066.5381	0.1062563613522797	81	diastole	7	B	500	diastole
1067.2877999999998	0.1062563613522797	81	diastole	8	B	500	diastole
1067.9842	0.1062563613522797	81	diastole	9	B	500	diastole
1068.6758000000002	0.1062563613522797	81	diastole	10	B	500	diastole
1069.338	0.1062563613522797	81	diastole	11	B	500	diastole
1070.008	0.1062563613522797	81	diastole	12	B	500	diastole
1070.6679000000001	0.1062563613522797	81	diastole	13	B	500	diastole
1071.3093999999999	0.1062563613522797	81	diastole	14	B	500	diastole
1073.5509	0.0818714391207322	82	systole	1	B	500	systole
1074.2004	0.0818714391207322	82	systole	2	B	500	systole
1074.8609	0.0818714391207322	82	systole	3	B	500	systole
1075.5305999999998	0.0818714391207322	82	systole	4	B	500	systole
1076.2309000000002	0.0818714391207322	82	systole	5	B	500	systole
1077.0467	0.0818714391207322	82	systole	6	B	500	systole
1077.8563000000001	0.0818714391207322	82	systole	7	B	500	systole
1078.7929000000001	0.0818714391207322	82	systole	8	B	500	systole
1079.7712	0.0818714391207322	82	systole	9	B	500	systole
1080.7315999999998	0.0818714391207322	82	systole	10	B	500	systole
1081.6926	0.0818714391207322	82	systole	11	B	500	systole
1082.6299999999999	0.0818714391207322	82	systole	12	B	500	systole
1085.2176000000002	0.1068780402420088	83	systole	1	B	500	systole
1086.5175000000002	0.1068780402420088	83	systole	2	B	500	systole
1087.6577	0.1068780402420088	83	systole	3	B	500	systole
1088.7978	0.1068780402420088	83	systole	4	B	500	systole
1089.6978000000001	0.1068780402420088	83	systole	5	B	500	systole
1090.4778	0.1068780402420088	83	systole	6	B	500	systole
1091.2578	0.1068780402420088	83	systole	7	B	500	systole
1091.9314000000002	0.1068780402420088	83	systole	8	B	500	systole
1092.6516	0.1068780402420088	83	systole	9	B	500	systole
1093.3718000000001	0.1068780402420088	83	systole	10	B	500	systole
1094.8017000000002	0.1068780402420088	83	systole	11	B	500	systole
1097.4112000000002	0.1187537752557545	84	systole	1	B	500	systole
1098.4412	0.1187537752557545	84	systole	2	B	500	systole
1099.4060000000002	0.1187537752557545	84	systole	3	B	500	systole
1100.3763000000001	0.1187537752557545	84	systole	4	B	500	systole
1101.4122	0.1187537752557545	84	systole	5	B	500	systole
1102.4017999999999	0.1187537752557545	84	systole	6	B	500	systole
1103.2422	0.1187537752557545	84	systole	7	B	500	systole
1104.1310999999998	0.1187537752557545	84	systole	8	B	500	systole
1105.0312000000001	0.1187537752557545	84	systole	9	B	500	systole
1105.9635	0.1187537752557545	84	systole	10	B	500	systole
1106.9134000000001	0.1187537752557545	84	systole	11	B	500	systole
1109.9031000000002	0.112517341854982	85	diastole	1	B	500	systole
1110.878	0.112517341854982	85	diastole	2	B	500	systole
1111.8279	0.112517341854982	85	diastole	3	B	500	systole
1112.6779	0.112517341854982	85	diastole	4	B	500	systole
1113.5278	0.112517341854982	85	diastole	5	B	500	systole
1114.3610999999999	0.112517341854982	85	diastole	6	B	500	systole
1115.2540000000001	0.112517341854982	85	diastole	7	B	500	systole
1116.1638	0.112517341854982	85	diastole	8	B	500	systole
1117.0150999999998	0.112517341854982	85	diastole	9	B	500	systole
1117.8439	0.112517341854982	85	diastole	10	B	500	systole
1118.6490999999999	0.112517341854982	85	diastole	11	B	500	systole
1122.0103000000001	0.091881503467448	86	systole	1	B	500	diastole
1122.7198999999998	0.091881503467448	86	systole	2	B	500	diastole
1123.4336	0.091881503467448	86	systole	3	B	500	diastole
1124.1267	0.091881503467448	86	systole	4	B	500	diastole
1124.8272	0.091881503467448	86	systole	5	B	500	diastole
1125.5314	0.091881503467448	86	systole	6	B	500	diastole
1126.2156000000002	0.091881503467448	86	systole	7	B	500	diastole
1126.8906	0.091881503467448	86	systole	8	B	500	diastole
1127.55	0.091881503467448	86	systole	9	B	500	diastole
1128.2043	0.091881503467448	86	systole	10	B	500	diastole
1128.8527000000001	0.091881503467448	86	systole	11	B	500	diastole
1129.5128000000002	0.091881503467448	86	systole	12	B	500	diastole
1130.2527000000002	0.091881503467448	86	systole	13	B	500	diastole
1130.9926000000003	0.091881503467448	86	systole	14	B	500	diastole
1133.9866	0.085630280082114	87	diastole	1	B	500	systole
1135.0321999999999	0.085630280082114	87	diastole	2	B	500	systole
1135.9118	0.085630280082114	87	diastole	3	B	500	systole
1137.0191000000002	0.085630280082114	87	diastole	4	B	500	systole
1138.2175	0.085630280082114	87	diastole	5	B	500	systole
1139.3572000000001	0.085630280082114	87	diastole	6	B	500	systole
1140.2872	0.085630280082114	87	diastole	7	B	500	systole
1141.1109	0.085630280082114	87	diastole	8	B	500	systole
1142.0499000000002	0.085630280082114	87	diastole	9	B	500	systole
1142.9894000000002	0.085630280082114	87	diastole	10	B	500	systole
1146.3646999999999	0.1212766406824812	88	systole	1	B	500	diastole
1147.3048999999999	0.1212766406824812	88	systole	2	B	500	diastole
1148.1797	0.1212766406824812	88	systole	3	B	500	diastole
1149.0696	0.1212766406824812	88	systole	4	B	500	diastole
1149.9298000000001	0.1212766406824812	88	systole	5	B	500	diastole
1150.6711000000003	0.1212766406824812	88	systole	6	B	500	diastole
1151.4296000000002	0.1212766406824812	88	systole	7	B	500	diastole
1152.1503	0.1212766406824812	88	systole	8	B	500	diastole
1152.9003	0.1212766406824812	88	systole	9	B	500	diastole
1153.6035	0.1212766406824812	88	systole	10	B	500	diastole
1154.2892	0.1212766406824812	88	systole	11	B	500	diastole
1157.0796000000003	0.0963427437236532	89	systole	1	B	500	systole
1157.8296000000003	0.0963427437236532	89	systole	2	B	500	systole
1158.5479000000003	0.0963427437236532	89	systole	3	B	500	systole
1159.2778999999998	0.0963427437236532	89	systole	4	B	500	systole
1159.9772	0.0963427437236532	89	systole	5	B	500	systole
1160.6872999999998	0.0963427437236532	89	systole	6	B	500	systole
1161.9046999999998	0.0963427437236532	89	systole	7	B	500	systole
1162.9322	0.0963427437236532	89	systole	8	B	500	systole
1163.7386	0.0963427437236532	89	systole	9	B	500	systole
1164.5130000000001	0.0963427437236532	89	systole	10	B	500	systole
1165.4486	0.0963427437236532	89	systole	11	B	500	systole
1169.8878000000002	0.1193779332097619	90	systole	1	B	500	systole
1170.637	0.1193779332097619	90	systole	2	B	500	systole
1171.427	0.1193779332097619	90	systole	3	B	500	systole
1172.1755	0.1193779332097619	90	systole	4	B	500	systole
1173.1879999999999	0.1193779332097619	90	systole	5	B	500	systole
1174.148	0.1193779332097619	90	systole	6	B	500	systole
1175.5654000000002	0.1193779332097619	90	systole	7	B	500	systole
1176.6953999999998	0.1193779332097619	90	systole	8	B	500	systole
1177.8254	0.1193779332097619	90	systole	9	B	500	systole
1178.7953	0.1193779332097619	90	systole	10	B	500	systole
1181.4339000000002	0.1276211460353806	91	systole	1	B	500	systole
1182.5239	0.1276211460353806	91	systole	2	B	500	systole
1183.4039	0.1276211460353806	91	systole	3	B	500	systole
1184.2538000000002	0.1276211460353806	91	systole	4	B	500	systole
1185.7038	0.1276211460353806	91	systole	5	B	500	systole
1186.814	0.1276211460353806	91	systole	6	B	500	systole
1187.7540000000001	0.1276211460353806	91	systole	7	B	500	systole
1188.6484000000003	0.1276211460353806	91	systole	8	B	500	systole
1189.5802	0.1276211460353806	91	systole	9	B	500	systole
1190.5703	0.1276211460353806	91	systole	10	B	500	systole
1195.3405	0.121872870135121	92	systole	1	B	500	systole
1196.4606	0.121872870135121	92	systole	2	B	500	systole
1197.5808	0.121872870135121	92	systole	3	B	500	systole
1198.4205	0.121872870135121	92	systole	4	B	500	systole
1199.2203000000002	0.121872870135121	92	systole	5	B	500	systole
1200.0901999999999	0.121872870135121	92	systole	6	B	500	systole
1200.9601	0.121872870135121	92	systole	7	B	500	systole
1202.0154	0.121872870135121	92	systole	8	B	500	systole
1203.0356	0.121872870135121	92	systole	9	B	500	systole
1203.8855999999998	0.121872870135121	92	systole	10	B	500	systole
1207.7839000000001	0.1018754637334495	93	systole	1	B	500	diastole
1208.9336999999998	0.1018754637334495	93	systole	2	B	500	diastole
1209.7677	0.1018754637334495	93	systole	3	B	500	diastole
1210.6377	0.1018754637334495	93	systole	4	B	500	diastole
1211.4973000000002	0.1018754637334495	93	systole	5	B	500	diastole
1212.3568000000002	0.1018754637334495	93	systole	6	B	500	diastole
1213.1368	0.1018754637334495	93	systole	7	B	500	diastole
1213.9168000000002	0.1018754637334495	93	systole	8	B	500	diastole
1214.6988	0.1018754637334495	93	systole	9	B	500	diastole
1215.4806999999998	0.1018754637334495	93	systole	10	B	500	diastole
1216.2988000000003	0.1018754637334495	93	systole	11	B	500	diastole
1217.1074999999998	0.1018754637334495	93	systole	12	B	500	diastole
1219.8316000000002	0.1011421441799029	94	diastole	1	B	500	systole
1220.7817000000002	0.1011421441799029	94	diastole	2	B	500	systole
1221.9312000000002	0.1011421441799029	94	diastole	3	B	500	systole
1223.0744000000002	0.1011421441799029	94	diastole	4	B	500	systole
1224.0593000000001	0.1011421441799029	94	diastole	5	B	500	systole
1225.0927	0.1011421441799029	94	diastole	6	B	500	systole
1226.0428	0.1011421441799029	94	diastole	7	B	500	systole
1227.0462	0.1011421441799029	94	diastole	8	B	500	systole
1228.0162000000003	0.1011421441799029	94	diastole	9	B	500	systole
1229.0028	0.1011421441799029	94	diastole	10	B	500	systole
1233.8632	0.1200052499771118	95	systole	1	B	500	systole
1234.7635000000002	0.1200052499771118	95	systole	2	B	500	systole
1235.6328999999998	0.1200052499771118	95	systole	3	B	500	systole
1236.5024999999998	0.1200052499771118	95	systole	4	B	500	systole
1237.2701	0.1200052499771118	95	systole	5	B	500	systole
1238.0651	0.1200052499771118	95	systole	6	B	500	systole
1238.8953	0.1200052499771118	95	systole	7	B	500	systole
1240.0751000000002	0.1200052499771118	95	systole	8	B	500	systole
1241.0952	0.1200052499771118	95	systole	9	B	500	systole
1242.0152	0.1200052499771118	95	systole	10	B	500	systole
1243.0566999999999	0.1200052499771118	95	systole	11	B	500	systole
1245.7695999999999	0.1174983360106125	96	systole	1	B	500	systole
1246.5698	0.1174983360106125	96	systole	2	B	500	systole
1247.5733000000002	0.1174983360106125	96	systole	3	B	500	systole
1248.3699	0.1174983360106125	96	systole	4	B	500	systole
1249.1899	0.1174983360106125	96	systole	5	B	500	systole
1249.9172999999998	0.1174983360106125	96	systole	6	B	500	systole
1250.6622	0.1174983360106125	96	systole	7	B	500	systole
1251.4662999999998	0.1174983360106125	96	systole	8	B	500	systole
1252.2946	0.1174983360106125	96	systole	9	B	500	systole
1253.2646000000002	0.1174983360106125	96	systole	10	B	500	systole
1254.1046	0.1174983360106125	96	systole	11	B	500	systole
1254.8531	0.1174983360106125	96	systole	12	B	500	systole
1258.0126000000002	0.0937531432136893	97	diastole	1	B	500	diastole
1258.7625	0.0937531432136893	97	diastole	2	B	500	diastole
1259.5126000000002	0.0937531432136893	97	diastole	3	B	500	diastole
1260.2626000000002	0.0937531432136893	97	diastole	4	B	500	diastole
1261.0127	0.0937531432136893	97	diastole	5	B	500	diastole
1261.793	0.0937531432136893	97	diastole	6	B	500	diastole
1262.5730999999998	0.0937531432136893	97	diastole	7	B	500	diastole
1263.303	0.0937531432136893	97	diastole	8	B	500	diastole
1264.0129	0.0937531432136893	97	diastole	9	B	500	diastole
1264.2985999999999	0.0937531432136893	97	diastole	10	B	500	diastole
1264.8577000000002	0.0937531432136893	97	diastole	11	B	500	diastole
1265.4926000000003	0.0937531432136893	97	diastole	12	B	500	diastole
1266.0827000000002	0.0937531432136893	97	diastole	13	B	500	diastole
1269.0264	0.0812506375368684	98	diastole	1	B	500	diastole
1270.0964000000001	0.0812506375368684	98	diastole	2	B	500	diastole
1271.1663	0.0812506375368684	98	diastole	3	B	500	diastole
1272.3129000000001	0.0812506375368684	98	diastole	4	B	500	diastole
1273.6512	0.0812506375368684	98	diastole	5	B	500	diastole
1275.0828	0.0812506375368684	98	diastole	6	B	500	diastole
1276.1312	0.0812506375368684	98	diastole	7	B	500	diastole
1276.4835	0.0812506375368684	98	diastole	8	B	500	diastole
1276.7234999999998	0.0812506375368684	98	diastole	9	B	500	diastole
1276.9635	0.0812506375368684	98	diastole	10	B	500	diastole
1277.1235	0.0812506375368684	98	diastole	11	B	500	diastole
1277.2459999999999	0.0812506375368684	98	diastole	12	B	500	diastole
1278.1285	0.0812506375368684	98	diastole	13	B	500	diastole
1284.6186	0.1119133438915014	99	systole	1	B	500	diastole
1285.8261	0.1119133438915014	99	systole	2	B	500	diastole
1287.046	0.1119133438915014	99	systole	3	B	500	diastole
1288.2259000000001	0.1119133438915014	99	systole	4	B	500	diastole
1289.1658	0.1119133438915014	99	systole	5	B	500	diastole
1290.1056999999998	0.1119133438915014	99	systole	6	B	500	diastole
1291.0783	0.1119133438915014	99	systole	7	B	500	diastole
1292.1382	0.1119133438915014	99	systole	8	B	500	diastole
1293.2238	0.1119133438915014	99	systole	9	B	500	diastole
1299.6241000000002	0.1268441132269799	100	diastole	1	B	500	systole
1300.6043000000002	0.1268441132269799	100	diastole	2	B	500	systole
1301.9543999999999	0.1268441132269799	100	diastole	3	B	500	systole
1303.0544000000002	0.1268441132269799	100	diastole	4	B	500	systole
1304.1544000000001	0.1268441132269799	100	diastole	5	B	500	systole
1305.0718	0.1268441132269799	100	diastole	6	B	500	systole
1305.8217000000002	0.1268441132269799	100	diastole	7	B	500	systole
1306.5452000000002	0.1268441132269799	100	diastole	8	B	500	systole
1307.1526000000001	0.1268441132269799	100	diastole	9	B	500	systole
1307.9022000000002	0.1268441132269799	100	diastole	10	B	500	systole
