onset	duration	trial_num	trial_type	tone_num	tone_type	frequency	response
47.00240000000008	0.0731266405200585	1	systole	1	B	500	systole
47.6558	0.0731266405200585	1	systole	2	B	500	systole
48.28580000000011	0.0731266405200585	1	systole	3	B	500	systole
48.92920000000004	0.0731266405200585	1	systole	4	B	500	systole
49.549200000000155	0.0731266405200585	1	systole	5	B	500	systole
50.169200000000046	0.0731266405200585	1	systole	6	B	500	systole
50.805000000000064	0.0731266405200585	1	systole	7	B	500	systole
51.46680000000015	0.0731266405200585	1	systole	8	B	500	systole
52.11680000000001	0.0731266405200585	1	systole	9	B	500	systole
52.762500000000045	0.0731266405200585	1	systole	10	B	500	systole
53.3451	0.0731266405200585	1	systole	11	B	500	systole
53.94510000000014	0.0731266405200585	1	systole	12	B	500	systole
54.53510000000006	0.0731266405200585	1	systole	13	B	500	systole
55.11930000000007	0.0731266405200585	1	systole	14	B	500	systole
55.71340000000009	0.0731266405200585	1	systole	15	B	500	systole
56.33339999999998	0.0731266405200585	1	systole	16	B	500	systole
62.01330000000007	0.0782307856134139	2	systole	1	B	500	diastole
62.633400000000165	0.0782307856134139	2	systole	2	B	500	diastole
63.237499999999955	0.0782307856134139	2	systole	3	B	500	diastole
63.831699999999955	0.0782307856134139	2	systole	4	B	500	diastole
64.43170000000009	0.0782307856134139	2	systole	5	B	500	diastole
65.0317	0.0782307856134139	2	systole	6	B	500	diastole
65.61159999999995	0.0782307856134139	2	systole	7	B	500	diastole
66.19579999999996	0.0782307856134139	2	systole	8	B	500	diastole
66.78999999999996	0.0782307856134139	2	systole	9	B	500	diastole
67.4058	0.0782307856134139	2	systole	10	B	500	diastole
68.01580000000013	0.0782307856134139	2	systole	11	B	500	diastole
68.62570000000005	0.0782307856134139	2	systole	12	B	500	diastole
69.21990000000005	0.0782307856134139	2	systole	13	B	500	diastole
69.81979999999999	0.0782307856134139	2	systole	14	B	500	diastole
70.48990000000003	0.0782307856134139	2	systole	15	B	500	diastole
71.1599000000001	0.0782307856134139	2	systole	16	B	500	diastole
75.26829999999995	0.0812506499351002	3	systole	1	B	500	diastole
75.8782000000001	0.0812506499351002	3	systole	2	B	500	diastole
76.4882	0.0812506499351002	3	systole	3	B	500	diastole
77.08820000000014	0.0812506499351002	3	systole	4	B	500	diastole
77.68240000000014	0.0812506499351002	3	systole	5	B	500	diastole
78.25900000000001	0.0812506499351002	3	systole	6	B	500	diastole
78.85900000000015	0.0812506499351002	3	systole	7	B	500	diastole
79.41570000000002	0.0812506499351002	3	systole	8	B	500	diastole
79.9801	0.0812506499351002	3	systole	9	B	500	diastole
80.5503000000001	0.0812506499351002	3	systole	10	B	500	diastole
81.13020000000006	0.0812506499351002	3	systole	11	B	500	diastole
81.74019999999996	0.0812506499351002	3	systole	12	B	500	diastole
82.37990000000013	0.0812506499351002	3	systole	13	B	500	diastole
83.04989999999998	0.0812506499351002	3	systole	14	B	500	diastole
83.71990000000005	0.0812506499351002	3	systole	15	B	500	diastole
84.40890000000013	0.0812506499351002	3	systole	16	B	500	diastole
85.06889999999999	0.0812506499351002	3	systole	17	B	500	diastole
89.77980000000002	0.078750877699349	4	diastole	1	B	500	systole
90.42970000000014	0.078750877699349	4	diastole	2	B	500	systole
91.0797	0.078750877699349	4	diastole	3	B	500	systole
91.73000000000002	0.078750877699349	4	diastole	4	B	500	systole
92.37000000000012	0.078750877699349	4	diastole	5	B	500	systole
93.0467000000001	0.078750877699349	4	diastole	6	B	500	systole
93.72469999999998	0.078750877699349	4	diastole	7	B	500	systole
94.4036000000001	0.078750877699349	4	diastole	8	B	500	systole
95.05359999999996	0.078750877699349	4	diastole	9	B	500	systole
95.70360000000005	0.078750877699349	4	diastole	10	B	500	systole
96.35360000000014	0.078750877699349	4	diastole	11	B	500	systole
96.99369999999999	0.078750877699349	4	diastole	12	B	500	systole
97.62360000000012	0.078750877699349	4	diastole	13	B	500	systole
98.25500000000011	0.078750877699349	4	diastole	14	B	500	systole
98.89499999999998	0.078750877699349	4	diastole	15	B	500	systole
102.10660000000007	0.0800012092804536	5	diastole	1	B	500	systole
102.76670000000013	0.0800012092804536	5	diastole	2	B	500	systole
103.42669999999998	0.0800012092804536	5	diastole	3	B	500	systole
104.05670000000009	0.0800012092804536	5	diastole	4	B	500	systole
104.64869999999996	0.0800012092804536	5	diastole	5	B	500	systole
105.2487000000001	0.0800012092804536	5	diastole	6	B	500	systole
105.81050000000005	0.0800012092804536	5	diastole	7	B	500	systole
106.38049999999998	0.0800012092804536	5	diastole	8	B	500	systole
106.87170000000015	0.0800012092804536	5	diastole	9	B	500	systole
107.4217000000001	0.0800012092804536	5	diastole	10	B	500	systole
108.00330000000008	0.0800012092804536	5	diastole	11	B	500	systole
108.65330000000017	0.0800012092804536	5	diastole	12	B	500	systole
109.30330000000004	0.0800012092804536	5	diastole	13	B	500	systole
109.9534000000001	0.0800012092804536	5	diastole	14	B	500	systole
110.58339999999998	0.0800012092804536	5	diastole	15	B	500	systole
111.21010000000001	0.0800012092804536	5	diastole	16	B	500	systole
114.35140000000001	0.0762553749955259	6	systole	1	B	500	diastole
114.89980000000014	0.0762553749955259	6	systole	2	B	500	diastole
115.44820000000004	0.0762553749955259	6	systole	3	B	500	diastole
115.99220000000014	0.0762553749955259	6	systole	4	B	500	diastole
116.5304000000001	0.0762553749955259	6	systole	5	B	500	diastole
117.08040000000005	0.0762553749955259	6	systole	6	B	500	diastole
117.62900000000013	0.0762553749955259	6	systole	7	B	500	diastole
118.21900000000005	0.0762553749955259	6	systole	8	B	500	diastole
118.80899999999997	0.0762553749955259	6	systole	9	B	500	diastole
119.39900000000011	0.0762553749955259	6	systole	10	B	500	diastole
119.99890000000005	0.0762553749955259	6	systole	11	B	500	diastole
120.59900000000016	0.0762553749955259	6	systole	12	B	500	diastole
121.1989000000001	0.0762553749955259	6	systole	13	B	500	diastole
121.83380000000011	0.0762553749955259	6	systole	14	B	500	diastole
122.45170000000007	0.0762553749955259	6	systole	15	B	500	diastole
123.0598	0.0762553749955259	6	systole	16	B	500	diastole
123.66180000000008	0.0762553749955259	6	systole	17	B	500	diastole
127.23980000000006	0.0763684564153663	7	diastole	1	B	500	diastole
127.88980000000015	0.0763684564153663	7	diastole	2	B	500	diastole
128.51710000000003	0.0763684564153663	7	diastole	3	B	500	diastole
129.125	0.0763684564153663	7	diastole	4	B	500	diastole
129.73530000000005	0.0763684564153663	7	diastole	5	B	500	diastole
130.3456000000001	0.0763684564153663	7	diastole	6	B	500	diastole
130.94590000000017	0.0763684564153663	7	diastole	7	B	500	diastole
131.53420000000006	0.0763684564153663	7	diastole	8	B	500	diastole
132.09500000000003	0.0763684564153663	7	diastole	9	B	500	diastole
132.66499999999996	0.0763684564153663	7	diastole	10	B	500	diastole
133.22720000000004	0.0763684564153663	7	diastole	11	B	500	diastole
133.75670000000014	0.0763684564153663	7	diastole	12	B	500	diastole
134.32680000000005	0.0763684564153663	7	diastole	13	B	500	diastole
134.87059999999997	0.0763684564153663	7	diastole	14	B	500	diastole
135.45040000000017	0.0763684564153663	7	diastole	15	B	500	diastole
136.03050000000007	0.0763684564153663	7	diastole	16	B	500	diastole
136.61059999999998	0.0763684564153663	7	diastole	17	B	500	diastole
141.84580000000005	0.0750157900620251	8	systole	1	B	500	systole
142.51740000000018	0.0750157900620251	8	systole	2	B	500	systole
143.16890000000012	0.0750157900620251	8	systole	3	B	500	systole
143.80880000000002	0.0750157900620251	8	systole	4	B	500	systole
144.42880000000014	0.0750157900620251	8	systole	5	B	500	systole
145.0489	0.0750157900620251	8	systole	6	B	500	systole
145.64900000000011	0.0750157900620251	8	systole	7	B	500	systole
146.24900000000002	0.0750157900620251	8	systole	8	B	500	systole
146.84320000000002	0.0750157900620251	8	systole	9	B	500	systole
147.44320000000016	0.0750157900620251	8	systole	10	B	500	systole
148.04740000000015	0.0750157900620251	8	systole	11	B	500	systole
148.65740000000005	0.0750157900620251	8	systole	12	B	500	systole
149.20990000000006	0.0750157900620251	8	systole	13	B	500	systole
149.77999999999997	0.0750157900620251	8	systole	14	B	500	systole
150.34990000000016	0.0750157900620251	8	systole	15	B	500	systole
150.9063000000001	0.0750157900620251	8	systole	16	B	500	systole
151.47630000000004	0.0750157900620251	8	systole	17	B	500	systole
155.9860000000001	0.0718817750457674	9	systole	1	B	500	systole
156.56550000000016	0.0718817750457674	9	systole	2	B	500	systole
157.1155000000001	0.0718817750457674	9	systole	3	B	500	systole
157.66550000000007	0.0718817750457674	9	systole	4	B	500	systole
158.21550000000002	0.0718817750457674	9	systole	5	B	500	systole
158.7754	0.0718817750457674	9	systole	6	B	500	systole
159.34500000000003	0.0718817750457674	9	systole	7	B	500	systole
159.8994	0.0718817750457674	9	systole	8	B	500	systole
160.47940000000017	0.0718817750457674	9	systole	9	B	500	systole
161.05899999999997	0.0718817750457674	9	systole	10	B	500	systole
161.6386	0.0718817750457674	9	systole	11	B	500	systole
162.21820000000002	0.0718817750457674	9	systole	12	B	500	systole
162.78570000000013	0.0718817750457674	9	systole	13	B	500	systole
163.3375000000001	0.0718817750457674	9	systole	14	B	500	systole
163.88200000000006	0.0718817750457674	9	systole	15	B	500	systole
164.43160000000012	0.0718817750457674	9	systole	16	B	500	systole
164.99160000000006	0.0718817750457674	9	systole	17	B	500	systole
172.7849000000001	0.0693775385734625	10	systole	1	B	500	diastole
173.35500000000002	0.0693775385734625	10	systole	2	B	500	diastole
173.9248	0.0693775385734625	10	systole	3	B	500	diastole
174.48440000000005	0.0693775385734625	10	systole	4	B	500	diastole
175.0440000000001	0.0693775385734625	10	systole	5	B	500	diastole
175.59360000000015	0.0693775385734625	10	systole	6	B	500	diastole
176.14319999999998	0.0693775385734625	10	systole	7	B	500	diastole
176.68200000000002	0.0693775385734625	10	systole	8	B	500	diastole
177.23199999999997	0.0693775385734625	10	systole	9	B	500	diastole
177.78150000000005	0.0693775385734625	10	systole	10	B	500	diastole
178.32560000000012	0.0693775385734625	10	systole	11	B	500	diastole
178.87560000000008	0.0693775385734625	10	systole	12	B	500	diastole
179.42010000000005	0.0693775385734625	10	systole	13	B	500	diastole
179.98990000000003	0.0693775385734625	10	systole	14	B	500	diastole
180.56000000000017	0.0693775385734625	10	systole	15	B	500	diastole
181.14990000000012	0.0693775385734625	10	systole	16	B	500	diastole
181.73970000000008	0.0693775385734625	10	systole	17	B	500	diastole
182.33979999999997	0.0693775385734625	10	systole	18	B	500	diastole
185.40139999999997	0.0756319634965621	11	diastole	1	B	500	systole
186.02999999999997	0.0756319634965621	11	diastole	2	B	500	systole
186.65010000000007	0.0756319634965621	11	diastole	3	B	500	systole
187.2509	0.0756319634965621	11	diastole	4	B	500	systole
187.85090000000014	0.0756319634965621	11	diastole	5	B	500	systole
188.45090000000005	0.0756319634965621	11	diastole	6	B	500	systole
189.0208	0.0756319634965621	11	diastole	7	B	500	systole
189.55830000000014	0.0756319634965621	11	diastole	8	B	500	systole
190.11840000000007	0.0756319634965621	11	diastole	9	B	500	systole
190.67020000000002	0.0756319634965621	11	diastole	10	B	500	systole
191.2152000000001	0.0756319634965621	11	diastole	11	B	500	systole
191.77099999999996	0.0756319634965621	11	diastole	12	B	500	systole
192.35090000000014	0.0756319634965621	11	diastole	13	B	500	systole
192.92110000000002	0.0756319634965621	11	diastole	14	B	500	systole
193.49080000000004	0.0756319634965621	11	diastole	15	B	500	systole
194.06079999999997	0.0756319634965621	11	diastole	16	B	500	systole
194.65080000000012	0.0756319634965621	11	diastole	17	B	500	systole
199.18960000000015	0.0750004251603968	12	systole	1	B	500	diastole
199.79020000000014	0.0750004251603968	12	systole	2	B	500	diastole
200.39049999999997	0.0750004251603968	12	systole	3	B	500	diastole
200.9906000000001	0.0750004251603968	12	systole	4	B	500	diastole
201.58040000000005	0.0750004251603968	12	systole	5	B	500	diastole
202.1703	0.0750004251603968	12	systole	6	B	500	diastole
202.76999999999998	0.0750004251603968	12	systole	7	B	500	diastole
203.3696	0.0750004251603968	12	systole	8	B	500	diastole
203.94960000000015	0.0750004251603968	12	systole	9	B	500	diastole
204.52980000000002	0.0750004251603968	12	systole	10	B	500	diastole
205.0996	0.0750004251603968	12	systole	11	B	500	diastole
205.6735000000001	0.0750004251603968	12	systole	12	B	500	diastole
206.23230000000012	0.0750004251603968	12	systole	13	B	500	diastole
206.79590000000007	0.0750004251603968	12	systole	14	B	500	diastole
207.36580000000004	0.0750004251603968	12	systole	15	B	500	diastole
207.9199000000001	0.0750004251603968	12	systole	16	B	500	diastole
213.34660000000008	0.0724964187829755	13	diastole	1	B	500	diastole
213.8967	0.0724964187829755	13	diastole	2	B	500	diastole
214.45659999999998	0.0724964187829755	13	diastole	3	B	500	diastole
215.00660000000016	0.0724964187829755	13	diastole	4	B	500	diastole
215.53830000000016	0.0724964187829755	13	diastole	5	B	500	diastole
216.10159999999996	0.0724964187829755	13	diastole	6	B	500	diastole
216.68150000000014	0.0724964187829755	13	diastole	7	B	500	diastole
217.27140000000009	0.0724964187829755	13	diastole	8	B	500	diastole
217.85159999999996	0.0724964187829755	13	diastole	9	B	500	diastole
218.43970000000013	0.0724964187829755	13	diastole	10	B	500	diastole
219.01970000000006	0.0724964187829755	13	diastole	11	B	500	diastole
219.5811000000001	0.0724964187829755	13	diastole	12	B	500	diastole
220.14139999999998	0.0724964187829755	13	diastole	13	B	500	diastole
220.69129999999996	0.0724964187829755	13	diastole	14	B	500	diastole
221.23300000000017	0.0724964187829755	13	diastole	15	B	500	diastole
221.7813000000001	0.0724964187829755	13	diastole	16	B	500	diastole
222.32960000000003	0.0724964187829755	13	diastole	17	B	500	diastole
227.05330000000004	0.0730012553394772	14	diastole	1	B	500	systole
227.59339999999997	0.0730012553394772	14	diastole	2	B	500	systole
228.12650000000008	0.0730012553394772	14	diastole	3	B	500	systole
228.4000000000001	0.0730012553394772	14	diastole	4	B	500	systole
228.69000000000005	0.0730012553394772	14	diastole	5	B	500	systole
229.14970000000017	0.0730012553394772	14	diastole	6	B	500	systole
229.65970000000016	0.0730012553394772	14	diastole	7	B	500	systole
230.14290000000005	0.0730012553394772	14	diastole	8	B	500	systole
230.60170000000016	0.0730012553394772	14	diastole	9	B	500	systole
231.10170000000016	0.0730012553394772	14	diastole	10	B	500	systole
231.60180000000014	0.0730012553394772	14	diastole	11	B	500	systole
232.10350000000017	0.0730012553394772	14	diastole	12	B	500	systole
232.64350000000013	0.0730012553394772	14	diastole	13	B	500	systole
233.1835000000001	0.0730012553394772	14	diastole	14	B	500	systole
233.79179999999997	0.0730012553394772	14	diastole	15	B	500	systole
234.45000000000005	0.0730012553394772	14	diastole	16	B	500	systole
235.10000000000014	0.0730012553394772	14	diastole	17	B	500	systole
235.80660000000012	0.0730012553394772	14	diastole	18	B	500	systole
239.2514000000001	0.0837481318740174	15	systole	1	B	500	systole
239.87149999999997	0.0837481318740174	15	systole	2	B	500	systole
240.4915000000001	0.0837481318740174	15	systole	3	B	500	systole
241.11149999999998	0.0837481318740174	15	systole	4	B	500	systole
241.70990000000006	0.0837481318740174	15	systole	5	B	500	systole
242.30650000000014	0.0837481318740174	15	systole	6	B	500	systole
242.8832	0.0837481318740174	15	systole	7	B	500	systole
243.47320000000013	0.0837481318740174	15	systole	8	B	500	systole
244.05740000000014	0.0837481318740174	15	systole	9	B	500	systole
244.64570000000003	0.0837481318740174	15	systole	10	B	500	systole
245.24570000000017	0.0837481318740174	15	systole	11	B	500	systole
245.82979999999998	0.0837481318740174	15	systole	12	B	500	systole
246.3841	0.0837481318740174	15	systole	13	B	500	systole
246.95820000000003	0.0837481318740174	15	systole	14	B	500	systole
247.5381	0.0837481318740174	15	systole	15	B	500	systole
248.11239999999998	0.0837481318740174	15	systole	16	B	500	systole
250.38650000000007	0.0724935954203829	16	systole	1	B	500	diastole
250.9864	0.0724935954203829	16	systole	2	B	500	diastole
251.58650000000011	0.0724935954203829	16	systole	3	B	500	diastole
252.2065	0.0724935954203829	16	systole	4	B	500	diastole
252.82650000000012	0.0724935954203829	16	systole	5	B	500	diastole
253.45810000000006	0.0724935954203829	16	systole	6	B	500	diastole
254.1014	0.0724935954203829	16	systole	7	B	500	diastole
254.7174	0.0724935954203829	16	systole	8	B	500	diastole
255.33000000000015	0.0724935954203829	16	systole	9	B	500	diastole
255.94170000000008	0.0724935954203829	16	systole	10	B	500	diastole
256.5317	0.0724935954203829	16	systole	11	B	500	diastole
257.12170000000015	0.0724935954203829	16	systole	12	B	500	diastole
257.7215000000001	0.0724935954203829	16	systole	13	B	500	diastole
258.33590000000004	0.0724935954203829	16	systole	14	B	500	diastole
258.95590000000016	0.0724935954203829	16	systole	15	B	500	diastole
259.5649000000001	0.0724935954203829	16	systole	16	B	500	diastole
260.1748	0.0724935954203829	16	systole	17	B	500	diastole
267.1252000000002	0.0787714061443694	17	systole	1	B	500	diastole
267.74670000000015	0.0787714061443694	17	systole	2	B	500	diastole
268.3683000000001	0.0787714061443694	17	systole	3	B	500	diastole
268.97310000000016	0.0787714061443694	17	systole	4	B	500	diastole
269.57320000000004	0.0787714061443694	17	systole	5	B	500	diastole
270.1732000000002	0.0787714061443694	17	systole	6	B	500	diastole
270.7518	0.0787714061443694	17	systole	7	B	500	diastole
271.3420000000001	0.0787714061443694	17	systole	8	B	500	diastole
271.92409999999995	0.0787714061443694	17	systole	9	B	500	diastole
272.51390000000015	0.0787714061443694	17	systole	10	B	500	diastole
273.0781000000002	0.0787714061443694	17	systole	11	B	500	diastole
273.64329999999995	0.0787714061443694	17	systole	12	B	500	diastole
274.2175	0.0787714061443694	17	systole	13	B	500	diastole
274.79740000000015	0.0787714061443694	17	systole	14	B	500	diastole
275.36530000000016	0.0787714061443694	17	systole	15	B	500	diastole
275.9398000000001	0.0787714061443694	17	systole	16	B	500	diastole
278.89260000000013	0.0725114999804645	18	systole	1	B	500	systole
279.49250000000006	0.0725114999804645	18	systole	2	B	500	systole
280.0883000000001	0.0725114999804645	18	systole	3	B	500	systole
280.64869999999996	0.0725114999804645	18	systole	4	B	500	systole
281.20910000000003	0.0725114999804645	18	systole	5	B	500	systole
281.75919999999996	0.0725114999804645	18	systole	6	B	500	systole
282.30330000000004	0.0725114999804645	18	systole	7	B	500	systole
282.8430000000001	0.0725114999804645	18	systole	8	B	500	systole
283.35580000000004	0.0725114999804645	18	systole	9	B	500	systole
283.8782000000001	0.0725114999804645	18	systole	10	B	500	systole
284.462	0.0725114999804645	18	systole	11	B	500	systole
285.05190000000016	0.0725114999804645	18	systole	12	B	500	systole
285.6816000000001	0.0725114999804645	18	systole	13	B	500	systole
286.3315	0.0725114999804645	18	systole	14	B	500	systole
286.99490000000014	0.0725114999804645	18	systole	15	B	500	systole
287.6713	0.0725114999804645	18	systole	16	B	500	systole
288.30110000000013	0.0725114999804645	18	systole	17	B	500	systole
292.0884000000001	0.0768787749693729	19	diastole	1	B	500	systole
292.63840000000005	0.0768787749693729	19	diastole	2	B	500	systole
293.1717000000001	0.0768787749693729	19	diastole	3	B	500	systole
293.6717000000001	0.0768787749693729	19	diastole	4	B	500	systole
294.22170000000006	0.0768787749693729	19	diastole	5	B	500	systole
294.77330000000006	0.0768787749693729	19	diastole	6	B	500	systole
295.3433	0.0768787749693729	19	diastole	7	B	500	systole
295.9232000000002	0.0768787749693729	19	diastole	8	B	500	systole
296.49310000000014	0.0768787749693729	19	diastole	9	B	500	systole
297.0631000000001	0.0768787749693729	19	diastole	10	B	500	systole
297.6531	0.0768787749693729	19	diastole	11	B	500	systole
298.2347	0.0768787749693729	19	diastole	12	B	500	systole
298.8646000000001	0.0768787749693729	19	diastole	13	B	500	systole
299.4860000000001	0.0768787749693729	19	diastole	14	B	500	systole
300.1535000000001	0.0768787749693729	19	diastole	15	B	500	systole
300.8031000000001	0.0768787749693729	19	diastole	16	B	500	systole
303.9462000000001	0.0769836548715829	20	diastole	1	B	500	systole
304.5258000000001	0.0769836548715829	20	diastole	2	B	500	systole
305.10530000000017	0.0769836548715829	20	diastole	3	B	500	systole
305.66769999999997	0.0769836548715829	20	diastole	4	B	500	systole
306.2211	0.0769836548715829	20	diastole	5	B	500	systole
306.7646	0.0769836548715829	20	diastole	6	B	500	systole
307.32349999999997	0.0769836548715829	20	diastole	7	B	500	systole
307.8832	0.0769836548715829	20	diastole	8	B	500	systole
308.4462000000001	0.0769836548715829	20	diastole	9	B	500	systole
308.9987000000001	0.0769836548715829	20	diastole	10	B	500	systole
309.5766000000001	0.0769836548715829	20	diastole	11	B	500	systole
310.15610000000015	0.0769836548715829	20	diastole	12	B	500	systole
310.78610000000003	0.0769836548715829	20	diastole	13	B	500	systole
311.4181000000001	0.0769836548715829	20	diastole	14	B	500	systole
312.0540000000001	0.0769836548715829	20	diastole	15	B	500	systole
312.7194000000002	0.0769836548715829	20	diastole	16	B	500	systole
316.35670000000005	0.0776143716066144	21	diastole	1	B	500	systole
316.9184	0.0776143716066144	21	diastole	2	B	500	systole
317.4983	0.0776143716066144	21	diastole	3	B	500	systole
318.06989999999996	0.0776143716066144	21	diastole	4	B	500	systole
318.6499000000001	0.0776143716066144	21	diastole	5	B	500	systole
319.22990000000004	0.0776143716066144	21	diastole	6	B	500	systole
319.77650000000017	0.0776143716066144	21	diastole	7	B	500	systole
320.3465000000001	0.0776143716066144	21	diastole	8	B	500	systole
320.9162000000001	0.0776143716066144	21	diastole	9	B	500	systole
321.4861000000001	0.0776143716066144	21	diastole	10	B	500	systole
322.0395000000001	0.0776143716066144	21	diastole	11	B	500	systole
322.6095	0.0776143716066144	21	diastole	12	B	500	systole
323.17949999999996	0.0776143716066144	21	diastole	13	B	500	systole
323.73940000000016	0.0776143716066144	21	diastole	14	B	500	systole
324.2995000000001	0.0776143716066144	21	diastole	15	B	500	systole
324.8596	0.0776143716066144	21	diastole	16	B	500	systole
325.42949999999996	0.0776143716066144	21	diastole	17	B	500	systole
328.58490000000006	0.0712500715162605	22	systole	1	B	500	diastole
329.1648	0.0712500715162605	22	systole	2	B	500	diastole
329.73490000000015	0.0712500715162605	22	systole	3	B	500	diastole
330.3049000000001	0.0712500715162605	22	systole	4	B	500	diastole
330.8749	0.0712500715162605	22	systole	5	B	500	diastole
331.4347	0.0712500715162605	22	systole	6	B	500	diastole
332.00490000000013	0.0712500715162605	22	systole	7	B	500	diastole
332.5751	0.0712500715162605	22	systole	8	B	500	diastole
333.135	0.0712500715162605	22	systole	9	B	500	diastole
333.7049000000002	0.0712500715162605	22	systole	10	B	500	diastole
334.2650000000001	0.0712500715162605	22	systole	11	B	500	diastole
334.82500000000005	0.0712500715162605	22	systole	12	B	500	diastole
335.3593000000001	0.0712500715162605	22	systole	13	B	500	diastole
335.8995	0.0712500715162605	22	systole	14	B	500	diastole
336.42340000000013	0.0712500715162605	22	systole	15	B	500	diastole
336.9534000000001	0.0712500715162605	22	systole	16	B	500	diastole
337.4818	0.0712500715162605	22	systole	17	B	500	diastole
340.08400000000006	0.066878399986308	23	systole	1	B	500	systole
340.61400000000003	0.066878399986308	23	systole	2	B	500	systole
341.1699000000001	0.066878399986308	23	systole	3	B	500	systole
341.71990000000005	0.066878399986308	23	systole	4	B	500	systole
342.28570000000013	0.066878399986308	23	systole	5	B	500	systole
342.8415	0.066878399986308	23	systole	6	B	500	systole
343.40150000000017	0.066878399986308	23	systole	7	B	500	systole
343.9615000000001	0.066878399986308	23	systole	8	B	500	systole
344.52740000000017	0.066878399986308	23	systole	9	B	500	systole
345.11310000000003	0.066878399986308	23	systole	10	B	500	systole
345.693	0.066878399986308	23	systole	11	B	500	systole
346.27290000000016	0.066878399986308	23	systole	12	B	500	systole
346.8447000000001	0.066878399986308	23	systole	13	B	500	systole
347.42640000000006	0.066878399986308	23	systole	14	B	500	systole
348.02160000000003	0.066878399986308	23	systole	15	B	500	systole
348.6223	0.066878399986308	23	systole	16	B	500	systole
349.21230000000014	0.066878399986308	23	systole	17	B	500	systole
349.8171	0.066878399986308	23	systole	18	B	500	systole
352.1725000000001	0.0731240414315834	24	systole	1	B	500	diastole
352.7424000000001	0.0731240414315834	24	systole	2	B	500	diastole
353.31230000000005	0.0731240414315834	24	systole	3	B	500	diastole
353.8756000000001	0.0731240414315834	24	systole	4	B	500	diastole
354.42470000000003	0.0731240414315834	24	systole	5	B	500	diastole
354.9846	0.0731240414315834	24	systole	6	B	500	diastole
355.55449999999996	0.0731240414315834	24	systole	7	B	500	diastole
356.1245000000001	0.0731240414315834	24	systole	8	B	500	diastole
356.71410000000014	0.0731240414315834	24	systole	9	B	500	diastole
357.2946000000002	0.0731240414315834	24	systole	10	B	500	diastole
357.8845000000001	0.0731240414315834	24	systole	11	B	500	diastole
358.46450000000004	0.0731240414315834	24	systole	12	B	500	diastole
359.03470000000016	0.0731240414315834	24	systole	13	B	500	diastole
359.5944000000002	0.0731240414315834	24	systole	14	B	500	diastole
360.154	0.0731240414315834	24	systole	15	B	500	diastole
360.72389999999996	0.0731240414315834	24	systole	16	B	500	diastole
361.3457000000001	0.0731240414315834	24	systole	17	B	500	diastole
363.69090000000006	0.0725236986181698	25	systole	1	B	500	systole
364.26070000000004	0.0725236986181698	25	systole	2	B	500	systole
364.8263000000002	0.0725236986181698	25	systole	3	B	500	systole
365.38610000000017	0.0725236986181698	25	systole	4	B	500	systole
365.95600000000013	0.0725236986181698	25	systole	5	B	500	systole
366.5258000000001	0.0725236986181698	25	systole	6	B	500	systole
367.0905	0.0725236986181698	25	systole	7	B	500	systole
367.6445000000001	0.0725236986181698	25	systole	8	B	500	systole
368.2039	0.0725236986181698	25	systole	9	B	500	systole
368.77390000000014	0.0725236986181698	25	systole	10	B	500	systole
369.3439000000001	0.0725236986181698	25	systole	11	B	500	systole
369.89880000000016	0.0725236986181698	25	systole	12	B	500	systole
370.4683	0.0725236986181698	25	systole	13	B	500	systole
371.038	0.0725236986181698	25	systole	14	B	500	systole
371.6079	0.0725236986181698	25	systole	15	B	500	systole
372.17790000000014	0.0725236986181698	25	systole	16	B	500	systole
372.7682	0.0725236986181698	25	systole	17	B	500	systole
373.36350000000016	0.0725236986181698	25	systole	18	B	500	systole
380.1536000000001	0.073751387419179	26	diastole	1	B	500	systole
380.72270000000003	0.073751387419179	26	diastole	2	B	500	systole
381.2921000000001	0.073751387419179	26	diastole	3	B	500	systole
381.86159999999995	0.073751387419179	26	diastole	4	B	500	systole
382.4229	0.073751387419179	26	diastole	5	B	500	systole
382.97680000000014	0.073751387419179	26	diastole	6	B	500	systole
383.55690000000004	0.073751387419179	26	diastole	7	B	500	systole
384.13710000000015	0.073751387419179	26	diastole	8	B	500	systole
384.7171000000001	0.073751387419179	26	diastole	9	B	500	systole
385.2971	0.073751387419179	26	diastole	10	B	500	systole
385.8591000000001	0.073751387419179	26	diastole	11	B	500	systole
386.4290000000001	0.073751387419179	26	diastole	12	B	500	systole
387.0173	0.073751387419179	26	diastole	13	B	500	systole
387.59720000000016	0.073751387419179	26	diastole	14	B	500	systole
388.1772000000001	0.073751387419179	26	diastole	15	B	500	systole
388.8351	0.073751387419179	26	diastole	16	B	500	systole
389.4851000000001	0.073751387419179	26	diastole	17	B	500	systole
391.94050000000016	0.07936460187193	27	systole	1	B	500	systole
392.57040000000006	0.07936460187193	27	systole	2	B	500	systole
393.18050000000017	0.07936460187193	27	systole	3	B	500	systole
393.79060000000004	0.07936460187193	27	systole	4	B	500	systole
394.37070000000017	0.07936460187193	27	systole	5	B	500	systole
394.9507000000001	0.07936460187193	27	systole	6	B	500	systole
395.5308	0.07936460187193	27	systole	7	B	500	systole
396.0576000000001	0.07936460187193	27	systole	8	B	500	systole
396.58090000000016	0.07936460187193	27	systole	9	B	500	systole
397.1509000000001	0.07936460187193	27	systole	10	B	500	systole
397.7309	0.07936460187193	27	systole	11	B	500	systole
398.31100000000015	0.07936460187193	27	systole	12	B	500	systole
398.8751	0.07936460187193	27	systole	13	B	500	systole
399.44500000000016	0.07936460187193	27	systole	14	B	500	systole
400.0050000000001	0.07936460187193	27	systole	15	B	500	systole
400.5549000000001	0.07936460187193	27	systole	16	B	500	systole
401.1091000000001	0.07936460187193	27	systole	17	B	500	systole
401.66910000000007	0.07936460187193	27	systole	18	B	500	systole
404.8153	0.0723926245700568	28	diastole	1	B	500	diastole
405.3754000000001	0.0723926245700568	28	diastole	2	B	500	diastole
405.93550000000005	0.0723926245700568	28	diastole	3	B	500	diastole
406.5167000000001	0.0723926245700568	28	diastole	4	B	500	diastole
407.07680000000005	0.0723926245700568	28	diastole	5	B	500	diastole
407.63700000000017	0.0723926245700568	28	diastole	6	B	500	diastole
408.2056	0.0723926245700568	28	diastole	7	B	500	diastole
408.75739999999996	0.0723926245700568	28	diastole	8	B	500	diastole
409.33889999999997	0.0723926245700568	28	diastole	9	B	500	diastole
409.93730000000005	0.0723926245700568	28	diastole	10	B	500	diastole
410.53570000000013	0.0723926245700568	28	diastole	11	B	500	diastole
411.16700000000014	0.0723926245700568	28	diastole	12	B	500	diastole
411.81650000000013	0.0723926245700568	28	diastole	13	B	500	diastole
412.4819	0.0723926245700568	28	diastole	14	B	500	diastole
413.2066	0.0723926245700568	28	diastole	15	B	500	diastole
413.85630000000015	0.0723926245700568	28	diastole	16	B	500	diastole
419.1766	0.0731120312120765	29	diastole	1	B	500	diastole
419.74660000000017	0.0731120312120765	29	diastole	2	B	500	diastole
420.30650000000014	0.0731120312120765	29	diastole	3	B	500	diastole
420.8665000000001	0.0731120312120765	29	diastole	4	B	500	diastole
421.43510000000015	0.0731120312120765	29	diastole	5	B	500	diastole
422.0151000000001	0.0731120312120765	29	diastole	6	B	500	diastole
422.5965000000001	0.0731120312120765	29	diastole	7	B	500	diastole
423.1865	0.0731120312120765	29	diastole	8	B	500	diastole
423.7482	0.0731120312120765	29	diastole	9	B	500	diastole
424.3281000000002	0.0731120312120765	29	diastole	10	B	500	diastole
424.9082000000001	0.0731120312120765	29	diastole	11	B	500	diastole
425.52639999999997	0.0731120312120765	29	diastole	12	B	500	diastole
426.1667	0.0731120312120765	29	diastole	13	B	500	diastole
426.81690000000003	0.0731120312120765	29	diastole	14	B	500	diastole
427.46500000000015	0.0731120312120765	29	diastole	15	B	500	diastole
428.105	0.0731120312120765	29	diastole	16	B	500	diastole
432.3302000000001	0.0750097095151431	30	diastole	1	B	500	diastole
432.90060000000017	0.0750097095151431	30	diastole	2	B	500	diastole
433.47990000000004	0.0750097095151431	30	diastole	3	B	500	diastole
434.02510000000007	0.0750097095151431	30	diastole	4	B	500	diastole
434.5951	0.0750097095151431	30	diastole	5	B	500	diastole
435.14660000000003	0.0750097095151431	30	diastole	6	B	500	diastole
435.70669999999996	0.0750097095151431	30	diastole	7	B	500	diastole
436.2686000000001	0.0750097095151431	30	diastole	8	B	500	diastole
436.81050000000005	0.0750097095151431	30	diastole	9	B	500	diastole
437.3523	0.0750097095151431	30	diastole	10	B	500	diastole
437.93190000000004	0.0750097095151431	30	diastole	11	B	500	diastole
438.5114000000001	0.0750097095151431	30	diastole	12	B	500	diastole
439.1418000000001	0.0750097095151431	30	diastole	13	B	500	diastole
439.77210000000014	0.0750097095151431	30	diastole	14	B	500	diastole
440.4122	0.0750097095151431	30	diastole	15	B	500	diastole
441.0784000000001	0.0750097095151431	30	diastole	16	B	500	diastole
445.15890000000013	0.0787574875284917	31	systole	1	B	500	systole
445.73890000000006	0.0787574875284917	31	systole	2	B	500	systole
446.27740000000017	0.0787574875284917	31	systole	3	B	500	systole
446.8138000000001	0.0787574875284917	31	systole	4	B	500	systole
447.36220000000003	0.0787574875284917	31	systole	5	B	500	systole
447.92060000000015	0.0787574875284917	31	systole	6	B	500	systole
448.4689000000001	0.0787574875284917	31	systole	7	B	500	systole
449.0231000000001	0.0787574875284917	31	systole	8	B	500	systole
449.59310000000005	0.0787574875284917	31	systole	9	B	500	systole
450.16319999999996	0.0787574875284917	31	systole	10	B	500	systole
450.7532000000001	0.0787574875284917	31	systole	11	B	500	systole
451.3432	0.0787574875284917	31	systole	12	B	500	systole
451.9334000000001	0.0787574875284917	31	systole	13	B	500	systole
452.53520000000003	0.0787574875284917	31	systole	14	B	500	systole
453.12530000000015	0.0787574875284917	31	systole	15	B	500	systole
453.72670000000016	0.0787574875284917	31	systole	16	B	500	systole
454.3126	0.0787574875284917	31	systole	17	B	500	systole
456.58670000000006	0.0731289315735921	32	systole	1	B	500	systole
457.14660000000003	0.0731289315735921	32	systole	2	B	500	systole
457.7066	0.0731289315735921	32	systole	3	B	500	systole
458.2667000000001	0.0731289315735921	32	systole	4	B	500	systole
458.81680000000006	0.0731289315735921	32	systole	5	B	500	systole
459.35660000000007	0.0731289315735921	32	systole	6	B	500	systole
459.8809000000001	0.0731289315735921	32	systole	7	B	500	systole
460.40920000000006	0.0731289315735921	32	systole	8	B	500	systole
461.01750000000015	0.0731289315735921	32	systole	9	B	500	systole
461.63750000000005	0.0731289315735921	32	systole	10	B	500	systole
462.28750000000014	0.0731289315735921	32	systole	11	B	500	systole
462.9275	0.0731289315735921	32	systole	12	B	500	systole
463.5575000000001	0.0731289315735921	32	systole	13	B	500	systole
464.269	0.0731289315735921	32	systole	14	B	500	systole
464.89890000000014	0.0731289315735921	32	systole	15	B	500	systole
465.5548000000001	0.0731289315735921	32	systole	16	B	500	systole
466.2049000000002	0.0731289315735921	32	systole	17	B	500	systole
471.61969999999997	0.0750087191117927	33	systole	1	B	500	diastole
472.174	0.0750087191117927	33	systole	2	B	500	diastole
472.7324000000001	0.0750087191117927	33	systole	3	B	500	diastole
473.2868000000001	0.0750087191117927	33	systole	4	B	500	diastole
473.8465000000001	0.0750087191117927	33	systole	5	B	500	diastole
474.4062000000001	0.0750087191117927	33	systole	6	B	500	diastole
474.9602	0.0750087191117927	33	systole	7	B	500	diastole
475.4928	0.0750087191117927	33	systole	8	B	500	diastole
476.05320000000006	0.0750087191117927	33	systole	9	B	500	diastole
476.61350000000016	0.0750087191117927	33	systole	10	B	500	diastole
477.2035000000001	0.0750087191117927	33	systole	11	B	500	diastole
477.83320000000003	0.0750087191117927	33	systole	12	B	500	diastole
478.46299999999997	0.0750087191117927	33	systole	13	B	500	diastole
479.11310000000003	0.0750087191117927	33	systole	14	B	500	diastole
479.7333000000001	0.0750087191117927	33	systole	15	B	500	diastole
480.38059999999996	0.0750087191117927	33	systole	16	B	500	diastole
481.0455000000002	0.0750087191117927	33	systole	17	B	500	diastole
483.5335	0.0781257189228199	34	systole	1	B	500	systole
484.13350000000014	0.0781257189228199	34	systole	2	B	500	systole
484.73350000000005	0.0781257189228199	34	systole	3	B	500	systole
485.3133	0.0781257189228199	34	systole	4	B	500	systole
485.89160000000015	0.0781257189228199	34	systole	5	B	500	systole
486.48160000000007	0.0781257189228199	34	systole	6	B	500	systole
487.02420000000006	0.0781257189228199	34	systole	7	B	500	systole
487.5842	0.0781257189228199	34	systole	8	B	500	systole
488.14419999999996	0.0781257189228199	34	systole	9	B	500	systole
488.7042000000001	0.0781257189228199	34	systole	10	B	500	systole
489.25250000000005	0.0781257189228199	34	systole	11	B	500	systole
489.78920000000016	0.0781257189228199	34	systole	12	B	500	systole
490.34360000000015	0.0781257189228199	34	systole	13	B	500	systole
490.9037000000001	0.0781257189228199	34	systole	14	B	500	systole
491.47350000000006	0.0781257189228199	34	systole	15	B	500	systole
492.0535	0.0781257189228199	34	systole	16	B	500	systole
492.63350000000014	0.0781257189228199	34	systole	17	B	500	systole
495.49670000000015	0.0724907250260002	35	systole	1	B	500	systole
496.0666000000001	0.0724907250260002	35	systole	2	B	500	systole
496.63650000000007	0.0724907250260002	35	systole	3	B	500	systole
497.20090000000005	0.0724907250260002	35	systole	4	B	500	systole
497.77110000000016	0.0724907250260002	35	systole	5	B	500	systole
498.3466000000001	0.0724907250260002	35	systole	6	B	500	systole
498.9108000000001	0.0724907250260002	35	systole	7	B	500	systole
499.48070000000007	0.0724907250260002	35	systole	8	B	500	systole
500.0454	0.0724907250260002	35	systole	9	B	500	systole
500.63520000000017	0.0724907250260002	35	systole	10	B	500	systole
501.22530000000006	0.0724907250260002	35	systole	11	B	500	systole
501.81539999999995	0.0724907250260002	35	systole	12	B	500	systole
502.42550000000006	0.0724907250260002	35	systole	13	B	500	systole
503.04100000000017	0.0724907250260002	35	systole	14	B	500	systole
503.64869999999996	0.0724907250260002	35	systole	15	B	500	systole
504.2488000000001	0.0724907250260002	35	systole	16	B	500	systole
508.76970000000006	0.0756192499538883	36	diastole	1	B	500	diastole
509.3315	0.0756192499538883	36	diastole	2	B	500	diastole
509.90139999999997	0.0756192499538883	36	diastole	3	B	500	diastole
510.47140000000013	0.0756192499538883	36	diastole	4	B	500	diastole
511.0149000000001	0.0756192499538883	36	diastole	5	B	500	diastole
511.558	0.0756192499538883	36	diastole	6	B	500	diastole
512.1179	0.0756192499538883	36	diastole	7	B	500	diastole
512.6778000000002	0.0756192499538883	36	diastole	8	B	500	diastole
513.2297000000001	0.0756192499538883	36	diastole	9	B	500	diastole
513.7995000000001	0.0756192499538883	36	diastole	10	B	500	diastole
514.3795	0.0756192499538883	36	diastole	11	B	500	diastole
514.9596000000001	0.0756192499538883	36	diastole	12	B	500	diastole
515.5394000000001	0.0756192499538883	36	diastole	13	B	500	diastole
516.1193000000001	0.0756192499538883	36	diastole	14	B	500	diastole
516.6992	0.0756192499538883	36	diastole	15	B	500	diastole
517.2593000000002	0.0756192499538883	36	diastole	16	B	500	diastole
517.8193000000001	0.0756192499538883	36	diastole	17	B	500	diastole
521.0925	0.0699836689746007	37	diastole	1	B	500	systole
521.6521	0.0699836689746007	37	diastole	2	B	500	systole
522.2128	0.0699836689746007	37	diastole	3	B	500	systole
522.7731000000001	0.0699836689746007	37	diastole	4	B	500	systole
523.3334	0.0699836689746007	37	diastole	5	B	500	systole
523.8945000000001	0.0699836689746007	37	diastole	6	B	500	systole
524.4550000000002	0.0699836689746007	37	diastole	7	B	500	systole
525.0139000000001	0.0699836689746007	37	diastole	8	B	500	systole
525.5556000000001	0.0699836689746007	37	diastole	9	B	500	systole
526.1054000000001	0.0699836689746007	37	diastole	10	B	500	systole
526.6375	0.0699836689746007	37	diastole	11	B	500	systole
527.1873	0.0699836689746007	37	diastole	12	B	500	systole
527.7374	0.0699836689746007	37	diastole	13	B	500	systole
528.3274000000001	0.0699836689746007	37	diastole	14	B	500	systole
528.9556	0.0699836689746007	37	diastole	15	B	500	systole
529.5657000000001	0.0699836689746007	37	diastole	16	B	500	systole
532.0315	0.0743747686501592	38	diastole	1	B	500	systole
532.6216000000002	0.0743747686501592	38	diastole	2	B	500	systole
533.2116000000001	0.0743747686501592	38	diastole	3	B	500	systole
533.7915	0.0743747686501592	38	diastole	4	B	500	systole
534.3716000000002	0.0743747686501592	38	diastole	5	B	500	systole
534.9336000000001	0.0743747686501592	38	diastole	6	B	500	systole
535.4952000000001	0.0743747686501592	38	diastole	7	B	500	systole
536.065	0.0743747686501592	38	diastole	8	B	500	systole
536.6164000000001	0.0743747686501592	38	diastole	9	B	500	systole
537.1702	0.0743747686501592	38	diastole	10	B	500	systole
537.7199	0.0743747686501592	38	diastole	11	B	500	systole
538.2711000000002	0.0743747686501592	38	diastole	12	B	500	systole
538.8713	0.0743747686501592	38	diastole	13	B	500	systole
539.4715000000001	0.0743747686501592	38	diastole	14	B	500	systole
540.1514	0.0743747686501592	38	diastole	15	B	500	systole
540.8310000000001	0.0743747686501592	38	diastole	16	B	500	systole
541.5013000000001	0.0743747686501592	38	diastole	17	B	500	systole
545.3319000000001	0.0787621742929332	39	diastole	1	B	500	systole
545.9134000000001	0.0787621742929332	39	diastole	2	B	500	systole
546.5118	0.0787621742929332	39	diastole	3	B	500	systole
547.0913	0.0787621742929332	39	diastole	4	B	500	systole
547.6664000000001	0.0787621742929332	39	diastole	5	B	500	systole
548.2316000000001	0.0787621742929332	39	diastole	6	B	500	systole
548.8268	0.0787621742929332	39	diastole	7	B	500	systole
549.4268	0.0787621742929332	39	diastole	8	B	500	systole
550.0084000000002	0.0787621742929332	39	diastole	9	B	500	systole
550.5967	0.0787621742929332	39	diastole	10	B	500	systole
551.1793	0.0787621742929332	39	diastole	11	B	500	systole
551.7382	0.0787621742929332	39	diastole	12	B	500	systole
552.3002000000001	0.0787621742929332	39	diastole	13	B	500	systole
552.864	0.0787621742929332	39	diastole	14	B	500	systole
553.4341000000002	0.0787621742929332	39	diastole	15	B	500	systole
554.0299	0.0787621742929332	39	diastole	16	B	500	systole
559.0783000000001	0.0737174375681206	40	systole	1	B	500	diastole
559.6682000000001	0.0737174375681206	40	systole	2	B	500	diastole
560.2582	0.0737174375681206	40	systole	3	B	500	diastole
560.8382000000001	0.0737174375681206	40	systole	4	B	500	diastole
561.4181000000001	0.0737174375681206	40	systole	5	B	500	diastole
561.9982	0.0737174375681206	40	systole	6	B	500	diastole
562.5783000000001	0.0737174375681206	40	systole	7	B	500	diastole
563.1682000000001	0.0737174375681206	40	systole	8	B	500	diastole
563.7383	0.0737174375681206	40	systole	9	B	500	diastole
564.3125	0.0737174375681206	40	systole	10	B	500	diastole
564.8767	0.0737174375681206	40	systole	11	B	500	diastole
565.4466	0.0737174375681206	40	systole	12	B	500	diastole
566.0166000000002	0.0737174375681206	40	systole	13	B	500	diastole
566.5866000000001	0.0737174375681206	40	systole	14	B	500	diastole
567.1565	0.0737174375681206	40	systole	15	B	500	diastole
567.7466000000002	0.0737174375681206	40	systole	16	B	500	diastole
572.7549000000001	0.0737410625442862	41	diastole	1	B	500	systole
573.3266000000001	0.0737410625442862	41	diastole	2	B	500	systole
573.9066	0.0737410625442862	41	diastole	3	B	500	systole
574.4866000000002	0.0737410625442862	41	diastole	4	B	500	systole
575.0664999999999	0.0737410625442862	41	diastole	5	B	500	systole
575.6466	0.0737410625442862	41	diastole	6	B	500	systole
576.2267000000002	0.0737410625442862	41	diastole	7	B	500	systole
576.8067999999998	0.0737410625442862	41	diastole	8	B	500	systole
577.3767000000003	0.0737410625442862	41	diastole	9	B	500	systole
577.9467	0.0737410625442862	41	diastole	10	B	500	systole
578.5167000000001	0.0737410625442862	41	diastole	11	B	500	systole
579.1163999999999	0.0737410625442862	41	diastole	12	B	500	systole
579.7064	0.0737410625442862	41	diastole	13	B	500	systole
580.2964000000002	0.0737410625442862	41	diastole	14	B	500	systole
580.8966	0.0737410625442862	41	diastole	15	B	500	systole
581.5048000000002	0.0737410625442862	41	diastole	16	B	500	systole
582.1048000000001	0.0737410625442862	41	diastole	17	B	500	systole
584.4819000000002	0.0743547641905024	42	diastole	1	B	500	diastole
585.0813000000003	0.0743547641905024	42	diastole	2	B	500	diastole
585.6809000000003	0.0743547641905024	42	diastole	3	B	500	diastole
586.261	0.0743547641905024	42	diastole	4	B	500	diastole
586.8334	0.0743547641905024	42	diastole	5	B	500	diastole
587.3949000000002	0.0743547641905024	42	diastole	6	B	500	diastole
587.9648000000002	0.0743547641905024	42	diastole	7	B	500	diastole
588.5170000000003	0.0743547641905024	42	diastole	8	B	500	diastole
589.0959000000003	0.0743547641905024	42	diastole	9	B	500	diastole
589.6755000000003	0.0743547641905024	42	diastole	10	B	500	diastole
590.2654000000002	0.0743547641905024	42	diastole	11	B	500	diastole
590.8553999999999	0.0743547641905024	42	diastole	12	B	500	diastole
591.4349000000002	0.0743547641905024	42	diastole	13	B	500	diastole
592.0151000000001	0.0743547641905024	42	diastole	14	B	500	diastole
592.5951	0.0743547641905024	42	diastole	15	B	500	diastole
593.1952000000001	0.0743547641905024	42	diastole	16	B	500	diastole
593.8155000000002	0.0743547641905024	42	diastole	17	B	500	diastole
600.0581000000002	0.0737524124560877	43	systole	1	B	500	diastole
600.6381999999999	0.0737524124560877	43	systole	2	B	500	diastole
601.2183	0.0737524124560877	43	systole	3	B	500	diastole
601.7982000000002	0.0737524124560877	43	systole	4	B	500	diastole
602.3681999999999	0.0737524124560877	43	systole	5	B	500	diastole
602.9428000000003	0.0737524124560877	43	systole	6	B	500	diastole
603.5167000000001	0.0737524124560877	43	systole	7	B	500	diastole
604.1129000000001	0.0737524124560877	43	systole	8	B	500	diastole
604.7224000000001	0.0737524124560877	43	systole	9	B	500	diastole
605.3319000000001	0.0737524124560877	43	systole	10	B	500	diastole
605.9419000000003	0.0737524124560877	43	systole	11	B	500	diastole
606.5419000000002	0.0737524124560877	43	systole	12	B	500	diastole
607.1168000000002	0.0737524124560877	43	systole	13	B	500	diastole
607.6965	0.0737524124560877	43	systole	14	B	500	diastole
608.2761	0.0737524124560877	43	systole	15	B	500	diastole
608.8780000000002	0.0737524124560877	43	systole	16	B	500	diastole
612.1341000000002	0.0707496625836938	44	systole	1	B	500	systole
612.6641	0.0707496625836938	44	systole	2	B	500	systole
613.1941000000002	0.0707496625836938	44	systole	3	B	500	systole
613.7317000000003	0.0707496625836938	44	systole	4	B	500	systole
614.2460999999998	0.0707496625836938	44	systole	5	B	500	systole
614.7514999999999	0.0707496625836938	44	systole	6	B	500	systole
615.2556	0.0707496625836938	44	systole	7	B	500	systole
615.7739000000001	0.0707496625836938	44	systole	8	B	500	systole
616.4438	0.0707496625836938	44	systole	9	B	500	systole
617.1136000000001	0.0707496625836938	44	systole	10	B	500	systole
617.7736	0.0707496625836938	44	systole	11	B	500	systole
618.4335999999998	0.0707496625836938	44	systole	12	B	500	systole
619.0935	0.0707496625836938	44	systole	13	B	500	systole
619.7535000000003	0.0707496625836938	44	systole	14	B	500	systole
620.4490000000001	0.0707496625836938	44	systole	15	B	500	systole
621.1093000000001	0.0707496625836938	44	systole	16	B	500	systole
621.8591999999999	0.0707496625836938	44	systole	17	B	500	systole
625.1251000000002	0.0787638875190168	45	systole	1	B	500	systole
625.7347	0.0787638875190168	45	systole	2	B	500	systole
626.3292000000001	0.0787638875190168	45	systole	3	B	500	systole
626.9295000000002	0.0787638875190168	45	systole	4	B	500	systole
627.5298000000003	0.0787638875190168	45	systole	5	B	500	systole
628.1285000000003	0.0787638875190168	45	systole	6	B	500	systole
628.7478000000001	0.0787638875190168	45	systole	7	B	500	systole
629.3782000000001	0.0787638875190168	45	systole	8	B	500	systole
630.0086000000001	0.0787638875190168	45	systole	9	B	500	systole
630.6286	0.0787638875190168	45	systole	10	B	500	systole
631.2485999999999	0.0787638875190168	45	systole	11	B	500	systole
631.8525	0.0787638875190168	45	systole	12	B	500	systole
632.4367000000002	0.0787638875190168	45	systole	13	B	500	systole
633.0264000000002	0.0787638875190168	45	systole	14	B	500	systole
633.6163999999999	0.0787638875190168	45	systole	15	B	500	systole
634.2063000000003	0.0787638875190168	45	systole	16	B	500	systole
637.2683999999999	0.0737489919411018	46	systole	1	B	500	systole
637.9283	0.0737489919411018	46	systole	2	B	500	systole
638.5977000000003	0.0737489919411018	46	systole	3	B	500	systole
639.2375000000002	0.0737489919411018	46	systole	4	B	500	systole
639.8850000000002	0.0737489919411018	46	systole	5	B	500	systole
640.5055000000002	0.0737489919411018	46	systole	6	B	500	systole
641.1608000000001	0.0737489919411018	46	systole	7	B	500	systole
641.8223000000003	0.0737489919411018	46	systole	8	B	500	systole
642.4580000000001	0.0737489919411018	46	systole	9	B	500	systole
643.0722000000001	0.0737489919411018	46	systole	10	B	500	systole
643.6808000000001	0.0737489919411018	46	systole	11	B	500	systole
644.3008	0.0737489919411018	46	systole	12	B	500	systole
644.9250000000002	0.0737489919411018	46	systole	13	B	500	systole
645.5750000000003	0.0737489919411018	46	systole	14	B	500	systole
646.2566000000002	0.0737489919411018	46	systole	15	B	500	systole
649.8932	0.0806293509085662	47	diastole	1	B	500	systole
650.5630999999998	0.0806293509085662	47	diastole	2	B	500	systole
651.1932000000002	0.0806293509085662	47	diastole	3	B	500	systole
651.8130999999998	0.0806293509085662	47	diastole	4	B	500	systole
652.4449	0.0806293509085662	47	diastole	5	B	500	systole
653.0848000000001	0.0806293509085662	47	diastole	6	B	500	systole
653.7829999999999	0.0806293509085662	47	diastole	7	B	500	systole
654.4814999999999	0.0806293509085662	47	diastole	8	B	500	systole
655.1496999999999	0.0806293509085662	47	diastole	9	B	500	systole
655.8097000000002	0.0806293509085662	47	diastole	10	B	500	systole
656.4413	0.0806293509085662	47	diastole	11	B	500	systole
657.0828999999999	0.0806293509085662	47	diastole	12	B	500	systole
657.7146000000002	0.0806293509085662	47	diastole	13	B	500	systole
658.3549000000003	0.0806293509085662	47	diastole	14	B	500	systole
661.009	0.0793705235701054	48	systole	1	B	500	systole
661.6289999999999	0.0793705235701054	48	systole	2	B	500	systole
662.2431000000001	0.0793705235701054	48	systole	3	B	500	systole
662.8258000000001	0.0793705235701054	48	systole	4	B	500	systole
663.4259000000002	0.0793705235701054	48	systole	5	B	500	systole
664.0661	0.0793705235701054	48	systole	6	B	500	systole
664.7177000000001	0.0793705235701054	48	systole	7	B	500	systole
665.3578000000002	0.0793705235701054	48	systole	8	B	500	systole
665.9836	0.0793705235701054	48	systole	9	B	500	systole
666.5932000000003	0.0793705235701054	48	systole	10	B	500	systole
667.2028	0.0793705235701054	48	systole	11	B	500	systole
667.8128000000002	0.0793705235701054	48	systole	12	B	500	systole
668.4227000000001	0.0793705235701054	48	systole	13	B	500	systole
669.0172000000002	0.0793705235701054	48	systole	14	B	500	systole
669.6014	0.0793705235701054	48	systole	15	B	500	systole
670.2008000000001	0.0793705235701054	48	systole	16	B	500	systole
673.1997000000001	0.0750085687031969	49	systole	1	B	500	diastole
673.7798000000003	0.0750085687031969	49	systole	2	B	500	diastole
674.3796000000002	0.0750085687031969	49	systole	3	B	500	diastole
674.9794000000002	0.0750085687031969	49	systole	4	B	500	diastole
675.5799000000002	0.0750085687031969	49	systole	5	B	500	diastole
676.1801	0.0750085687031969	49	systole	6	B	500	diastole
676.79	0.0750085687031969	49	systole	7	B	500	diastole
677.4000000000001	0.0750085687031969	49	systole	8	B	500	diastole
678.0001000000002	0.0750085687031969	49	systole	9	B	500	diastole
678.6208000000001	0.0750085687031969	49	systole	10	B	500	diastole
679.241	0.0750085687031969	49	systole	11	B	500	diastole
679.8470000000002	0.0750085687031969	49	systole	12	B	500	diastole
680.4470999999999	0.0750085687031969	49	systole	13	B	500	diastole
681.0472	0.0750085687031969	49	systole	14	B	500	diastole
681.7024000000001	0.0750085687031969	49	systole	15	B	500	diastole
682.3522000000003	0.0750085687031969	49	systole	16	B	500	diastole
685.8259000000003	0.0812340482370927	50	systole	1	B	500	diastole
686.518	0.0812340482370927	50	systole	2	B	500	diastole
687.1965	0.0812340482370927	50	systole	3	B	500	diastole
687.8044	0.0812340482370927	50	systole	4	B	500	diastole
688.3944000000001	0.0812340482370927	50	systole	5	B	500	diastole
688.9844000000003	0.0812340482370927	50	systole	6	B	500	diastole
689.5754999999999	0.0812340482370927	50	systole	7	B	500	diastole
690.1934999999999	0.0812340482370927	50	systole	8	B	500	diastole
690.7852000000003	0.0812340482370927	50	systole	9	B	500	diastole
691.3957	0.0812340482370927	50	systole	10	B	500	diastole
692.0102999999999	0.0812340482370927	50	systole	11	B	500	diastole
692.6386000000002	0.0812340482370927	50	systole	12	B	500	diastole
693.2783	0.0812340482370927	50	systole	13	B	500	diastole
693.9286000000002	0.0812340482370927	50	systole	14	B	500	diastole
694.5707000000002	0.0812340482370927	50	systole	15	B	500	diastole
695.2073	0.0812340482370927	50	systole	16	B	500	diastole
699.2519000000002	0.0788741507567465	51	diastole	1	B	500	systole
699.8415	0.0788741507567465	51	diastole	2	B	500	systole
700.4315000000001	0.0788741507567465	51	diastole	3	B	500	systole
701.0181000000002	0.0788741507567465	51	diastole	4	B	500	systole
701.5861	0.0788741507567465	51	diastole	5	B	500	systole
702.1761999999999	0.0788741507567465	51	diastole	6	B	500	systole
702.7964999999999	0.0788741507567465	51	diastole	7	B	500	systole
703.4466000000002	0.0788741507567465	51	diastole	8	B	500	systole
704.1165000000001	0.0788741507567465	51	diastole	9	B	500	systole
704.7964999999999	0.0788741507567465	51	diastole	10	B	500	systole
705.5484000000001	0.0788741507567465	51	diastole	11	B	500	systole
706.3202999999999	0.0788741507567465	51	diastole	12	B	500	systole
707.0551	0.0788741507567465	51	diastole	13	B	500	systole
707.7435	0.0788741507567465	51	diastole	14	B	500	systole
708.4234999999999	0.0788741507567465	51	diastole	15	B	500	systole
711.5282000000002	0.0756294689490459	52	systole	1	B	500	systole
712.0981999999999	0.0756294689490459	52	systole	2	B	500	systole
712.6722	0.0756294689490459	52	systole	3	B	500	systole
713.2521000000002	0.0756294689490459	52	systole	4	B	500	systole
713.8263000000002	0.0756294689490459	52	systole	5	B	500	systole
714.4063999999998	0.0756294689490459	52	systole	6	B	500	systole
714.9865	0.0756294689490459	52	systole	7	B	500	systole
715.5763999999999	0.0756294689490459	52	systole	8	B	500	systole
716.1566000000003	0.0756294689490459	52	systole	9	B	500	systole
716.7366999999999	0.0756294689490459	52	systole	10	B	500	systole
717.3265999999999	0.0756294689490459	52	systole	11	B	500	systole
717.9167000000002	0.0756294689490459	52	systole	12	B	500	systole
718.5525000000002	0.0756294689490459	52	systole	13	B	500	systole
719.1824999999999	0.0756294689490459	52	systole	14	B	500	systole
719.8178000000003	0.0756294689490459	52	systole	15	B	500	systole
720.4538000000002	0.0756294689490459	52	systole	16	B	500	systole
724.0597000000002	0.0787157999584451	53	diastole	1	B	500	systole
724.6797000000001	0.0787157999584451	53	diastole	2	B	500	systole
725.2894000000001	0.0787157999584451	53	diastole	3	B	500	systole
725.8715000000002	0.0787157999584451	53	diastole	4	B	500	systole
726.4616000000001	0.0787157999584451	53	diastole	5	B	500	systole
727.0615000000003	0.0787157999584451	53	diastole	6	B	500	systole
727.6533	0.0787157999584451	53	diastole	7	B	500	systole
728.2735000000002	0.0787157999584451	53	diastole	8	B	500	systole
728.9234999999999	0.0787157999584451	53	diastole	9	B	500	systole
729.5735	0.0787157999584451	53	diastole	10	B	500	systole
729.8450000000003	0.0787157999584451	53	diastole	11	B	500	systole
730.1983	0.0787157999584451	53	diastole	12	B	500	systole
730.8283000000001	0.0787157999584451	53	diastole	13	B	500	systole
731.4667	0.0787157999584451	53	diastole	14	B	500	systole
732.1034	0.0787157999584451	53	diastole	15	B	500	systole
732.7233000000001	0.0787157999584451	53	diastole	16	B	500	systole
733.3435	0.0787157999584451	53	diastole	17	B	500	systole
736.8532	0.0781343322596512	54	systole	1	B	500	systole
737.4731999999999	0.0781343322596512	54	systole	2	B	500	systole
738.0932000000003	0.0781343322596512	54	systole	3	B	500	systole
738.7291	0.0781343322596512	54	systole	4	B	500	systole
739.3650000000002	0.0781343322596512	54	systole	5	B	500	systole
739.9949999999999	0.0781343322596512	54	systole	6	B	500	systole
740.6149	0.0781343322596512	54	systole	7	B	500	systole
741.2348999999999	0.0781343322596512	54	systole	8	B	500	systole
741.8645999999999	0.0781343322596512	54	systole	9	B	500	systole
742.4945000000002	0.0781343322596512	54	systole	10	B	500	systole
743.1448	0.0781343322596512	54	systole	11	B	500	systole
743.7951000000003	0.0781343322596512	54	systole	12	B	500	systole
744.4455000000003	0.0781343322596512	54	systole	13	B	500	systole
745.0398	0.0781343322596512	54	systole	14	B	500	systole
745.6399999999999	0.0781343322596512	54	systole	15	B	500	systole
749.1514000000002	0.0781184565857984	55	diastole	1	B	500	diastole
749.7813999999998	0.0781184565857984	55	diastole	2	B	500	diastole
750.4115000000002	0.0781184565857984	55	diastole	3	B	500	diastole
751.1080999999999	0.0781184565857984	55	diastole	4	B	500	diastole
751.788	0.0781184565857984	55	diastole	5	B	500	diastole
752.4949999999999	0.0781184565857984	55	diastole	6	B	500	diastole
753.1914999999999	0.0781184565857984	55	diastole	7	B	500	diastole
753.9045999999998	0.0781184565857984	55	diastole	8	B	500	diastole
754.5929000000001	0.0781184565857984	55	diastole	9	B	500	diastole
755.2829999999999	0.0781184565857984	55	diastole	10	B	500	diastole
755.9432000000002	0.0781184565857984	55	diastole	11	B	500	diastole
756.5832	0.0781184565857984	55	diastole	12	B	500	diastole
757.2231999999999	0.0781184565857984	55	diastole	13	B	500	diastole
757.8631	0.0781184565857984	55	diastole	14	B	500	diastole
765.0981999999999	0.0800796935800463	56	diastole	1	B	500	systole
765.7899000000002	0.0800796935800463	56	diastole	2	B	500	systole
766.4731999999999	0.0800796935800463	56	diastole	3	B	500	systole
767.1134000000002	0.0800796935800463	56	diastole	4	B	500	systole
767.7537000000002	0.0800796935800463	56	diastole	5	B	500	systole
768.3332	0.0800796935800463	56	diastole	6	B	500	systole
768.9126999999999	0.0800796935800463	56	diastole	7	B	500	systole
769.4414999999999	0.0800796935800463	56	diastole	8	B	500	systole
770.0212999999999	0.0800796935800463	56	diastole	9	B	500	systole
770.7111	0.0800796935800463	56	diastole	10	B	500	systole
771.3811000000001	0.0800796935800463	56	diastole	11	B	500	systole
772.0511000000001	0.0800796935800463	56	diastole	12	B	500	systole
772.7111	0.0800796935800463	56	diastole	13	B	500	systole
773.3876	0.0800796935800463	56	diastole	14	B	500	systole
774.1111000000001	0.0800796935800463	56	diastole	15	B	500	systole
776.7582000000002	0.0843524375814013	57	diastole	1	B	500	diastole
777.3699999999999	0.0843524375814013	57	diastole	2	B	500	diastole
777.9901	0.0843524375814013	57	diastole	3	B	500	diastole
778.5833000000002	0.0843524375814013	57	diastole	4	B	500	diastole
779.1633000000002	0.0843524375814013	57	diastole	5	B	500	diastole
779.7202000000002	0.0843524375814013	57	diastole	6	B	500	diastole
780.2836000000002	0.0843524375814013	57	diastole	7	B	500	diastole
780.8636999999999	0.0843524375814013	57	diastole	8	B	500	diastole
781.4353999999998	0.0843524375814013	57	diastole	9	B	500	diastole
782.0369000000001	0.0843524375814013	57	diastole	10	B	500	diastole
782.6469999999999	0.0843524375814013	57	diastole	11	B	500	diastole
783.239	0.0843524375814013	57	diastole	12	B	500	diastole
783.8391999999999	0.0843524375814013	57	diastole	13	B	500	diastole
784.4304999999999	0.0843524375814013	57	diastole	14	B	500	diastole
785.0407	0.0843524375814013	57	diastole	15	B	500	diastole
785.7072000000003	0.0843524375814013	57	diastole	16	B	500	diastole
786.3571000000002	0.0843524375814013	57	diastole	17	B	500	diastole
792.3634999999999	0.0887636561528779	58	diastole	1	B	500	systole
793.0735	0.0887636561528779	58	diastole	2	B	500	systole
793.7834000000003	0.0887636561528779	58	diastole	3	B	500	systole
794.4933000000001	0.0887636561528779	58	diastole	4	B	500	systole
795.1831999999999	0.0887636561528779	58	diastole	5	B	500	systole
795.873	0.0887636561528779	58	diastole	6	B	500	systole
796.5365000000002	0.0887636561528779	58	diastole	7	B	500	systole
797.1617000000001	0.0887636561528779	58	diastole	8	B	500	systole
797.8117000000002	0.0887636561528779	58	diastole	9	B	500	systole
798.4713999999999	0.0887636561528779	58	diastole	10	B	500	systole
799.1060000000002	0.0887636561528779	58	diastole	11	B	500	systole
799.7200000000003	0.0887636561528779	58	diastole	12	B	500	systole
800.3699000000001	0.0887636561528779	58	diastole	13	B	500	systole
801.0399000000002	0.0887636561528779	58	diastole	14	B	500	systole
805.0565000000001	0.0837508584954775	59	diastole	1	B	500	systole
805.7165	0.0837508584954775	59	diastole	2	B	500	systole
806.3566000000001	0.0837508584954775	59	diastole	3	B	500	systole
806.9967000000001	0.0837508584954775	59	diastole	4	B	500	systole
807.6183000000001	0.0837508584954775	59	diastole	5	B	500	systole
808.2505000000001	0.0837508584954775	59	diastole	6	B	500	systole
808.8914	0.0837508584954775	59	diastole	7	B	500	systole
809.5513000000001	0.0837508584954775	59	diastole	8	B	500	systole
810.1551	0.0837508584954775	59	diastole	9	B	500	systole
810.7583	0.0837508584954775	59	diastole	10	B	500	systole
811.3983000000003	0.0837508584954775	59	diastole	11	B	500	systole
812.0783000000001	0.0837508584954775	59	diastole	12	B	500	systole
812.7584000000002	0.0837508584954775	59	diastole	13	B	500	systole
813.4771000000001	0.0837508584954775	59	diastole	14	B	500	systole
816.6449000000002	0.0862545971758663	60	systole	1	B	500	diastole
817.3245999999999	0.0862545971758663	60	systole	2	B	500	diastole
818.0050000000001	0.0862545971758663	60	systole	3	B	500	diastole
818.6745000000001	0.0862545971758663	60	systole	4	B	500	diastole
819.3290000000002	0.0862545971758663	60	systole	5	B	500	diastole
819.9891000000002	0.0862545971758663	60	systole	6	B	500	diastole
820.6429000000003	0.0862545971758663	60	systole	7	B	500	diastole
821.2766000000001	0.0862545971758663	60	systole	8	B	500	diastole
821.9153000000001	0.0862545971758663	60	systole	9	B	500	diastole
822.5500000000002	0.0862545971758663	60	systole	10	B	500	diastole
823.2098000000001	0.0862545971758663	60	systole	11	B	500	diastole
823.8697999999999	0.0862545971758663	60	systole	12	B	500	diastole
824.4982	0.0862545971758663	60	systole	13	B	500	diastole
825.1381000000001	0.0862545971758663	60	systole	14	B	500	diastole
825.788	0.0862545971758663	60	systole	15	B	500	diastole
829.0540000000001	0.0818767312448471	61	systole	1	B	500	systole
829.6523000000002	0.0818767312448471	61	systole	2	B	500	systole
830.2622999999999	0.0818767312448471	61	systole	3	B	500	systole
830.8824	0.0818767312448471	61	systole	4	B	500	systole
831.5025	0.0818767312448471	61	systole	5	B	500	systole
832.1212	0.0818767312448471	61	systole	6	B	500	systole
832.7192	0.0818767312448471	61	systole	7	B	500	systole
833.3133000000003	0.0818767312448471	61	systole	8	B	500	systole
833.9033	0.0818767312448471	61	systole	9	B	500	systole
834.4874	0.0818767312448471	61	systole	10	B	500	systole
835.1115	0.0818767312448471	61	systole	11	B	500	systole
835.7415000000001	0.0818767312448471	61	systole	12	B	500	systole
836.4072000000001	0.0818767312448471	61	systole	13	B	500	systole
837.0774000000001	0.0818767312448471	61	systole	14	B	500	systole
837.7332999999999	0.0818767312448471	61	systole	15	B	500	systole
838.4169000000002	0.0818767312448471	61	systole	16	B	500	systole
841.1653000000001	0.0824989491375163	62	systole	1	B	500	diastole
841.8053	0.0824989491375163	62	systole	2	B	500	diastole
842.4454000000001	0.0824989491375163	62	systole	3	B	500	diastole
843.0853999999999	0.0824989491375163	62	systole	4	B	500	diastole
843.7040000000002	0.0824989491375163	62	systole	5	B	500	diastole
844.3340000000003	0.0824989491375163	62	systole	6	B	500	diastole
844.9996000000001	0.0824989491375163	62	systole	7	B	500	diastole
845.6596	0.0824989491375163	62	systole	8	B	500	diastole
846.3094999999998	0.0824989491375163	62	systole	9	B	500	diastole
846.9594000000002	0.0824989491375163	62	systole	10	B	500	diastole
847.6042000000002	0.0824989491375163	62	systole	11	B	500	diastole
848.2783	0.0824989491375163	62	systole	12	B	500	diastole
848.9639999999999	0.0824989491375163	62	systole	13	B	500	diastole
849.6440000000002	0.0824989491375163	62	systole	14	B	500	diastole
850.3089	0.0824989491375163	62	systole	15	B	500	diastole
853.3746999999998	0.0843679562094621	63	diastole	1	B	500	diastole
853.9886999999999	0.0843679562094621	63	diastole	2	B	500	diastole
854.6102000000001	0.0843679562094621	63	diastole	3	B	500	diastole
855.2401	0.0843679562094621	63	diastole	4	B	500	diastole
855.8694	0.0843679562094621	63	diastole	5	B	500	diastole
856.4913000000001	0.0843679562094621	63	diastole	6	B	500	diastole
857.0763999999999	0.0843679562094621	63	diastole	7	B	500	diastole
857.6498000000001	0.0843679562094621	63	diastole	8	B	500	diastole
858.2195999999999	0.0843679562094621	63	diastole	9	B	500	diastole
858.7896000000001	0.0843679562094621	63	diastole	10	B	500	diastole
859.3130000000001	0.0843679562094621	63	diastole	11	B	500	diastole
859.8415	0.0843679562094621	63	diastole	12	B	500	diastole
860.4115999999999	0.0843679562094621	63	diastole	13	B	500	diastole
861.0313999999998	0.0843679562094621	63	diastole	14	B	500	diastole
861.6916999999999	0.0843679562094621	63	diastole	15	B	500	diastole
862.3519999999999	0.0843679562094621	63	diastole	16	B	500	diastole
866.2964999999999	0.0800042989430949	64	diastole	1	B	500	systole
866.9167000000002	0.0800042989430949	64	diastole	2	B	500	systole
867.5266000000001	0.0800042989430949	64	diastole	3	B	500	systole
868.1266	0.0800042989430949	64	diastole	4	B	500	systole
868.7166000000002	0.0800042989430949	64	diastole	5	B	500	systole
869.29	0.0800042989430949	64	diastole	6	B	500	systole
869.8450000000003	0.0800042989430949	64	diastole	7	B	500	systole
870.3917999999999	0.0800042989430949	64	diastole	8	B	500	systole
870.9718000000003	0.0800042989430949	64	diastole	9	B	500	systole
871.5434	0.0800042989430949	64	diastole	10	B	500	systole
872.1333	0.0800042989430949	64	diastole	11	B	500	systole
872.7233000000001	0.0800042989430949	64	diastole	12	B	500	systole
873.3632000000002	0.0800042989430949	64	diastole	13	B	500	systole
874.0030999999999	0.0800042989430949	64	diastole	14	B	500	systole
874.6632	0.0800042989430949	64	diastole	15	B	500	systole
880.7966000000001	0.0912574083195068	65	diastole	1	B	500	diastole
881.5266000000001	0.0912574083195068	65	diastole	2	B	500	diastole
882.2566000000002	0.0912574083195068	65	diastole	3	B	500	diastole
882.9866000000002	0.0912574083195068	65	diastole	4	B	500	diastole
883.6964000000003	0.0912574083195068	65	diastole	5	B	500	diastole
884.4063999999998	0.0912574083195068	65	diastole	6	B	500	diastole
885.1079	0.0912574083195068	65	diastole	7	B	500	diastole
885.8013000000001	0.0912574083195068	65	diastole	8	B	500	diastole
886.5111999999999	0.0912574083195068	65	diastole	9	B	500	diastole
887.1931	0.0912574083195068	65	diastole	10	B	500	diastole
887.893	0.0912574083195068	65	diastole	11	B	500	diastole
888.5929000000001	0.0912574083195068	65	diastole	12	B	500	diastole
889.2930000000001	0.0912574083195068	65	diastole	13	B	500	diastole
896.6513	0.086234951915685	66	diastole	1	B	500	systole
897.2945	0.086234951915685	66	diastole	2	B	500	systole
897.9484000000002	0.086234951915685	66	diastole	3	B	500	systole
898.6179000000002	0.086234951915685	66	diastole	4	B	500	systole
899.2876000000001	0.086234951915685	66	diastole	5	B	500	systole
899.9395	0.086234951915685	66	diastole	6	B	500	systole
900.6194	0.086234951915685	66	diastole	7	B	500	systole
901.3076999999998	0.086234951915685	66	diastole	8	B	500	systole
901.9877999999999	0.086234951915685	66	diastole	9	B	500	systole
902.6377000000002	0.086234951915685	66	diastole	10	B	500	systole
903.2876000000001	0.086234951915685	66	diastole	11	B	500	systole
903.9378999999999	0.086234951915685	66	diastole	12	B	500	systole
904.6007	0.086234951915685	66	diastole	13	B	500	systole
905.2588000000001	0.086234951915685	66	diastole	14	B	500	systole
910.6161999999999	0.083127929479815	67	diastole	1	B	500	systole
911.2861000000003	0.083127929479815	67	diastole	2	B	500	systole
911.9378000000002	0.083127929479815	67	diastole	3	B	500	systole
912.5779000000002	0.083127929479815	67	diastole	4	B	500	systole
913.2179999999998	0.083127929479815	67	diastole	5	B	500	systole
913.8578000000002	0.083127929479815	67	diastole	6	B	500	systole
914.4812000000002	0.083127929479815	67	diastole	7	B	500	systole
915.1210999999998	0.083127929479815	67	diastole	8	B	500	systole
915.7628	0.083127929479815	67	diastole	9	B	500	systole
916.4328	0.083127929479815	67	diastole	10	B	500	systole
917.0826999999999	0.083127929479815	67	diastole	11	B	500	systole
917.7152999999998	0.083127929479815	67	diastole	12	B	500	systole
918.357	0.083127929479815	67	diastole	13	B	500	systole
919.0070000000001	0.083127929479815	67	diastole	14	B	500	systole
919.7233000000001	0.083127929479815	67	diastole	15	B	500	systole
924.9146000000001	0.08625105622923	68	systole	1	B	500	systole
925.5547000000001	0.08625105622923	68	systole	2	B	500	systole
926.1947	0.08625105622923	68	systole	3	B	500	systole
926.8389000000002	0.08625105622923	68	systole	4	B	500	systole
927.5288	0.08625105622923	68	systole	5	B	500	systole
928.2487999999998	0.08625105622923	68	systole	6	B	500	systole
928.9787999999999	0.08625105622923	68	systole	7	B	500	systole
929.7089000000001	0.08625105622923	68	systole	8	B	500	systole
930.4521	0.08625105622923	68	systole	9	B	500	systole
931.1721000000002	0.08625105622923	68	systole	10	B	500	systole
931.9096	0.08625105622923	68	systole	11	B	500	systole
932.6297	0.08625105622923	68	systole	12	B	500	systole
933.3198000000002	0.08625105622923	68	systole	13	B	500	systole
934.0098000000003	0.08625105622923	68	systole	14	B	500	systole
937.4099000000001	0.0843675613868981	69	diastole	1	B	500	systole
938.0199000000002	0.0843675613868981	69	diastole	2	B	500	systole
938.6234	0.0843675613868981	69	diastole	3	B	500	systole
939.2435	0.0843675613868981	69	diastole	4	B	500	systole
939.8748	0.0843675613868981	69	diastole	5	B	500	systole
940.4780000000001	0.0843675613868981	69	diastole	6	B	500	systole
941.0998	0.0843675613868981	69	diastole	7	B	500	systole
941.7399	0.0843675613868981	69	diastole	8	B	500	systole
942.3998999999999	0.0843675613868981	69	diastole	9	B	500	systole
943.1197999999999	0.0843675613868981	69	diastole	10	B	500	systole
943.8766	0.0843675613868981	69	diastole	11	B	500	systole
944.6167	0.0843675613868981	69	diastole	12	B	500	systole
945.3751000000002	0.0843675613868981	69	diastole	13	B	500	systole
946.1406000000002	0.0843675613868981	69	diastole	14	B	500	systole
952.9607000000001	0.0867706507560797	70	systole	1	B	500	diastole
953.6608000000001	0.0867706507560797	70	systole	2	B	500	diastole
954.3609999999999	0.0867706507560797	70	systole	3	B	500	diastole
955.1041	0.0867706507560797	70	systole	4	B	500	diastole
955.8499999999999	0.0867706507560797	70	systole	5	B	500	diastole
956.5900000000001	0.0867706507560797	70	systole	6	B	500	diastole
957.3560000000002	0.0867706507560797	70	systole	7	B	500	diastole
958.1475	0.0867706507560797	70	systole	8	B	500	diastole
958.9277999999999	0.0867706507560797	70	systole	9	B	500	diastole
959.7078000000001	0.0867706507560797	70	systole	10	B	500	diastole
960.4879000000001	0.0867706507560797	70	systole	11	B	500	diastole
961.2595000000001	0.0867706507560797	70	systole	12	B	500	diastole
961.9994999999999	0.0867706507560797	70	systole	13	B	500	diastole
966.0781000000002	0.0906268004328012	71	systole	1	B	500	systole
966.7208	0.0906268004328012	71	systole	2	B	500	systole
967.3849	0.0906268004328012	71	systole	3	B	500	systole
968.0446000000002	0.0906268004328012	71	systole	4	B	500	systole
968.7044000000001	0.0906268004328012	71	systole	5	B	500	systole
969.3642	0.0906268004328012	71	systole	6	B	500	systole
970.0109000000002	0.0906268004328012	71	systole	7	B	500	systole
970.6608000000001	0.0906268004328012	71	systole	8	B	500	systole
971.3108000000002	0.0906268004328012	71	systole	9	B	500	systole
971.9450000000002	0.0906268004328012	71	systole	10	B	500	systole
972.5833000000002	0.0906268004328012	71	systole	11	B	500	systole
973.2532999999999	0.0906268004328012	71	systole	12	B	500	systole
973.9234000000001	0.0906268004328012	71	systole	13	B	500	systole
974.6133	0.0906268004328012	71	systole	14	B	500	systole
975.2737999999999	0.0906268004328012	71	systole	15	B	500	systole
982.9865	0.0837591756717301	72	diastole	1	B	500	systole
983.6366000000003	0.0837591756717301	72	diastole	2	B	500	systole
984.2964999999999	0.0837591756717301	72	diastole	3	B	500	systole
984.9565000000002	0.0837591756717301	72	diastole	4	B	500	systole
985.6152000000002	0.0837591756717301	72	diastole	5	B	500	systole
986.2685000000001	0.0837591756717301	72	diastole	6	B	500	systole
986.9101	0.0837591756717301	72	diastole	7	B	500	systole
987.5601000000001	0.0837591756717301	72	diastole	8	B	500	systole
988.2199	0.0837591756717301	72	diastole	9	B	500	systole
988.8798999999999	0.0837591756717301	72	diastole	10	B	500	systole
989.5399000000002	0.0837591756717301	72	diastole	11	B	500	systole
990.2199	0.0837591756717301	72	diastole	12	B	500	systole
990.8499000000002	0.0837591756717301	72	diastole	13	B	500	systole
991.4996000000001	0.0837591756717301	72	diastole	14	B	500	systole
992.1494000000002	0.0837591756717301	72	diastole	15	B	500	systole
994.9200000000001	0.0837545939721167	73	diastole	1	B	500	systole
995.5700999999999	0.0837545939721167	73	diastole	2	B	500	systole
996.2035000000001	0.0837545939721167	73	diastole	3	B	500	systole
996.8734	0.0837545939721167	73	diastole	4	B	500	systole
997.5581000000002	0.0837545939721167	73	diastole	5	B	500	systole
998.2181	0.0837545939721167	73	diastole	6	B	500	systole
998.8481999999999	0.0837545939721167	73	diastole	7	B	500	systole
999.4783000000002	0.0837545939721167	73	diastole	8	B	500	systole
1000.1216	0.0837545939721167	73	diastole	9	B	500	systole
1000.7815	0.0837545939721167	73	diastole	10	B	500	systole
1001.4414999999999	0.0837545939721167	73	diastole	11	B	500	systole
1002.1014	0.0837545939721167	73	diastole	12	B	500	systole
1002.7516	0.0837545939721167	73	diastole	13	B	500	systole
1003.4196000000002	0.0837545939721167	73	diastole	14	B	500	systole
1004.0796	0.0837545939721167	73	diastole	15	B	500	systole
1007.9711000000002	0.0818774257204495	74	diastole	1	B	500	systole
1008.6210999999998	0.0818774257204495	74	diastole	2	B	500	systole
1009.2710999999999	0.0818774257204495	74	diastole	3	B	500	systole
1009.8262	0.0818774257204495	74	diastole	4	B	500	systole
1010.4061999999999	0.0818774257204495	74	diastole	5	B	500	systole
1010.9513000000002	0.0818774257204495	74	diastole	6	B	500	systole
1011.4794999999999	0.0818774257204495	74	diastole	7	B	500	systole
1012.0493999999999	0.0818774257204495	74	diastole	8	B	500	systole
1012.6311000000001	0.0818774257204495	74	diastole	9	B	500	systole
1013.2130000000002	0.0818774257204495	74	diastole	10	B	500	systole
1013.8029999999999	0.0818774257204495	74	diastole	11	B	500	systole
1014.393	0.0818774257204495	74	diastole	12	B	500	systole
1014.9646000000002	0.0818774257204495	74	diastole	13	B	500	systole
1015.5446000000002	0.0818774257204495	74	diastole	14	B	500	systole
1016.1163000000001	0.0818774257204495	74	diastole	15	B	500	systole
1016.6963000000001	0.0818774257204495	74	diastole	16	B	500	systole
1019.3893000000003	0.075000631972216	75	systole	1	B	500	systole
1019.989	0.075000631972216	75	systole	2	B	500	systole
1020.5911999999998	0.075000631972216	75	systole	3	B	500	systole
1021.2024999999999	0.075000631972216	75	systole	4	B	500	systole
1021.8031000000001	0.075000631972216	75	systole	5	B	500	systole
1022.4227000000001	0.075000631972216	75	systole	6	B	500	systole
1023.0423000000001	0.075000631972216	75	systole	7	B	500	systole
1023.6623	0.075000631972216	75	systole	8	B	500	systole
1024.3067	0.075000631972216	75	systole	9	B	500	systole
1024.9715	0.075000631972216	75	systole	10	B	500	systole
1025.6483000000003	0.075000631972216	75	systole	11	B	500	systole
1026.3359	0.075000631972216	75	systole	12	B	500	systole
1027.0059	0.075000631972216	75	systole	13	B	500	systole
1027.7168000000001	0.075000631972216	75	systole	14	B	500	systole
1028.3868000000002	0.075000631972216	75	systole	15	B	500	systole
1031.0513	0.083742712449748	76	systole	1	B	500	diastole
1031.6714000000002	0.083742712449748	76	systole	2	B	500	diastole
1032.2915000000003	0.083742712449748	76	systole	3	B	500	diastole
1032.9117	0.083742712449748	76	systole	4	B	500	diastole
1033.5318000000002	0.083742712449748	76	systole	5	B	500	diastole
1034.1601	0.083742712449748	76	systole	6	B	500	diastole
1034.8000000000002	0.083742712449748	76	systole	7	B	500	diastole
1035.4065	0.083742712449748	76	systole	8	B	500	diastole
1036.0109000000002	0.083742712449748	76	systole	9	B	500	diastole
1036.6210999999998	0.083742712449748	76	systole	10	B	500	diastole
1037.2253	0.083742712449748	76	systole	11	B	500	diastole
1037.8396000000002	0.083742712449748	76	systole	12	B	500	diastole
1038.4592000000002	0.083742712449748	76	systole	13	B	500	diastole
1039.0787	0.083742712449748	76	systole	14	B	500	diastole
1039.6833000000001	0.083742712449748	76	systole	15	B	500	diastole
1040.2936	0.083742712449748	76	systole	16	B	500	diastole
1042.8433	0.0775134750292636	77	systole	1	B	500	systole
1043.4732	0.0775134750292636	77	systole	2	B	500	systole
1044.1091000000001	0.0775134750292636	77	systole	3	B	500	systole
1044.7853	0.0775134750292636	77	systole	4	B	500	systole
1045.4371999999998	0.0775134750292636	77	systole	5	B	500	systole
1046.0889000000002	0.0775134750292636	77	systole	6	B	500	systole
1046.6887000000002	0.0775134750292636	77	systole	7	B	500	systole
1047.2888000000003	0.0775134750292636	77	systole	8	B	500	systole
1047.8888000000002	0.0775134750292636	77	systole	9	B	500	systole
1048.4528	0.0775134750292636	77	systole	10	B	500	systole
1049.0045	0.0775134750292636	77	systole	11	B	500	systole
1049.5513	0.0775134750292636	77	systole	12	B	500	systole
1050.1196	0.0775134750292636	77	systole	13	B	500	systole
1050.6997000000001	0.0775134750292636	77	systole	14	B	500	systole
1051.2996000000003	0.0775134750292636	77	systole	15	B	500	systole
1051.8896	0.0775134750292636	77	systole	16	B	500	systole
1052.4796999999999	0.0775134750292636	77	systole	17	B	500	systole
1057.0014999999999	0.07437531335745	78	diastole	1	B	500	diastole
1057.6299	0.07437531335745	78	diastole	2	B	500	diastole
1058.2954	0.07437531335745	78	diastole	3	B	500	diastole
1058.9358000000002	0.07437531335745	78	diastole	4	B	500	diastole
1059.6174	0.07437531335745	78	diastole	5	B	500	diastole
1060.2576	0.07437531335745	78	diastole	6	B	500	diastole
1060.8976000000002	0.07437531335745	78	diastole	7	B	500	diastole
1061.5276	0.07437531335745	78	diastole	8	B	500	diastole
1062.1576	0.07437531335745	78	diastole	9	B	500	diastole
1062.7876	0.07437531335745	78	diastole	10	B	500	diastole
1063.4175	0.07437531335745	78	diastole	11	B	500	diastole
1064.0475000000001	0.07437531335745	78	diastole	12	B	500	diastole
1064.6774	0.07437531335745	78	diastole	13	B	500	diastole
1065.2892000000002	0.07437531335745	78	diastole	14	B	500	diastole
1067.9882000000002	0.0793740562512539	79	diastole	1	B	500	systole
1068.6782000000003	0.0793740562512539	79	diastole	2	B	500	systole
1069.3449	0.0793740562512539	79	diastole	3	B	500	systole
1069.995	0.0793740562512539	79	diastole	4	B	500	systole
1070.6349	0.0793740562512539	79	diastole	5	B	500	systole
1071.2747	0.0793740562512539	79	diastole	6	B	500	systole
1071.9978999999998	0.0793740562512539	79	diastole	7	B	500	systole
1072.7067000000002	0.0793740562512539	79	diastole	8	B	500	systole
1073.4071	0.0793740562512539	79	diastole	9	B	500	systole
1074.1254	0.0793740562512539	79	diastole	10	B	500	systole
1074.8252000000002	0.0793740562512539	79	diastole	11	B	500	systole
1075.5135	0.0793740562512539	79	diastole	12	B	500	systole
1076.1936	0.0793740562512539	79	diastole	13	B	500	systole
1076.8636000000001	0.0793740562512539	79	diastole	14	B	500	systole
1077.5236	0.0793740562512539	79	diastole	15	B	500	systole
1080.3387000000002	0.081887643027585	80	systole	1	B	500	diastole
1080.9891000000002	0.081887643027585	80	systole	2	B	500	diastole
1081.6289000000002	0.081887643027585	80	systole	3	B	500	diastole
1082.2783	0.081887643027585	80	systole	4	B	500	diastole
1082.9582	0.081887643027585	80	systole	5	B	500	diastole
1083.6381000000001	0.081887643027585	80	systole	6	B	500	diastole
1084.3183	0.081887643027585	80	systole	7	B	500	diastole
1084.9982	0.081887643027585	80	systole	8	B	500	diastole
1085.6662999999999	0.081887643027585	80	systole	9	B	500	diastole
1086.3434000000002	0.081887643027585	80	systole	10	B	500	diastole
1087.0034	0.081887643027585	80	systole	11	B	500	diastole
1087.6634	0.081887643027585	80	systole	12	B	500	diastole
1088.3233	0.081887643027585	80	systole	13	B	500	diastole
1088.9634999999998	0.081887643027585	80	systole	14	B	500	diastole
1089.6133	0.081887643027585	80	systole	15	B	500	diastole
1092.8999	0.0800126532558351	81	diastole	1	B	500	systole
1093.4898000000003	0.0800126532558351	81	diastole	2	B	500	systole
1094.0797000000002	0.0800126532558351	81	diastole	3	B	500	systole
1094.6826999999998	0.0800126532558351	81	diastole	4	B	500	systole
1095.3128000000002	0.0800126532558351	81	diastole	5	B	500	systole
1095.9429	0.0800126532558351	81	diastole	6	B	500	systole
1096.5929	0.0800126532558351	81	diastole	7	B	500	systole
1097.2232	0.0800126532558351	81	diastole	8	B	500	systole
1097.8432000000003	0.0800126532558351	81	diastole	9	B	500	systole
1098.4624	0.0800126532558351	81	diastole	10	B	500	systole
1099.0828000000001	0.0800126532558351	81	diastole	11	B	500	systole
1099.703	0.0800126532558351	81	diastole	12	B	500	systole
1100.313	0.0800126532558351	81	diastole	13	B	500	systole
1100.9230000000002	0.0800126532558351	81	diastole	14	B	500	systole
1101.5331	0.0800126532558351	81	diastole	15	B	500	systole
1102.143	0.0800126532558351	81	diastole	16	B	500	systole
1105.2366000000002	0.0762550650397315	82	diastole	1	B	500	diastole
1105.8666000000003	0.0762550650397315	82	diastole	2	B	500	diastole
1106.4948	0.0762550650397315	82	diastole	3	B	500	diastole
1107.1148000000003	0.0762550650397315	82	diastole	4	B	500	diastole
1107.7431000000001	0.0762550650397315	82	diastole	5	B	500	diastole
1108.3732	0.0762550650397315	82	diastole	6	B	500	diastole
1109.0217000000002	0.0762550650397315	82	diastole	7	B	500	diastole
1109.6617999999999	0.0762550650397315	82	diastole	8	B	500	diastole
1110.3101000000001	0.0762550650397315	82	diastole	9	B	500	diastole
1110.9584	0.0762550650397315	82	diastole	10	B	500	diastole
1111.5601000000001	0.0762550650397315	82	diastole	11	B	500	diastole
1112.1701000000003	0.0762550650397315	82	diastole	12	B	500	diastole
1112.7801	0.0762550650397315	82	diastole	13	B	500	diastole
1113.35	0.0762550650397315	82	diastole	14	B	500	diastole
1113.9099999999999	0.0762550650397315	82	diastole	15	B	500	diastole
1114.4634	0.0762550650397315	82	diastole	16	B	500	diastole
1122.3282	0.0762373823672533	83	diastole	1	B	500	systole
1122.9086000000002	0.0762373823672533	83	diastole	2	B	500	systole
1123.4622	0.0762373823672533	83	diastole	3	B	500	systole
1124.0331	0.0762373823672533	83	diastole	4	B	500	systole
1124.6127000000001	0.0762373823672533	83	diastole	5	B	500	systole
1125.1853999999998	0.0762373823672533	83	diastole	6	B	500	systole
1125.7851	0.0762373823672533	83	diastole	7	B	500	systole
1126.3848000000003	0.0762373823672533	83	diastole	8	B	500	systole
1126.9845	0.0762373823672533	83	diastole	9	B	500	systole
1127.5947999999999	0.0762373823672533	83	diastole	10	B	500	systole
1128.2329	0.0762373823672533	83	diastole	11	B	500	systole
1128.8627999999999	0.0762373823672533	83	diastole	12	B	500	systole
1129.4927000000002	0.0762373823672533	83	diastole	13	B	500	systole
1130.1489000000001	0.0762373823672533	83	diastole	14	B	500	systole
1130.7889	0.0762373823672533	83	diastole	15	B	500	systole
1132.9773	0.0837537061888724	84	systole	1	B	500	systole
1133.7105999999999	0.0837537061888724	84	systole	2	B	500	systole
1134.4065	0.0837537061888724	84	systole	3	B	500	systole
1135.1121000000003	0.0837537061888724	84	systole	4	B	500	systole
1135.812	0.0837537061888724	84	systole	5	B	500	systole
1136.5119	0.0837537061888724	84	systole	6	B	500	systole
1137.2118	0.0837537061888724	84	systole	7	B	500	systole
1137.8659000000002	0.0837537061888724	84	systole	8	B	500	systole
1138.5103	0.0837537061888724	84	systole	9	B	500	systole
1139.1444999999999	0.0837537061888724	84	systole	10	B	500	systole
1139.7671	0.0837537061888724	84	systole	11	B	500	systole
1140.3697000000002	0.0837537061888724	84	systole	12	B	500	systole
1140.9933	0.0837537061888724	84	systole	13	B	500	systole
1141.6017000000002	0.0837537061888724	84	systole	14	B	500	systole
1142.2217	0.0837537061888724	84	systole	15	B	500	systole
1142.8417	0.0837537061888724	84	systole	16	B	500	systole
1146.2035	0.0775164749356918	85	diastole	1	B	500	diastole
1146.8740000000003	0.0775164749356918	85	diastole	2	B	500	diastole
1147.5446000000002	0.0775164749356918	85	diastole	3	B	500	diastole
1148.2151	0.0775164749356918	85	diastole	4	B	500	diastole
1148.9393	0.0775164749356918	85	diastole	5	B	500	diastole
1149.7384000000002	0.0775164749356918	85	diastole	6	B	500	diastole
1150.478	0.0775164749356918	85	diastole	7	B	500	diastole
1151.2499000000003	0.0775164749356918	85	diastole	8	B	500	diastole
1152.0036	0.0775164749356918	85	diastole	9	B	500	diastole
1152.7236000000003	0.0775164749356918	85	diastole	10	B	500	diastole
1153.4607	0.0775164749356918	85	diastole	11	B	500	diastole
1154.1809000000003	0.0775164749356918	85	diastole	12	B	500	diastole
1154.8809999999999	0.0775164749356918	85	diastole	13	B	500	diastole
1161.6882	0.0818777293898165	86	systole	1	B	500	diastole
1162.3381	0.0818777293898165	86	systole	2	B	500	diastole
1163.0083	0.0818777293898165	86	systole	3	B	500	diastole
1163.6784000000002	0.0818777293898165	86	systole	4	B	500	diastole
1164.3485	0.0818777293898165	86	systole	5	B	500	diastole
1165.0442000000003	0.0818777293898165	86	systole	6	B	500	diastole
1165.7400000000002	0.0818777293898165	86	systole	7	B	500	diastole
1166.4102000000003	0.0818777293898165	86	systole	8	B	500	diastole
1167.0961000000002	0.0818777293898165	86	systole	9	B	500	diastole
1167.7718	0.0818777293898165	86	systole	10	B	500	diastole
1168.4317999999998	0.0818777293898165	86	systole	11	B	500	diastole
1169.0915	0.0818777293898165	86	systole	12	B	500	diastole
1169.7220000000002	0.0818777293898165	86	systole	13	B	500	diastole
1170.3515000000002	0.0818777293898165	86	systole	14	B	500	diastole
1170.976	0.0818777293898165	86	systole	15	B	500	diastole
1182.9755	0.0861623186501674	87	systole	1	B	500	systole
1183.7056000000002	0.0861623186501674	87	systole	2	B	500	systole
1184.4356000000002	0.0861623186501674	87	systole	3	B	500	systole
1185.2019	0.0861623186501674	87	systole	4	B	500	systole
1185.9727000000003	0.0861623186501674	87	systole	5	B	500	systole
1186.7456000000002	0.0861623186501674	87	systole	6	B	500	systole
1187.4956000000002	0.0861623186501674	87	systole	7	B	500	systole
1188.2457	0.0861623186501674	87	systole	8	B	500	systole
1188.9969999999998	0.0861623186501674	87	systole	9	B	500	systole
1189.746	0.0861623186501674	87	systole	10	B	500	systole
1190.5120000000002	0.0861623186501674	87	systole	11	B	500	systole
1191.2220000000002	0.0861623186501674	87	systole	12	B	500	systole
1191.9021000000002	0.0861623186501674	87	systole	13	B	500	systole
1192.5821	0.0861623186501674	87	systole	14	B	500	systole
1194.9256	0.0837499720510095	88	systole	1	B	500	systole
1195.5696000000003	0.0837499720510095	88	systole	2	B	500	systole
1196.2038000000002	0.0837499720510095	88	systole	3	B	500	systole
1196.828	0.0837499720510095	88	systole	4	B	500	systole
1197.4523	0.0837499720510095	88	systole	5	B	500	systole
1198.0666	0.0837499720510095	88	systole	6	B	500	systole
1198.6907	0.0837499720510095	88	systole	7	B	500	systole
1199.3407000000002	0.0837499720510095	88	systole	8	B	500	systole
1199.9907000000003	0.0837499720510095	88	systole	9	B	500	systole
1200.6365	0.0837499720510095	88	systole	10	B	500	systole
1201.2865000000002	0.0837499720510095	88	systole	11	B	500	systole
1201.9366	0.0837499720510095	88	systole	12	B	500	systole
1202.5964	0.0837499720510095	88	systole	13	B	500	systole
1203.2822999999999	0.0837499720510095	88	systole	14	B	500	systole
1203.9583000000002	0.0837499720510095	88	systole	15	B	500	systole
1204.6284	0.0837499720510095	88	systole	16	B	500	systole
1208.1713	0.0818703228142112	89	diastole	1	B	500	systole
1208.8112999999998	0.0818703228142112	89	diastole	2	B	500	systole
1209.4531000000002	0.0818703228142112	89	diastole	3	B	500	systole
1210.1332000000002	0.0818703228142112	89	diastole	4	B	500	systole
1210.8232000000003	0.0818703228142112	89	diastole	5	B	500	systole
1211.4931000000001	0.0818703228142112	89	diastole	6	B	500	systole
1212.1348000000003	0.0818703228142112	89	diastole	7	B	500	systole
1212.7847000000002	0.0818703228142112	89	diastole	8	B	500	systole
1213.4629	0.0818703228142112	89	diastole	9	B	500	systole
1214.1327999999999	0.0818703228142112	89	diastole	10	B	500	systole
1214.8028	0.0818703228142112	89	diastole	11	B	500	systole
1215.4727000000003	0.0818703228142112	89	diastole	12	B	500	systole
1216.1791000000003	0.0818703228142112	89	diastole	13	B	500	systole
1216.8274999999999	0.0818703228142112	89	diastole	14	B	500	systole
1217.476	0.0818703228142112	89	diastole	15	B	500	systole
1220.703	0.0812558375182561	90	diastole	1	B	500	diastole
1221.3429999999998	0.0812558375182561	90	diastole	2	B	500	diastole
1222.0032	0.0812558375182561	90	diastole	3	B	500	diastole
1222.6634	0.0812558375182561	90	diastole	4	B	500	diastole
1223.3133000000003	0.0812558375182561	90	diastole	5	B	500	diastole
1223.9533000000001	0.0812558375182561	90	diastole	6	B	500	diastole
1224.5933	0.0812558375182561	90	diastole	7	B	500	diastole
1225.2150000000001	0.0812558375182561	90	diastole	8	B	500	diastole
1225.8648000000003	0.0812558375182561	90	diastole	9	B	500	diastole
1226.4865	0.0812558375182561	90	diastole	10	B	500	diastole
1227.1066	0.0812558375182561	90	diastole	11	B	500	diastole
1227.7267000000002	0.0812558375182561	90	diastole	12	B	500	diastole
1228.3468000000003	0.0812558375182561	90	diastole	13	B	500	diastole
1228.9767000000002	0.0812558375182561	90	diastole	14	B	500	diastole
1229.6167	0.0812558375182561	90	diastole	15	B	500	diastole
1232.9247	0.0799987812642939	91	diastole	1	B	500	diastole
1233.5648	0.0799987812642939	91	diastole	2	B	500	diastole
1234.2048	0.0799987812642939	91	diastole	3	B	500	diastole
1234.8630000000003	0.0799987812642939	91	diastole	4	B	500	diastole
1235.5046000000002	0.0799987812642939	91	diastole	5	B	500	diastole
1236.1545999999998	0.0799987812642939	91	diastole	6	B	500	diastole
1236.8046	0.0799987812642939	91	diastole	7	B	500	diastole
1237.4446000000003	0.0799987812642939	91	diastole	8	B	500	diastole
1238.0846999999999	0.0799987812642939	91	diastole	9	B	500	diastole
1238.7147	0.0799987812642939	91	diastole	10	B	500	diastole
1239.3645999999999	0.0799987812642939	91	diastole	11	B	500	diastole
1240.0145000000002	0.0799987812642939	91	diastole	12	B	500	diastole
1240.6828	0.0799987812642939	91	diastole	13	B	500	diastole
1241.333	0.0799987812642939	91	diastole	14	B	500	diastole
1245.0716000000002	0.0837433507549576	92	systole	1	B	500	systole
1245.7117000000003	0.0837433507549576	92	systole	2	B	500	systole
1246.3516	0.0837433507549576	92	systole	3	B	500	systole
1246.9915	0.0837433507549576	92	systole	4	B	500	systole
1247.63	0.0837433507549576	92	systole	5	B	500	systole
1248.2802000000001	0.0837433507549576	92	systole	6	B	500	systole
1248.9303	0.0837433507549576	92	systole	7	B	500	systole
1249.5684999999999	0.0837433507549576	92	systole	8	B	500	systole
1250.1983	0.0837433507549576	92	systole	9	B	500	systole
1250.8224	0.0837433507549576	92	systole	10	B	500	systole
1251.466	0.0837433507549576	92	systole	11	B	500	systole
1252.1309	0.0837433507549576	92	systole	12	B	500	systole
1252.7909	0.0837433507549576	92	systole	13	B	500	systole
1253.4657000000002	0.0837433507549576	92	systole	14	B	500	systole
1254.1161000000002	0.0837433507549576	92	systole	15	B	500	systole
1256.7081000000003	0.0812595254392363	93	systole	1	B	500	systole
1257.3482	0.0812595254392363	93	systole	2	B	500	systole
1257.998	0.0812595254392363	93	systole	3	B	500	systole
1258.6480000000001	0.0812595254392363	93	systole	4	B	500	systole
1259.308	0.0812595254392363	93	systole	5	B	500	systole
1259.9678	0.0812595254392363	93	systole	6	B	500	systole
1260.6078000000002	0.0812595254392363	93	systole	7	B	500	systole
1261.232	0.0812595254392363	93	systole	8	B	500	systole
1261.8621000000003	0.0812595254392363	93	systole	9	B	500	systole
1262.4923	0.0812595254392363	93	systole	10	B	500	systole
1263.1420000000003	0.0812595254392363	93	systole	11	B	500	systole
1263.7765	0.0812595254392363	93	systole	12	B	500	systole
1264.4166	0.0812595254392363	93	systole	13	B	500	systole
1265.0567	0.0812595254392363	93	systole	14	B	500	systole
1265.6866	0.0812595254392363	93	systole	15	B	500	systole
1268.2784000000001	0.076383423176594	94	diastole	1	B	500	systole
1268.8966	0.076383423176594	94	diastole	2	B	500	systole
1269.5167000000001	0.076383423176594	94	diastole	3	B	500	systole
1270.1388000000002	0.076383423176594	94	diastole	4	B	500	systole
1270.7852000000003	0.076383423176594	94	diastole	5	B	500	systole
1271.4243000000001	0.076383423176594	94	diastole	6	B	500	systole
1272.0675	0.076383423176594	94	diastole	7	B	500	systole
1272.7075	0.076383423176594	94	diastole	8	B	500	systole
1273.3658	0.076383423176594	94	diastole	9	B	500	systole
1274.0594	0.076383423176594	94	diastole	10	B	500	systole
1274.7286	0.076383423176594	94	diastole	11	B	500	systole
1275.3885	0.076383423176594	94	diastole	12	B	500	systole
1276.0571	0.076383423176594	94	diastole	13	B	500	systole
1276.7435	0.076383423176594	94	diastole	14	B	500	systole
1277.4222	0.076383423176594	94	diastole	15	B	500	systole
1280.6397000000002	0.0826156790717504	95	diastole	1	B	500	systole
1281.2999	0.0826156790717504	95	diastole	2	B	500	systole
1281.96	0.0826156790717504	95	diastole	3	B	500	systole
1282.6199000000001	0.0826156790717504	95	diastole	4	B	500	systole
1283.2798000000003	0.0826156790717504	95	diastole	5	B	500	systole
1283.9697	0.0826156790717504	95	diastole	6	B	500	systole
1284.7002000000002	0.0826156790717504	95	diastole	7	B	500	systole
1285.4307	0.0826156790717504	95	diastole	8	B	500	systole
1286.1656000000003	0.0826156790717504	95	diastole	9	B	500	systole
1286.8982	0.0826156790717504	95	diastole	10	B	500	systole
1287.5979000000002	0.0826156790717504	95	diastole	11	B	500	systole
1288.2885	0.0826156790717504	95	diastole	12	B	500	systole
1288.9683	0.0826156790717504	95	diastole	13	B	500	systole
1289.6181000000001	0.0826156790717504	95	diastole	14	B	500	systole
1293.3363	0.0806177305057644	96	diastole	1	B	500	systole
1293.9560999999999	0.0806177305057644	96	diastole	2	B	500	systole
1294.5578	0.0806177305057644	96	diastole	3	B	500	systole
1295.1677	0.0806177305057644	96	diastole	4	B	500	systole
1295.8177	0.0806177305057644	96	diastole	5	B	500	systole
1296.5178	0.0806177305057644	96	diastole	6	B	500	systole
1297.2377999999999	0.0806177305057644	96	diastole	7	B	500	systole
1297.9844000000003	0.0806177305057644	96	diastole	8	B	500	systole
1298.7145	0.0806177305057644	96	diastole	9	B	500	systole
1299.5144	0.0806177305057644	96	diastole	10	B	500	systole
1300.3028	0.0806177305057644	96	diastole	11	B	500	systole
1301.0329000000002	0.0806177305057644	96	diastole	12	B	500	systole
1301.763	0.0806177305057644	96	diastole	13	B	500	systole
1302.478	0.0806177305057644	96	diastole	14	B	500	systole
1305.2431000000001	0.0899940311792306	97	diastole	1	B	500	diastole
1305.8931000000002	0.0899940311792306	97	diastole	2	B	500	diastole
1306.4982	0.0899940311792306	97	diastole	3	B	500	diastole
1307.0782	0.0899940311792306	97	diastole	4	B	500	diastole
1307.7083000000002	0.0899940311792306	97	diastole	5	B	500	diastole
1308.3216000000002	0.0899940311792306	97	diastole	6	B	500	diastole
1308.9250000000002	0.0899940311792306	97	diastole	7	B	500	diastole
1309.5285	0.0899940311792306	97	diastole	8	B	500	diastole
1310.15	0.0899940311792306	97	diastole	9	B	500	diastole
1310.79	0.0899940311792306	97	diastole	10	B	500	diastole
1311.42	0.0899940311792306	97	diastole	11	B	500	diastole
1312.0498000000002	0.0899940311792306	97	diastole	12	B	500	diastole
1312.6800000000003	0.0899940311792306	97	diastole	13	B	500	diastole
1313.3200000000002	0.0899940311792306	97	diastole	14	B	500	diastole
1313.9599000000003	0.0899940311792306	97	diastole	15	B	500	diastole
1314.6300999999999	0.0899940311792306	97	diastole	16	B	500	diastole
1317.8920000000003	0.083757686545141	98	systole	1	B	500	systole
1318.5906	0.083757686545141	98	systole	2	B	500	systole
1319.2975999999999	0.083757686545141	98	systole	3	B	500	systole
1319.9876	0.083757686545141	98	systole	4	B	500	systole
1320.7040000000002	0.083757686545141	98	systole	5	B	500	systole
1321.4143	0.083757686545141	98	systole	6	B	500	systole
1322.1248	0.083757686545141	98	systole	7	B	500	systole
1322.8195	0.083757686545141	98	systole	8	B	500	systole
1323.5092	0.083757686545141	98	systole	9	B	500	systole
1324.1893	0.083757686545141	98	systole	10	B	500	systole
1324.8736	0.083757686545141	98	systole	11	B	500	systole
1325.5835000000002	0.083757686545141	98	systole	12	B	500	systole
1326.2934	0.083757686545141	98	systole	13	B	500	systole
1326.9951	0.083757686545141	98	systole	14	B	500	systole
1329.0247	0.0862548376317136	99	systole	1	B	500	systole
1329.7146000000002	0.0862548376317136	99	systole	2	B	500	systole
1330.3845000000001	0.0862548376317136	99	systole	3	B	500	systole
1331.0544	0.0862548376317136	99	systole	4	B	500	systole
1331.6986000000002	0.0862548376317136	99	systole	5	B	500	systole
1332.3829	0.0862548376317136	99	systole	6	B	500	systole
1333.0928	0.0862548376317136	99	systole	7	B	500	systole
1333.7849	0.0862548376317136	99	systole	8	B	500	systole
1334.4769000000001	0.0862548376317136	99	systole	9	B	500	systole
1335.1695	0.0862548376317136	99	systole	10	B	500	systole
1335.8388	0.0862548376317136	99	systole	11	B	500	systole
1336.5246000000002	0.0862548376317136	99	systole	12	B	500	systole
1337.2047000000002	0.0862548376317136	99	systole	13	B	500	systole
1337.8647	0.0862548376317136	99	systole	14	B	500	systole
1338.5246000000002	0.0862548376317136	99	systole	15	B	500	systole
1345.9715	0.0825050717685371	100	diastole	1	B	500	systole
1346.6316000000002	0.0825050717685371	100	diastole	2	B	500	systole
1347.2917000000002	0.0825050717685371	100	diastole	3	B	500	systole
1348.0081	0.0825050717685371	100	diastole	4	B	500	systole
1348.7532	0.0825050717685371	100	diastole	5	B	500	systole
1349.4334	0.0825050717685371	100	diastole	6	B	500	systole
1350.1135	0.0825050717685371	100	diastole	7	B	500	systole
1350.8117000000002	0.0825050717685371	100	diastole	8	B	500	systole
1351.5016	0.0825050717685371	100	diastole	9	B	500	systole
1352.1997000000001	0.0825050717685371	100	diastole	10	B	500	systole
1352.8596000000002	0.0825050717685371	100	diastole	11	B	500	systole
1353.5196	0.0825050717685371	100	diastole	12	B	500	systole
1354.1613000000002	0.0825050717685371	100	diastole	13	B	500	systole
