onset	duration	trial_num	trial_type	tone_num	tone_type	frequency	response
56.91759999999999	0.0987527690303977	1	diastole	1	B	500	diastole
57.87749999999983	0.0987527690303977	1	diastole	2	B	500	diastole
58.99589999999989	0.0987527690303977	1	diastole	3	B	500	diastole
59.99090000000001	0.0987527690303977	1	diastole	4	B	500	diastole
60.910899999999856	0.0987527690303977	1	diastole	5	B	500	diastole
61.721000000000004	0.0987527690303977	1	diastole	6	B	500	diastole
62.53099999999995	0.0987527690303977	1	diastole	7	B	500	diastole
63.27099999999996	0.0987527690303977	1	diastole	8	B	500	diastole
63.971000000000004	0.0987527690303977	1	diastole	9	B	500	diastole
64.61259999999993	0.0987527690303977	1	diastole	10	B	500	diastole
65.32089999999994	0.0987527690303977	1	diastole	11	B	500	diastole
80.8757999999998	0.1106276356149464	2	systole	1	B	500	diastole
81.67579999999998	0.1106276356149464	2	systole	2	B	500	diastole
82.3757999999998	0.1106276356149464	2	systole	3	B	500	diastole
83.07579999999984	0.1106276356149464	2	systole	4	B	500	diastole
83.7657999999999	0.1106276356149464	2	systole	5	B	500	diastole
84.44579999999996	0.1106276356149464	2	systole	6	B	500	diastole
84.99579999999992	0.1106276356149464	2	systole	7	B	500	diastole
85.60329999999999	0.1106276356149464	2	systole	8	B	500	diastole
86.3875999999998	0.1106276356149464	2	systole	9	B	500	diastole
87.17769999999996	0.1106276356149464	2	systole	10	B	500	diastole
88.0175999999999	0.1106276356149464	2	systole	11	B	500	diastole
88.92769999999996	0.1106276356149464	2	systole	12	B	500	diastole
100.75029999999992	0.0943782505055423	3	systole	1	B	500	systole
101.77039999999988	0.0943782505055423	3	systole	2	B	500	systole
102.68629999999985	0.0943782505055423	3	systole	3	B	500	systole
103.44599999999991	0.0943782505055423	3	systole	4	B	500	systole
104.20579999999995	0.0943782505055423	3	systole	5	B	500	systole
105.37829999999985	0.0943782505055423	3	systole	6	B	500	systole
106.47849999999994	0.0943782505055423	3	systole	7	B	500	systole
107.5786999999998	0.0943782505055423	3	systole	8	B	500	systole
108.46269999999981	0.0943782505055423	3	systole	9	B	500	systole
109.42259999999987	0.0943782505055423	3	systole	10	B	500	systole
113.53369999999995	0.1224844751122873	4	diastole	1	B	500	diastole
114.33379999999988	0.1224844751122873	4	diastole	2	B	500	diastole
115.13379999999984	0.1224844751122873	4	diastole	3	B	500	diastole
115.8268999999998	0.1224844751122873	4	diastole	4	B	500	diastole
116.42259999999987	0.1224844751122873	4	diastole	5	B	500	diastole
116.89249999999993	0.1224844751122873	4	diastole	6	B	500	diastole
117.28109999999992	0.1224844751122873	4	diastole	7	B	500	diastole
118.02119999999991	0.1224844751122873	4	diastole	8	B	500	diastole
118.76119999999992	0.1224844751122873	4	diastole	9	B	500	diastole
119.50119999999993	0.1224844751122873	4	diastole	10	B	500	diastole
120.54109999999991	0.1224844751122873	4	diastole	11	B	500	diastole
121.5809999999999	0.1224844751122873	4	diastole	12	B	500	diastole
122.51089999999999	0.1224844751122873	4	diastole	13	B	500	diastole
134.32749999999987	0.0950051999825518	5	systole	1	B	500	systole
135.24239999999986	0.0950051999825518	5	systole	2	B	500	systole
136.21159999999986	0.0950051999825518	5	systole	3	B	500	systole
137.08169999999996	0.0950051999825518	5	systole	4	B	500	systole
138.2290999999998	0.0950051999825518	5	systole	5	B	500	systole
139.28909999999996	0.0950051999825518	5	systole	6	B	500	systole
140.42329999999993	0.0950051999825518	5	systole	7	B	500	systole
141.4931999999999	0.0950051999825518	5	systole	8	B	500	systole
142.56299999999987	0.0950051999825518	5	systole	9	B	500	systole
146.8376999999998	0.125004390371032	6	diastole	1	B	500	systole
147.73759999999993	0.125004390371032	6	diastole	2	B	500	systole
148.6375999999998	0.125004390371032	6	diastole	3	B	500	systole
149.57409999999982	0.125004390371032	6	diastole	4	B	500	systole
150.54399999999987	0.125004390371032	6	diastole	5	B	500	systole
151.37559999999985	0.125004390371032	6	diastole	6	B	500	systole
152.20229999999992	0.125004390371032	6	diastole	7	B	500	systole
153.1239999999998	0.125004390371032	6	diastole	8	B	500	systole
154.09399999999982	0.125004390371032	6	diastole	9	B	500	systole
155.10399999999981	0.125004390371032	6	diastole	10	B	500	systole
158.1175999999998	0.1212451374740339	7	diastole	1	B	500	diastole
158.96249999999986	0.1212451374740339	7	diastole	2	B	500	diastole
159.74239999999986	0.1212451374740339	7	diastole	3	B	500	diastole
160.4324999999999	0.1212451374740339	7	diastole	4	B	500	diastole
161.12259999999992	0.1212451374740339	7	diastole	5	B	500	diastole
161.7724999999998	0.1212451374740339	7	diastole	6	B	500	diastole
162.36099999999988	0.1212451374740339	7	diastole	7	B	500	diastole
162.87239999999997	0.1212451374740339	7	diastole	8	B	500	diastole
163.3958	0.1212451374740339	7	diastole	9	B	500	diastole
164.3558999999998	0.1212451374740339	7	diastole	10	B	500	diastole
165.3458999999998	0.1212451374740339	7	diastole	11	B	500	diastole
166.43579999999997	0.1212451374740339	7	diastole	12	B	500	diastole
167.5257999999999	0.1212451374740339	7	diastole	13	B	500	diastole
169.55639999999994	0.1206081112031824	8	systole	1	B	500	diastole
170.4665	0.1206081112031824	8	systole	2	B	500	diastole
171.2265	0.1206081112031824	8	systole	3	B	500	diastole
171.91679999999997	0.1206081112031824	8	systole	4	B	500	diastole
172.57679999999982	0.1206081112031824	8	systole	5	B	500	diastole
173.1972999999998	0.1206081112031824	8	systole	6	B	500	diastole
173.8469	0.1206081112031824	8	systole	7	B	500	diastole
174.41449999999986	0.1206081112031824	8	systole	8	B	500	diastole
175.47479999999996	0.1206081112031824	8	systole	9	B	500	diastole
176.5145	0.1206081112031824	8	systole	10	B	500	diastole
177.5541999999998	0.1206081112031824	8	systole	11	B	500	diastole
178.61429999999996	0.1206081112031824	8	systole	12	B	500	diastole
182.05899999999997	0.1262366605515126	9	systole	1	B	500	diastole
182.91899999999987	0.1262366605515126	9	systole	2	B	500	diastole
183.66899999999987	0.1262366605515126	9	systole	3	B	500	diastole
184.28909999999996	0.1262366605515126	9	systole	4	B	500	diastole
184.9266	0.1262366605515126	9	systole	5	B	500	diastole
185.60169999999994	0.1262366605515126	9	systole	6	B	500	diastole
186.62239999999997	0.1262366605515126	9	systole	7	B	500	diastole
187.69269999999983	0.1262366605515126	9	systole	8	B	500	diastole
188.7630999999999	0.1262366605515126	9	systole	9	B	500	diastole
189.77259999999978	0.1262366605515126	9	systole	10	B	500	diastole
190.78219999999988	0.1262366605515126	9	systole	11	B	500	diastole
193.625	0.1268551715475041	10	systole	1	B	500	diastole
194.33479999999986	0.1268551715475041	10	systole	2	B	500	diastole
195.04459999999995	0.1268551715475041	10	systole	3	B	500	diastole
195.75429999999983	0.1268551715475041	10	systole	4	B	500	diastole
196.6688999999999	0.1268551715475041	10	systole	5	B	500	diastole
197.6588999999999	0.1268551715475041	10	systole	6	B	500	diastole
198.70889999999986	0.1268551715475041	10	systole	7	B	500	diastole
199.66689999999994	0.1268551715475041	10	systole	8	B	500	diastole
200.6366999999998	0.1268551715475041	10	systole	9	B	500	diastole
201.52769999999987	0.1268551715475041	10	systole	10	B	500	diastole
202.31589999999983	0.1268551715475041	10	systole	11	B	500	diastole
210.57309999999984	0.1093913124932441	11	diastole	1	B	500	diastole
211.2826	0.1093913124932441	11	diastole	2	B	500	diastole
211.99209999999994	0.1093913124932441	11	diastole	3	B	500	diastole
212.6525999999999	0.1093913124932441	11	diastole	4	B	500	diastole
213.31259999999997	0.1093913124932441	11	diastole	5	B	500	diastole
213.97259999999983	0.1093913124932441	11	diastole	6	B	500	diastole
215.0387999999998	0.1093913124932441	11	diastole	7	B	500	diastole
216.13879999999995	0.1093913124932441	11	diastole	8	B	500	diastole
217.23869999999988	0.1093913124932441	11	diastole	9	B	500	diastole
218.24879999999985	0.1093913124932441	11	diastole	10	B	500	diastole
233.91919999999982	0.0974985652428586	12	diastole	1	B	500	systole
234.90909999999985	0.0974985652428586	12	diastole	2	B	500	systole
235.82749999999987	0.0974985652428586	12	diastole	3	B	500	systole
236.54739999999993	0.0974985652428586	12	diastole	4	B	500	systole
237.26739999999995	0.0974985652428586	12	diastole	5	B	500	systole
237.98739999999998	0.0974985652428586	12	diastole	6	B	500	systole
238.6674999999998	0.0974985652428586	12	diastole	7	B	500	systole
239.36419999999998	0.0974985652428586	12	diastole	8	B	500	systole
240.41419999999994	0.0974985652428586	12	diastole	9	B	500	systole
241.4641999999999	0.0974985652428586	12	diastole	10	B	500	systole
242.50409999999988	0.0974985652428586	12	diastole	11	B	500	systole
246.44349999999986	0.128849093161989	13	systole	1	B	500	systole
247.20349999999985	0.128849093161989	13	systole	2	B	500	systole
247.92349999999988	0.128849093161989	13	systole	3	B	500	systole
248.61329999999998	0.128849093161989	13	systole	4	B	500	systole
249.18939999999998	0.128849093161989	13	systole	5	B	500	systole
249.6344999999999	0.128849093161989	13	systole	6	B	500	systole
250.32459999999992	0.128849093161989	13	systole	7	B	500	systole
251.2346	0.128849093161989	13	systole	8	B	500	systole
252.39449999999988	0.128849093161989	13	systole	9	B	500	systole
253.53459999999995	0.128849093161989	13	systole	10	B	500	systole
254.6746999999998	0.128849093161989	13	systole	11	B	500	systole
255.79459999999995	0.128849093161989	13	systole	12	B	500	systole
260.4774	0.1287500598700717	14	diastole	1	B	500	systole
261.2373	0.1287500598700717	14	diastole	2	B	500	systole
261.9393	0.1287500598700717	14	diastole	3	B	500	systole
262.6413	0.1287500598700717	14	diastole	4	B	500	systole
263.03369999999995	0.1287500598700717	14	diastole	5	B	500	systole
263.5419999999999	0.1287500598700717	14	diastole	6	B	500	systole
264.6419999999998	0.1287500598700717	14	diastole	7	B	500	systole
265.74199999999996	0.1287500598700717	14	diastole	8	B	500	systole
266.91239999999993	0.1287500598700717	14	diastole	9	B	500	systole
268.0824	0.1287500598700717	14	diastole	10	B	500	systole
271.77239999999983	0.1362516850058455	15	systole	1	B	500	diastole
272.5622999999998	0.1362516850058455	15	systole	2	B	500	diastole
273.30229999999983	0.1362516850058455	15	systole	3	B	500	diastole
274.05229999999983	0.1362516850058455	15	systole	4	B	500	diastole
274.91499999999996	0.1362516850058455	15	systole	5	B	500	diastole
275.8651	0.1362516850058455	15	systole	6	B	500	diastole
276.6761999999999	0.1362516850058455	15	systole	7	B	500	diastole
277.5863999999999	0.1362516850058455	15	systole	8	B	500	diastole
278.24209999999994	0.1362516850058455	15	systole	9	B	500	diastole
278.9227999999998	0.1362516850058455	15	systole	10	B	500	diastole
279.63279999999986	0.1362516850058455	15	systole	11	B	500	diastole
280.4843999999998	0.1362516850058455	15	systole	12	B	500	diastole
284.0184999999999	0.104473137675086	16	systole	1	B	500	diastole
284.8083999999999	0.104473137675086	16	systole	2	B	500	diastole
285.5981999999999	0.104473137675086	16	systole	3	B	500	diastole
286.4575	0.104473137675086	16	systole	4	B	500	diastole
287.2991999999999	0.104473137675086	16	systole	5	B	500	diastole
288.2950999999998	0.104473137675086	16	systole	6	B	500	diastole
289.3071	0.104473137675086	16	systole	7	B	500	diastole
290.31909999999993	0.104473137675086	16	systole	8	B	500	diastole
291.3117	0.104473137675086	16	systole	9	B	500	diastole
292.2821999999999	0.104473137675086	16	systole	10	B	500	diastole
295.33539999999994	0.1129828795674257	17	systole	1	B	500	diastole
295.9405999999999	0.1129828795674257	17	systole	2	B	500	diastole
296.4574	0.1129828795674257	17	systole	3	B	500	diastole
297.06729999999993	0.1129828795674257	17	systole	4	B	500	diastole
297.56809999999996	0.1129828795674257	17	systole	5	B	500	diastole
298.1081999999999	0.1129828795674257	17	systole	6	B	500	diastole
299.0281	0.1129828795674257	17	systole	7	B	500	diastole
300.0982999999999	0.1129828795674257	17	systole	8	B	500	diastole
301.1683999999998	0.1129828795674257	17	systole	9	B	500	diastole
302.25829999999996	0.1129828795674257	17	systole	10	B	500	diastole
303.3481999999999	0.1129828795674257	17	systole	11	B	500	diastole
304.5064	0.1129828795674257	17	systole	12	B	500	diastole
307.8736999999999	0.1256440157012548	18	systole	1	B	500	diastole
308.6833999999999	0.1256440157012548	18	systole	2	B	500	diastole
309.3567999999998	0.1256440157012548	18	systole	3	B	500	diastole
310.0767999999998	0.1256440157012548	18	systole	4	B	500	diastole
310.7172999999998	0.1256440157012548	18	systole	5	B	500	diastole
311.3240999999998	0.1256440157012548	18	systole	6	B	500	diastole
311.7730999999999	0.1256440157012548	18	systole	7	B	500	diastole
312.3515	0.1256440157012548	18	systole	8	B	500	diastole
313.0115999999998	0.1256440157012548	18	systole	9	B	500	diastole
313.8316	0.1256440157012548	18	systole	10	B	500	diastole
314.79319999999984	0.1256440157012548	18	systole	11	B	500	diastole
315.75469999999996	0.1256440157012548	18	systole	12	B	500	diastole
316.69319999999993	0.1256440157012548	18	systole	13	B	500	diastole
322.6749	0.1180399750301148	19	diastole	1	B	500	systole
323.3548999999998	0.1180399750301148	19	diastole	2	B	500	systole
323.9763999999998	0.1180399750301148	19	diastole	3	B	500	systole
324.5227	0.1180399750301148	19	diastole	4	B	500	systole
325.3292999999999	0.1180399750301148	19	diastole	5	B	500	systole
326.2493999999999	0.1180399750301148	19	diastole	6	B	500	systole
327.2208999999998	0.1180399750301148	19	diastole	7	B	500	systole
328.0573999999999	0.1180399750301148	19	diastole	8	B	500	systole
328.98929999999996	0.1180399750301148	19	diastole	9	B	500	systole
329.8189	0.1180399750301148	19	diastole	10	B	500	systole
330.69269999999983	0.1180399750301148	19	diastole	11	B	500	systole
335.18769999999995	0.1082347517076414	20	diastole	1	B	500	diastole
335.89779999999996	0.1082347517076414	20	diastole	2	B	500	diastole
336.5595999999998	0.1082347517076414	20	diastole	3	B	500	diastole
337.18269999999984	0.1082347517076414	20	diastole	4	B	500	diastole
337.66279999999983	0.1082347517076414	20	diastole	5	B	500	diastole
338.2928999999999	0.1082347517076414	20	diastole	6	B	500	diastole
338.8294999999998	0.1082347517076414	20	diastole	7	B	500	diastole
339.3793999999998	0.1082347517076414	20	diastole	8	B	500	diastole
339.9676999999999	0.1082347517076414	20	diastole	9	B	500	diastole
340.7177999999999	0.1082347517076414	20	diastole	10	B	500	diastole
341.6977999999999	0.1082347517076414	20	diastole	11	B	500	diastole
342.67779999999993	0.1082347517076414	20	diastole	12	B	500	diastole
343.6178	0.1082347517076414	20	diastole	13	B	500	diastole
347.6676	0.1050043374416418	21	diastole	1	B	500	systole
348.6207999999999	0.1050043374416418	21	diastole	2	B	500	systole
349.5408	0.1050043374416418	21	diastole	3	B	500	systole
350.5106999999998	0.1050043374416418	21	diastole	4	B	500	systole
351.48069999999984	0.1050043374416418	21	diastole	5	B	500	systole
352.37069999999994	0.1050043374416418	21	diastole	6	B	500	systole
353.3008	0.1050043374416418	21	diastole	7	B	500	systole
354.4595999999999	0.1050043374416418	21	diastole	8	B	500	systole
355.5828999999999	0.1050043374416418	21	diastole	9	B	500	systole
356.6728999999998	0.1050043374416418	21	diastole	10	B	500	systole
360.3409999999999	0.1150271052028983	22	systole	1	B	500	systole
361.02729999999997	0.1150271052028983	22	systole	2	B	500	systole
361.7374	0.1150271052028983	22	systole	3	B	500	systole
362.42809999999986	0.1150271052028983	22	systole	4	B	500	systole
363.1848	0.1150271052028983	22	systole	5	B	500	systole
364.2048	0.1150271052028983	22	systole	6	B	500	systole
365.22479999999996	0.1150271052028983	22	systole	7	B	500	systole
366.2648999999999	0.1150271052028983	22	systole	8	B	500	systole
367.30499999999984	0.1150271052028983	22	systole	9	B	500	systole
368.21519999999987	0.1150271052028983	22	systole	10	B	500	systole
368.8753999999999	0.1150271052028983	22	systole	11	B	500	systole
369.6053999999999	0.1150271052028983	22	systole	12	B	500	systole
374.1290999999999	0.116857242246624	23	diastole	1	B	500	systole
374.90639999999985	0.116857242246624	23	diastole	2	B	500	systole
375.76649999999995	0.116857242246624	23	diastole	3	B	500	systole
376.66599999999994	0.116857242246624	23	diastole	4	B	500	systole
377.7609	0.116857242246624	23	diastole	5	B	500	systole
378.7809	0.116857242246624	23	diastole	6	B	500	systole
379.7959999999998	0.116857242246624	23	diastole	7	B	500	systole
380.7564	0.116857242246624	23	diastole	8	B	500	systole
381.70939999999996	0.116857242246624	23	diastole	9	B	500	systole
386.3916999999999	0.1062577754200901	24	systole	1	B	500	diastole
387.1317999999999	0.1062577754200901	24	systole	2	B	500	diastole
387.87199999999984	0.1062577754200901	24	systole	3	B	500	diastole
388.52869999999984	0.1062577754200901	24	systole	4	B	500	diastole
389.2086999999999	0.1062577754200901	24	systole	5	B	500	diastole
389.89699999999993	0.1062577754200901	24	systole	6	B	500	diastole
390.60119999999984	0.1062577754200901	24	systole	7	B	500	diastole
391.25509999999986	0.1062577754200901	24	systole	8	B	500	diastole
391.91369999999984	0.1062577754200901	24	systole	9	B	500	diastole
392.5837999999999	0.1062577754200901	24	systole	10	B	500	diastole
393.2663	0.1062577754200901	24	systole	11	B	500	diastole
394.0664999999999	0.1062577754200901	24	systole	12	B	500	diastole
394.8667999999998	0.1062577754200901	24	systole	13	B	500	diastole
408.1435999999999	0.0831252936623059	25	diastole	1	B	500	diastole
409.1435999999999	0.0831252936623059	25	diastole	2	B	500	diastole
410.3069999999998	0.0831252936623059	25	diastole	3	B	500	diastole
411.05729999999994	0.0831252936623059	25	diastole	4	B	500	diastole
411.7573	0.0831252936623059	25	diastole	5	B	500	diastole
412.4574	0.0831252936623059	25	diastole	6	B	500	diastole
413.13739999999984	0.0831252936623059	25	diastole	7	B	500	diastole
413.81729999999993	0.0831252936623059	25	diastole	8	B	500	diastole
414.4973	0.0831252936623059	25	diastole	9	B	500	diastole
415.30409999999983	0.0831252936623059	25	diastole	10	B	500	diastole
416.14239999999995	0.0831252936623059	25	diastole	11	B	500	diastole
417.02229999999986	0.0831252936623059	25	diastole	12	B	500	diastole
420.9351999999999	0.0818587624526117	26	systole	1	B	500	systole
421.8947999999998	0.0818587624526117	26	systole	2	B	500	systole
422.8544999999999	0.0818587624526117	26	systole	3	B	500	systole
423.7646	0.0818587624526117	26	systole	4	B	500	systole
424.80489999999986	0.0818587624526117	26	systole	5	B	500	systole
425.7748999999999	0.0818587624526117	26	systole	6	B	500	systole
426.97799999999984	0.0818587624526117	26	systole	7	B	500	systole
428.0071999999998	0.0818587624526117	26	systole	8	B	500	systole
429.0486999999998	0.0818587624526117	26	systole	9	B	500	systole
430.03599999999983	0.0818587624526117	26	systole	10	B	500	systole
433.4073999999998	0.1212465590215288	27	diastole	1	B	500	systole
434.3774999999998	0.1212465590215288	27	diastole	2	B	500	systole
435.2274	0.1212465590215288	27	diastole	3	B	500	systole
436.0773999999999	0.1212465590215288	27	diastole	4	B	500	systole
436.9273999999998	0.1212465590215288	27	diastole	5	B	500	systole
437.6172999999999	0.1212465590215288	27	diastole	6	B	500	systole
438.299	0.1212465590215288	27	diastole	7	B	500	systole
439.4390999999998	0.1212465590215288	27	diastole	8	B	500	systole
440.529	0.1212465590215288	27	diastole	9	B	500	systole
441.7254999999998	0.1212465590215288	27	diastole	10	B	500	systole
445.2815999999998	0.1318678876850754	28	systole	1	B	500	diastole
446.0415999999998	0.1318678876850754	28	systole	2	B	500	diastole
446.7516999999998	0.1318678876850754	28	systole	3	B	500	diastole
447.4216999999999	0.1318678876850754	28	systole	4	B	500	diastole
447.95489999999995	0.1318678876850754	28	systole	5	B	500	diastole
448.7630999999999	0.1318678876850754	28	systole	6	B	500	diastole
449.72299999999996	0.1318678876850754	28	systole	7	B	500	diastole
450.7329	0.1318678876850754	28	systole	8	B	500	diastole
451.7428	0.1318678876850754	28	systole	9	B	500	diastole
452.5809999999999	0.1318678876850754	28	systole	10	B	500	diastole
453.4309999999998	0.1318678876850754	28	systole	11	B	500	diastole
457.19399999999996	0.1112414010858628	29	diastole	1	B	500	diastole
458.0040999999999	0.1112414010858628	29	diastole	2	B	500	diastole
458.64739999999983	0.1112414010858628	29	diastole	3	B	500	diastole
459.2841999999998	0.1112414010858628	29	diastole	4	B	500	diastole
459.8408999999999	0.1112414010858628	29	diastole	5	B	500	diastole
460.481	0.1112414010858628	29	diastole	6	B	500	diastole
461.12099999999987	0.1112414010858628	29	diastole	7	B	500	diastole
461.7908	0.1112414010858628	29	diastole	8	B	500	diastole
462.9059	0.1112414010858628	29	diastole	9	B	500	diastole
463.9958999999999	0.1112414010858628	29	diastole	10	B	500	diastole
465.0859999999998	0.1112414010858628	29	diastole	11	B	500	diastole
466.2258999999999	0.1112414010858628	29	diastole	12	B	500	diastole
468.9361999999999	0.1206067843304481	30	systole	1	B	500	diastole
469.6660999999999	0.1206067843304481	30	systole	2	B	500	diastole
470.39599999999996	0.1206067843304481	30	systole	3	B	500	diastole
471.0252999999998	0.1206067843304481	30	systole	4	B	500	diastole
471.69529999999986	0.1206067843304481	30	systole	5	B	500	diastole
472.3652999999997	0.1206067843304481	30	systole	6	B	500	diastole
473.2439999999999	0.1206067843304481	30	systole	7	B	500	diastole
474.3641	0.1206067843304481	30	systole	8	B	500	diastole
475.50429999999983	0.1206067843304481	30	systole	9	B	500	diastole
476.6242	0.1206067843304481	30	systole	10	B	500	diastole
477.82410000000004	0.1206067843304481	30	systole	11	B	500	diastole
481.4934999999998	0.1299552806012798	31	diastole	1	B	500	diastole
482.23350000000005	0.1299552806012798	31	diastole	2	B	500	diastole
482.85220000000004	0.1299552806012798	31	diastole	3	B	500	diastole
483.38419999999974	0.1299552806012798	31	diastole	4	B	500	diastole
483.9174999999998	0.1299552806012798	31	diastole	5	B	500	diastole
484.3288	0.1299552806012798	31	diastole	6	B	500	diastole
484.67370000000005	0.1299552806012798	31	diastole	7	B	500	diastole
485.09369999999967	0.1299552806012798	31	diastole	8	B	500	diastole
485.3997999999999	0.1299552806012798	31	diastole	9	B	500	diastole
485.8578	0.1299552806012798	31	diastole	10	B	500	diastole
486.4981	0.1299552806012798	31	diastole	11	B	500	diastole
487.20799999999986	0.1299552806012798	31	diastole	12	B	500	diastole
487.9179999999999	0.1299552806012798	31	diastole	13	B	500	diastole
488.6980000000001	0.1299552806012798	31	diastole	14	B	500	diastole
489.53790000000004	0.1299552806012798	31	diastole	15	B	500	diastole
494.7706999999998	0.1049865789245814	32	systole	1	B	500	diastole
495.46080000000006	0.1049865789245814	32	systole	2	B	500	diastole
496.08929999999987	0.1049865789245814	32	systole	3	B	500	diastole
496.72939999999994	0.1049865789245814	32	systole	4	B	500	diastole
497.3084000000001	0.1049865789245814	32	systole	5	B	500	diastole
497.8309999999999	0.1049865789245814	32	systole	6	B	500	diastole
498.4386999999999	0.1049865789245814	32	systole	7	B	500	diastole
499.0988	0.1049865789245814	32	systole	8	B	500	diastole
500.2288000000001	0.1049865789245814	32	systole	9	B	500	diastole
501.35879999999975	0.1049865789245814	32	systole	10	B	500	diastole
502.51880000000006	0.1049865789245814	32	systole	11	B	500	diastole
503.6786999999997	0.1049865789245814	32	systole	12	B	500	diastole
507.97259999999983	0.1362500734685454	33	systole	1	B	500	systole
508.7726	0.1362500734685454	33	systole	2	B	500	systole
509.53509999999983	0.1362500734685454	33	systole	3	B	500	systole
510.2967000000001	0.1362500734685454	33	systole	4	B	500	systole
511.1852000000001	0.1362500734685454	33	systole	5	B	500	systole
512.2351999999998	0.1362500734685454	33	systole	6	B	500	systole
513.2852	0.1362500734685454	33	systole	7	B	500	systole
514.3832999999997	0.1362500734685454	33	systole	8	B	500	systole
515.4538	0.1362500734685454	33	systole	9	B	500	systole
516.4633000000001	0.1362500734685454	33	systole	10	B	500	systole
525.0435999999997	0.1124803866550792	34	systole	1	B	500	diastole
525.9637	0.1124803866550792	34	systole	2	B	500	diastole
526.5813	0.1124803866550792	34	systole	3	B	500	diastole
527.2913000000001	0.1124803866550792	34	systole	4	B	500	diastole
527.9172999999998	0.1124803866550792	34	systole	5	B	500	diastole
528.5802999999999	0.1124803866550792	34	systole	6	B	500	diastole
529.2501999999997	0.1124803866550792	34	systole	7	B	500	diastole
529.8344999999997	0.1124803866550792	34	systole	8	B	500	diastole
530.4828999999997	0.1124803866550792	34	systole	9	B	500	diastole
531.1062999999997	0.1124803866550792	34	systole	10	B	500	diastole
531.7463	0.1124803866550792	34	systole	11	B	500	diastole
532.3807999999997	0.1124803866550792	34	systole	12	B	500	diastole
533.2607999999998	0.1124803866550792	34	systole	13	B	500	diastole
534.1406999999997	0.1124803866550792	34	systole	14	B	500	diastole
541.2639999999999	0.1037441712396685	35	diastole	1	B	500	systole
541.9138999999998	0.1037441712396685	35	diastole	2	B	500	systole
543.0134	0.1037441712396685	35	diastole	3	B	500	systole
544.1128999999999	0.1037441712396685	35	diastole	4	B	500	systole
545.1935000000001	0.1037441712396685	35	diastole	5	B	500	systole
546.2733999999998	0.1037441712396685	35	diastole	6	B	500	systole
547.6955	0.1037441712396685	35	diastole	7	B	500	systole
548.6703999999997	0.1037441712396685	35	diastole	8	B	500	systole
549.6204	0.1037441712396685	35	diastole	9	B	500	systole
552.7776999999999	0.1237518382840789	36	systole	1	B	500	systole
553.5285999999999	0.1237518382840789	36	systole	2	B	500	systole
554.1951999999999	0.1237518382840789	36	systole	3	B	500	systole
554.8852999999997	0.1237518382840789	36	systole	4	B	500	systole
555.5375999999999	0.1237518382840789	36	systole	5	B	500	systole
556.2074999999998	0.1237518382840789	36	systole	6	B	500	systole
556.8772999999999	0.1237518382840789	36	systole	7	B	500	systole
557.3180999999997	0.1237518382840789	36	systole	8	B	500	systole
557.8736999999999	0.1237518382840789	36	systole	9	B	500	systole
558.4295999999997	0.1237518382840789	36	systole	10	B	500	systole
559.0496	0.1237518382840789	36	systole	11	B	500	systole
559.7195999999997	0.1237518382840789	36	systole	12	B	500	systole
560.5494999999999	0.1237518382840789	36	systole	13	B	500	systole
561.5795	0.1237518382840789	36	systole	14	B	500	systole
564.8907999999999	0.0812556163000408	37	diastole	1	B	500	diastole
565.8108	0.0812556163000408	37	diastole	2	B	500	diastole
566.6125999999997	0.0812556163000408	37	diastole	3	B	500	diastole
567.3226999999999	0.0812556163000408	37	diastole	4	B	500	diastole
567.9727	0.0812556163000408	37	diastole	5	B	500	diastole
568.6025999999999	0.0812556163000408	37	diastole	6	B	500	diastole
569.2027	0.0812556163000408	37	diastole	7	B	500	diastole
569.7126999999998	0.0812556163000408	37	diastole	8	B	500	diastole
570.3091999999999	0.0812556163000408	37	diastole	9	B	500	diastole
571.5291	0.0812556163000408	37	diastole	10	B	500	diastole
572.6391999999998	0.0812556163000408	37	diastole	11	B	500	diastole
573.7492999999997	0.0812556163000408	37	diastole	12	B	500	diastole
577.6941999999997	0.1299931855755858	38	diastole	1	B	500	diastole
578.5242000000001	0.1299931855755858	38	diastole	2	B	500	diastole
579.2342000000001	0.1299931855755858	38	diastole	3	B	500	diastole
579.9441999999997	0.1299931855755858	38	diastole	4	B	500	diastole
580.5092999999999	0.1299931855755858	38	diastole	5	B	500	diastole
581.1492000000001	0.1299931855755858	38	diastole	6	B	500	diastole
581.5341000000001	0.1299931855755858	38	diastole	7	B	500	diastole
581.9192999999998	0.1299931855755858	38	diastole	8	B	500	diastole
582.5375999999999	0.1299931855755858	38	diastole	9	B	500	diastole
583.3376000000001	0.1299931855755858	38	diastole	10	B	500	diastole
584.1375999999998	0.1299931855755858	38	diastole	11	B	500	diastole
585.0876000000001	0.1299931855755858	38	diastole	12	B	500	diastole
589.1955999999998	0.1081227062095422	39	diastole	1	B	500	diastole
590.0354999999997	0.1081227062095422	39	diastole	2	B	500	diastole
590.7555999999997	0.1081227062095422	39	diastole	3	B	500	diastole
591.4255	0.1081227062095422	39	diastole	4	B	500	diastole
592.0653999999997	0.1081227062095422	39	diastole	5	B	500	diastole
592.6856	0.1081227062095422	39	diastole	6	B	500	diastole
593.3057999999999	0.1081227062095422	39	diastole	7	B	500	diastole
593.7308	0.1081227062095422	39	diastole	8	B	500	diastole
594.1791000000001	0.1081227062095422	39	diastole	9	B	500	diastole
594.7690999999998	0.1081227062095422	39	diastole	10	B	500	diastole
595.2989999999998	0.1081227062095422	39	diastole	11	B	500	diastole
596.2589999999998	0.1081227062095422	39	diastole	12	B	500	diastole
597.2690999999998	0.1081227062095422	39	diastole	13	B	500	diastole
598.269	0.1081227062095422	39	diastole	14	B	500	diastole
601.7762999999998	0.1181499919621273	40	diastole	1	B	500	systole
602.4358999999997	0.1181499919621273	40	diastole	2	B	500	systole
603.0954999999997	0.1181499919621273	40	diastole	3	B	500	systole
603.7553999999998	0.1181499919621273	40	diastole	4	B	500	systole
604.3275000000001	0.1181499919621273	40	diastole	5	B	500	systole
605.3891000000001	0.1181499919621273	40	diastole	6	B	500	systole
606.4174	0.1181499919621273	40	diastole	7	B	500	systole
607.4473999999998	0.1181499919621273	40	diastole	8	B	500	systole
608.4774	0.1181499919621273	40	diastole	9	B	500	systole
609.6487	0.1181499919621273	40	diastole	10	B	500	systole
610.6287	0.1181499919621273	40	diastole	11	B	500	systole
613.5691999999997	0.1243779638316482	41	diastole	1	B	500	diastole
614.4176	0.1243779638316482	41	diastole	2	B	500	diastole
615.1791000000001	0.1243779638316482	41	diastole	3	B	500	diastole
615.5514000000001	0.1243779638316482	41	diastole	4	B	500	diastole
615.7863999999997	0.1243779638316482	41	diastole	5	B	500	diastole
616.1388999999997	0.1243779638316482	41	diastole	6	B	500	diastole
616.6074999999998	0.1243779638316482	41	diastole	7	B	500	diastole
617.2225000000001	0.1243779638316482	41	diastole	8	B	500	diastole
617.8623999999998	0.1243779638316482	41	diastole	9	B	500	diastole
618.5024000000001	0.1243779638316482	41	diastole	10	B	500	diastole
619.3722999999998	0.1243779638316482	41	diastole	11	B	500	diastole
620.492	0.1243779638316482	41	diastole	12	B	500	diastole
621.4019000000001	0.1243779638316482	41	diastole	13	B	500	diastole
622.5633999999998	0.1243779638316482	41	diastole	14	B	500	diastole
628.3057000000001	0.1256326992588583	42	diastole	1	B	500	diastole
629.2955999999997	0.1256326992588583	42	diastole	2	B	500	diastole
630.0355999999999	0.1256326992588583	42	diastole	3	B	500	diastole
630.7756999999999	0.1256326992588583	42	diastole	4	B	500	diastole
631.4655999999998	0.1256326992588583	42	diastole	5	B	500	diastole
632.1271999999997	0.1256326992588583	42	diastole	6	B	500	diastole
632.6987999999999	0.1256326992588583	42	diastole	7	B	500	diastole
633.2103999999997	0.1256326992588583	42	diastole	8	B	500	diastole
634.1838999999998	0.1256326992588583	42	diastole	9	B	500	diastole
635.1737999999998	0.1256326992588583	42	diastole	10	B	500	diastole
636.1537000000001	0.1256326992588583	42	diastole	11	B	500	diastole
637.1337000000001	0.1256326992588583	42	diastole	12	B	500	diastole
639.1125	0.1062696937005966	43	systole	1	B	500	diastole
639.8625	0.1062696937005966	43	systole	2	B	500	diastole
640.5424999999998	0.1062696937005966	43	systole	3	B	500	diastole
641.2225000000001	0.1062696937005966	43	systole	4	B	500	diastole
641.8574000000001	0.1062696937005966	43	systole	5	B	500	diastole
642.5246999999997	0.1062696937005966	43	systole	6	B	500	diastole
643.5647999999999	0.1062696937005966	43	systole	7	B	500	diastole
644.6049999999998	0.1062696937005966	43	systole	8	B	500	diastole
645.6649	0.1062696937005966	43	systole	9	B	500	diastole
646.7248999999999	0.1062696937005966	43	systole	10	B	500	diastole
647.7847999999997	0.1062696937005966	43	systole	11	B	500	diastole
648.9331999999997	0.1062696937005966	43	systole	12	B	500	diastole
652.0989999999999	0.1181288237858098	44	diastole	1	B	500	diastole
652.6870999999999	0.1181288237858098	44	diastole	2	B	500	diastole
653.367	0.1181288237858098	44	diastole	3	B	500	diastole
654.0251000000001	0.1181288237858098	44	diastole	4	B	500	diastole
654.7751000000001	0.1181288237858098	44	diastole	5	B	500	diastole
655.5249999999999	0.1181288237858098	44	diastole	6	B	500	diastole
656.6251	0.1181288237858098	44	diastole	7	B	500	diastole
657.7250999999999	0.1181288237858098	44	diastole	8	B	500	diastole
658.8450999999998	0.1181288237858098	44	diastole	9	B	500	diastole
659.9350999999999	0.1181288237858098	44	diastole	10	B	500	diastole
661.2602999999997	0.1181288237858098	44	diastole	11	B	500	diastole
665.4873999999998	0.1306199787650257	45	diastole	1	B	500	diastole
666.1941999999997	0.1306199787650257	45	diastole	2	B	500	diastole
666.9842999999998	0.1306199787650257	45	diastole	3	B	500	diastole
667.6125999999997	0.1306199787650257	45	diastole	4	B	500	diastole
668.1777999999997	0.1306199787650257	45	diastole	5	B	500	diastole
668.818	0.1306199787650257	45	diastole	6	B	500	diastole
669.2924	0.1306199787650257	45	diastole	7	B	500	diastole
669.992	0.1306199787650257	45	diastole	8	B	500	diastole
671.0820000000001	0.1306199787650257	45	diastole	9	B	500	diastole
672.1723999999997	0.1306199787650257	45	diastole	10	B	500	diastole
673.2519999999997	0.1306199787650257	45	diastole	11	B	500	diastole
676.9657999999997	0.1293855803378392	46	diastole	1	B	500	diastole
677.7257999999999	0.1293855803378392	46	diastole	2	B	500	diastole
678.4858999999999	0.1293855803378392	46	diastole	3	B	500	diastole
679.1557999999998	0.1293855803378392	46	diastole	4	B	500	diastole
679.6539	0.1293855803378392	46	diastole	5	B	500	diastole
680.2937	0.1293855803378392	46	diastole	6	B	500	diastole
680.7538999999999	0.1293855803378392	46	diastole	7	B	500	diastole
681.7139	0.1293855803378392	46	diastole	8	B	500	diastole
682.7038	0.1293855803378392	46	diastole	9	B	500	diastole
683.6937	0.1293855803378392	46	diastole	10	B	500	diastole
684.6737	0.1293855803378392	46	diastole	11	B	500	diastole
688.2922999999998	0.1212552311772015	47	diastole	1	B	500	systole
689.2623000000001	0.1212552311772015	47	diastole	2	B	500	systole
690.1323	0.1212552311772015	47	diastole	3	B	500	systole
691.0022999999999	0.1212552311772015	47	diastole	4	B	500	systole
691.7623999999998	0.1212552311772015	47	diastole	5	B	500	systole
692.5224999999998	0.1212552311772015	47	diastole	6	B	500	systole
693.3257999999998	0.1212552311772015	47	diastole	7	B	500	systole
694.1957999999997	0.1212552311772015	47	diastole	8	B	500	systole
695.1759	0.1212552311772015	47	diastole	9	B	500	systole
696.1559	0.1212552311772015	47	diastole	10	B	500	systole
697.1359	0.1212552311772015	47	diastole	11	B	500	systole
700.5707999999997	0.1125008749368134	48	diastole	1	B	500	diastole
701.2308	0.1125008749368134	48	diastole	2	B	500	diastole
701.8909000000001	0.1125008749368134	48	diastole	3	B	500	diastole
702.5606999999998	0.1125008749368134	48	diastole	4	B	500	diastole
703.1224	0.1125008749368134	48	diastole	5	B	500	diastole
703.7924	0.1125008749368134	48	diastole	6	B	500	diastole
704.5208	0.1125008749368134	48	diastole	7	B	500	diastole
705.6008999999997	0.1125008749368134	48	diastole	8	B	500	diastole
706.6908000000001	0.1125008749368134	48	diastole	9	B	500	diastole
707.7207999999998	0.1125008749368134	48	diastole	10	B	500	diastole
708.7508	0.1125008749368134	48	diastole	11	B	500	diastole
709.9624999999999	0.1125008749368134	48	diastole	12	B	500	diastole
713.5910000000001	0.1237524647149257	49	diastole	1	B	500	diastole
714.1593	0.1237524647149257	49	diastole	2	B	500	diastole
714.8192999999999	0.1237524647149257	49	diastole	3	B	500	diastole
715.3558999999998	0.1237524647149257	49	diastole	4	B	500	diastole
715.8972999999999	0.1237524647149257	49	diastole	5	B	500	diastole
716.9471999999998	0.1237524647149257	49	diastole	6	B	500	diastole
718.0073	0.1237524647149257	49	diastole	7	B	500	diastole
719.0372999999997	0.1237524647149257	49	diastole	8	B	500	diastole
720.0073	0.1237524647149257	49	diastole	9	B	500	diastole
721.0640999999998	0.1237524647149257	49	diastole	10	B	500	diastole
722.0042000000001	0.1237524647149257	49	diastole	11	B	500	diastole
725.4356	0.1168692625069525	50	diastole	1	B	500	systole
726.2254999999998	0.1168692625069525	50	diastole	2	B	500	systole
727.1004999999998	0.1168692625069525	50	diastole	3	B	500	systole
728.0003999999997	0.1168692625069525	50	diastole	4	B	500	systole
729.0204000000001	0.1168692625069525	50	diastole	5	B	500	systole
730.0404000000001	0.1168692625069525	50	diastole	6	B	500	systole
731.0604000000001	0.1168692625069525	50	diastole	7	B	500	systole
732.0404999999998	0.1168692625069525	50	diastole	8	B	500	systole
733.0206000000001	0.1168692625069525	50	diastole	9	B	500	systole
734.0006999999998	0.1168692625069525	50	diastole	10	B	500	systole
736.8356999999999	0.1168751614750363	51	systole	1	B	500	diastole
737.4806999999998	0.1168751614750363	51	systole	2	B	500	diastole
738.1724999999999	0.1168751614750363	51	systole	3	B	500	diastole
738.7780999999998	0.1168751614750363	51	systole	4	B	500	diastole
739.4111	0.1168751614750363	51	systole	5	B	500	diastole
740.0791999999999	0.1168751614750363	51	systole	6	B	500	diastole
740.8290999999997	0.1168751614750363	51	systole	7	B	500	diastole
741.9091999999998	0.1168751614750363	51	systole	8	B	500	diastole
742.9893	0.1168751614750363	51	systole	9	B	500	diastole
744.0388999999998	0.1168751614750363	51	systole	10	B	500	diastole
744.8988999999999	0.1168751614750363	51	systole	11	B	500	diastole
745.8915	0.1168751614750363	51	systole	12	B	500	diastole
750.2043000000001	0.1268429202027619	52	systole	1	B	500	diastole
750.8704999999998	0.1268429202027619	52	systole	2	B	500	diastole
751.4905999999999	0.1268429202027619	52	systole	3	B	500	diastole
752.1804999999997	0.1268429202027619	52	systole	4	B	500	diastole
752.8106	0.1268429202027619	52	systole	5	B	500	diastole
753.4403999999997	0.1268429202027619	52	systole	6	B	500	diastole
753.8389	0.1268429202027619	52	systole	7	B	500	diastole
754.4588999999999	0.1268429202027619	52	systole	8	B	500	diastole
755.0948000000001	0.1268429202027619	52	systole	9	B	500	diastole
756.1143	0.1268429202027619	52	systole	10	B	500	diastole
757.1542999999999	0.1268429202027619	52	systole	11	B	500	diastole
758.1942999999999	0.1268429202027619	52	systole	12	B	500	diastole
759.2643999999998	0.1268429202027619	52	systole	13	B	500	diastole
763.0604000000001	0.1237187623628415	53	diastole	1	B	500	diastole
763.7501	0.1237187623628415	53	diastole	2	B	500	diastole
764.4397999999999	0.1237187623628415	53	diastole	3	B	500	diastole
765.1098	0.1237187623628415	53	diastole	4	B	500	diastole
765.6233999999997	0.1237187623628415	53	diastole	5	B	500	diastole
766.1982999999998	0.1237187623628415	53	diastole	6	B	500	diastole
766.9482999999998	0.1237187623628415	53	diastole	7	B	500	diastole
767.8686999999998	0.1237187623628415	53	diastole	8	B	500	diastole
768.8787	0.1237187623628415	53	diastole	9	B	500	diastole
769.8888	0.1237187623628415	53	diastole	10	B	500	diastole
770.8987999999997	0.1237187623628415	53	diastole	11	B	500	diastole
774.9974999999997	0.1125311666692141	54	diastole	1	B	500	systole
775.5835999999997	0.1125311666692141	54	diastole	2	B	500	systole
776.2531999999999	0.1125311666692141	54	diastole	3	B	500	systole
776.8765999999998	0.1125311666692141	54	diastole	4	B	500	systole
777.6771000000001	0.1125311666692141	54	diastole	5	B	500	systole
778.6868999999999	0.1125311666692141	54	diastole	6	B	500	systole
779.6868999999999	0.1125311666692141	54	diastole	7	B	500	systole
780.6341	0.1125311666692141	54	diastole	8	B	500	systole
781.5642999999998	0.1125311666692141	54	diastole	9	B	500	systole
782.6256000000001	0.1125311666692141	54	diastole	10	B	500	systole
783.4956999999997	0.1125311666692141	54	diastole	11	B	500	systole
787.9462000000001	0.1150087811984121	55	systole	1	B	500	diastole
788.6528999999998	0.1150087811984121	55	systole	2	B	500	diastole
789.3828999999998	0.1150087811984121	55	systole	3	B	500	diastole
790.0555999999999	0.1150087811984121	55	systole	4	B	500	diastole
790.7238999999997	0.1150087811984121	55	systole	5	B	500	diastole
791.3904999999997	0.1150087811984121	55	systole	6	B	500	diastole
792.2683	0.1150087811984121	55	systole	7	B	500	diastole
793.3297999999998	0.1150087811984121	55	systole	8	B	500	diastole
794.3796	0.1150087811984121	55	systole	9	B	500	diastole
795.4595999999999	0.1150087811984121	55	systole	10	B	500	diastole
796.5296999999998	0.1150087811984121	55	systole	11	B	500	diastole
800.3030999999999	0.1125072314462158	56	systole	1	B	500	systole
800.8104999999998	0.1125072314462158	56	systole	2	B	500	systole
801.4403999999997	0.1125072314462158	56	systole	3	B	500	systole
802.0029999999999	0.1125072314462158	56	systole	4	B	500	systole
802.7171000000001	0.1125072314462158	56	systole	5	B	500	systole
803.8169999999998	0.1125072314462158	56	systole	6	B	500	systole
804.8870999999997	0.1125072314462158	56	systole	7	B	500	systole
806.017	0.1125072314462158	56	systole	8	B	500	systole
807.1469	0.1125072314462158	56	systole	9	B	500	systole
808.4549	0.1125072314462158	56	systole	10	B	500	systole
809.7133999999999	0.1125072314462158	56	systole	11	B	500	systole
813.9390000000001	0.1343849043478258	57	systole	1	B	500	diastole
814.6231999999998	0.1343849043478258	57	systole	2	B	500	diastole
815.3133	0.1343849043478258	57	systole	3	B	500	diastole
815.9740999999997	0.1343849043478258	57	systole	4	B	500	diastole
816.5550000000001	0.1343849043478258	57	systole	5	B	500	diastole
817.1332999999997	0.1343849043478258	57	systole	6	B	500	diastole
817.8807999999997	0.1343849043478258	57	systole	7	B	500	diastole
818.6809000000001	0.1343849043478258	57	systole	8	B	500	diastole
819.4041	0.1343849043478258	57	systole	9	B	500	diastole
820.1636000000001	0.1343849043478258	57	systole	10	B	500	diastole
821.0419999999997	0.1343849043478258	57	systole	11	B	500	diastole
821.9203999999997	0.1343849043478258	57	systole	12	B	500	diastole
822.9059	0.1343849043478258	57	systole	13	B	500	diastole
826.3453999999999	0.0988870919391047	58	diastole	1	B	500	diastole
826.9968999999999	0.0988870919391047	58	diastole	2	B	500	diastole
827.6074999999998	0.0988870919391047	58	diastole	3	B	500	diastole
828.2258999999997	0.0988870919391047	58	diastole	4	B	500	diastole
828.8027999999997	0.0988870919391047	58	diastole	5	B	500	diastole
829.3661999999997	0.0988870919391047	58	diastole	6	B	500	diastole
829.9961000000001	0.0988870919391047	58	diastole	7	B	500	diastole
830.9223999999997	0.0988870919391047	58	diastole	8	B	500	diastole
831.8724999999997	0.0988870919391047	58	diastole	9	B	500	diastole
832.9525999999998	0.0988870919391047	58	diastole	10	B	500	diastole
834.0327	0.0988870919391047	58	diastole	11	B	500	diastole
835.1126999999999	0.0988870919391047	58	diastole	12	B	500	diastole
847.8835999999999	0.086253463930916	59	diastole	1	B	500	systole
848.6737	0.086253463930916	59	diastole	2	B	500	systole
849.9323999999999	0.086253463930916	59	diastole	3	B	500	systole
851.0323000000001	0.086253463930916	59	diastole	4	B	500	systole
852.2955999999997	0.086253463930916	59	diastole	5	B	500	systole
853.4055000000001	0.086253463930916	59	diastole	6	B	500	systole
854.5572999999997	0.086253463930916	59	diastole	7	B	500	systole
855.6939999999997	0.086253463930916	59	diastole	8	B	500	systole
856.7038999999997	0.086253463930916	59	diastole	9	B	500	systole
857.664	0.086253463930916	59	diastole	10	B	500	systole
861.4422999999999	0.1181343598582316	60	diastole	1	B	500	systole
862.0804999999998	0.1181343598582316	60	diastole	2	B	500	systole
862.8104000000001	0.1181343598582316	60	diastole	3	B	500	systole
863.7472	0.1181343598582316	60	diastole	4	B	500	systole
864.7672999999998	0.1181343598582316	60	diastole	5	B	500	systole
865.7872999999997	0.1181343598582316	60	diastole	6	B	500	systole
866.7773999999997	0.1181343598582316	60	diastole	7	B	500	systole
867.7722999999999	0.1181343598582316	60	diastole	8	B	500	systole
868.6422999999998	0.1181343598582316	60	diastole	9	B	500	systole
869.5573999999999	0.1181343598582316	60	diastole	10	B	500	systole
870.579	0.1181343598582316	60	diastole	11	B	500	systole
875.9156999999998	0.1162538999051321	61	systole	1	B	500	diastole
876.5957999999998	0.1162538999051321	61	systole	2	B	500	diastole
877.2758999999999	0.1162538999051321	61	systole	3	B	500	diastole
877.9399999999998	0.1162538999051321	61	systole	4	B	500	diastole
878.4941000000001	0.1162538999051321	61	systole	5	B	500	diastole
879.0323999999998	0.1162538999051321	61	systole	6	B	500	diastole
879.5842999999998	0.1162538999051321	61	systole	7	B	500	diastole
880.6342999999999	0.1162538999051321	61	systole	8	B	500	diastole
881.6843000000001	0.1162538999051321	61	systole	9	B	500	diastole
882.6941999999997	0.1162538999051321	61	systole	10	B	500	diastole
883.7342999999998	0.1162538999051321	61	systole	11	B	500	diastole
884.8041999999998	0.1162538999051321	61	systole	12	B	500	diastole
888.7090000000001	0.1243760078505147	62	diastole	1	B	500	diastole
889.559	0.1243760078505147	62	diastole	2	B	500	diastole
890.4091000000001	0.1243760078505147	62	diastole	3	B	500	diastole
891.0473999999997	0.1243760078505147	62	diastole	4	B	500	diastole
891.4219	0.1243760078505147	62	diastole	5	B	500	diastole
892.0238999999999	0.1243760078505147	62	diastole	6	B	500	diastole
892.7438999999997	0.1243760078505147	62	diastole	7	B	500	diastole
893.8039000000001	0.1243760078505147	62	diastole	8	B	500	diastole
894.8639000000001	0.1243760078505147	62	diastole	9	B	500	diastole
895.9538999999997	0.1243760078505147	62	diastole	10	B	500	diastole
897.0438999999999	0.1243760078505147	62	diastole	11	B	500	diastole
900.8412000000001	0.1243838944646995	63	systole	1	B	500	diastole
901.5310999999999	0.1243838944646995	63	systole	2	B	500	diastole
902.0509999999997	0.1243838944646995	63	systole	3	B	500	diastole
902.711	0.1243838944646995	63	systole	4	B	500	diastole
903.3126	0.1243838944646995	63	systole	5	B	500	diastole
904.3924999999997	0.1243838944646995	63	systole	6	B	500	diastole
905.4721999999999	0.1243838944646995	63	systole	7	B	500	diastole
906.5518999999997	0.1243838944646995	63	systole	8	B	500	diastole
907.6119999999999	0.1243838944646995	63	systole	9	B	500	diastole
908.6319999999998	0.1243838944646995	63	systole	10	B	500	diastole
909.7643999999998	0.1243838944646995	63	systole	11	B	500	diastole
912.7086999999999	0.1125081189675256	64	systole	1	B	500	diastole
913.3787	0.1125081189675256	64	systole	2	B	500	diastole
914.0485000000001	0.1125081189675256	64	systole	3	B	500	diastole
915.0685000000001	0.1125081189675256	64	systole	4	B	500	diastole
916.0885000000001	0.1125081189675256	64	systole	5	B	500	diastole
917.1085	0.1125081189675256	64	systole	6	B	500	diastole
918.2083999999998	0.1125081189675256	64	systole	7	B	500	diastole
919.3118999999999	0.1125081189675256	64	systole	8	B	500	diastole
920.3801999999998	0.1125081189675256	64	systole	9	B	500	diastole
921.3900999999998	0.1125081189675256	64	systole	10	B	500	diastole
924.6397	0.0793743999965954	65	systole	1	B	500	systole
925.5197999999998	0.0793743999965954	65	systole	2	B	500	systole
926.3999999999999	0.0793743999965954	65	systole	3	B	500	systole
927.2800999999997	0.0793743999965954	65	systole	4	B	500	systole
928.3499999999997	0.0793743999965954	65	systole	5	B	500	systole
929.5175999999999	0.0793743999965954	65	systole	6	B	500	systole
930.6678999999997	0.0793743999965954	65	systole	7	B	500	systole
932.1888999999999	0.0793743999965954	65	systole	8	B	500	systole
933.3189	0.0793743999965954	65	systole	9	B	500	systole
934.4770000000001	0.0793743999965954	65	systole	10	B	500	systole
938.5323000000001	0.126274264534004	66	systole	1	B	500	systole
939.1921999999997	0.126274264534004	66	systole	2	B	500	systole
939.7663	0.126274264534004	66	systole	3	B	500	systole
940.6696999999997	0.126274264534004	66	systole	4	B	500	systole
941.6895999999999	0.126274264534004	66	systole	5	B	500	systole
942.8194999999998	0.126274264534004	66	systole	6	B	500	systole
943.9493999999997	0.126274264534004	66	systole	7	B	500	systole
945.0793999999999	0.126274264534004	66	systole	8	B	500	systole
946.2092999999998	0.126274264534004	66	systole	9	B	500	systole
947.3693000000001	0.126274264534004	66	systole	10	B	500	systole
950.9704999999997	0.1281255703070201	67	systole	1	B	500	diastole
951.8405	0.1281255703070201	67	systole	2	B	500	diastole
952.5303999999999	0.1281255703070201	67	systole	3	B	500	diastole
953.2412999999999	0.1281255703070201	67	systole	4	B	500	diastole
953.9341999999999	0.1281255703070201	67	systole	5	B	500	diastole
954.6465999999998	0.1281255703070201	67	systole	6	B	500	diastole
955.3767	0.1281255703070201	67	systole	7	B	500	diastole
956.1647999999998	0.1281255703070201	67	systole	8	B	500	diastole
957.1146999999999	0.1281255703070201	67	systole	9	B	500	diastole
958.1146999999999	0.1281255703070201	67	systole	10	B	500	diastole
959.1146999999999	0.1281255703070201	67	systole	11	B	500	diastole
960.1746999999998	0.1281255703070201	67	systole	12	B	500	diastole
965.4788000000001	0.1199968520959373	68	systole	1	B	500	diastole
966.0804999999998	0.1199968520959373	68	systole	2	B	500	diastole
966.7405000000001	0.1199968520959373	68	systole	3	B	500	diastole
967.0937999999999	0.1199968520959373	68	systole	4	B	500	diastole
967.5844	0.1199968520959373	68	systole	5	B	500	diastole
968.2367999999999	0.1199968520959373	68	systole	6	B	500	diastole
968.9509999999998	0.1199968520959373	68	systole	7	B	500	diastole
969.6708999999998	0.1199968520959373	68	systole	8	B	500	diastole
970.7508999999998	0.1199968520959373	68	systole	9	B	500	diastole
971.8308999999997	0.1199968520959373	68	systole	10	B	500	diastole
972.9008999999999	0.1199968520959373	68	systole	11	B	500	diastole
974.0168000000001	0.1199968520959373	68	systole	12	B	500	diastole
975.405	0.1199968520959373	68	systole	13	B	500	diastole
984.2369999999999	0.1062514473160263	69	diastole	1	B	500	systole
985.3769999999997	0.1062514473160263	69	diastole	2	B	500	systole
986.5071	0.1062514473160263	69	diastole	3	B	500	systole
987.8254	0.1062514473160263	69	diastole	4	B	500	systole
989.1820999999998	0.1062514473160263	69	diastole	5	B	500	systole
990.2720999999999	0.1062514473160263	69	diastole	6	B	500	systole
991.242	0.1062514473160263	69	diastole	7	B	500	systole
991.972	0.1062514473160263	69	diastole	8	B	500	systole
996.6303	0.1243695559969637	70	systole	1	B	500	diastole
997.4711	0.1243695559969637	70	systole	2	B	500	diastole
998.3706999999997	0.1243695559969637	70	systole	3	B	500	diastole
999.0258000000001	0.1243695559969637	70	systole	4	B	500	diastole
999.7859000000001	0.1243695559969637	70	systole	5	B	500	diastole
1000.4758999999997	0.1243695559969637	70	systole	6	B	500	diastole
1001.1658999999997	0.1243695559969637	70	systole	7	B	500	diastole
1001.8259	0.1243695559969637	70	systole	8	B	500	diastole
1002.3945999999999	0.1243695559969637	70	systole	9	B	500	diastole
1002.9943999999998	0.1243695559969637	70	systole	10	B	500	diastole
1003.6641999999999	0.1243695559969637	70	systole	11	B	500	diastole
1004.3340999999998	0.1243695559969637	70	systole	12	B	500	diastole
1005.1939999999997	0.1243695559969637	70	systole	13	B	500	diastole
1010.6904999999999	0.1162468394904863	71	diastole	1	B	500	diastole
1011.4405999999997	0.1162468394904863	71	diastole	2	B	500	diastole
1012.1905999999997	0.1162468394904863	71	diastole	3	B	500	diastole
1012.8704999999998	0.1162468394904863	71	diastole	4	B	500	diastole
1013.5505999999998	0.1162468394904863	71	diastole	5	B	500	diastole
1014.2306000000001	0.1162468394904863	71	diastole	6	B	500	diastole
1014.6737999999998	0.1162468394904863	71	diastole	7	B	500	diastole
1015.4687999999999	0.1162468394904863	71	diastole	8	B	500	diastole
1016.5887999999998	0.1162468394904863	71	diastole	9	B	500	diastole
1017.7088000000001	0.1162468394904863	71	diastole	10	B	500	diastole
1018.7987999999998	0.1162468394904863	71	diastole	11	B	500	diastole
1022.3704	0.1012496317853219	72	diastole	1	B	500	diastole
1022.9905999999999	0.1012496317853219	72	diastole	2	B	500	diastole
1023.3988999999999	0.1012496317853219	72	diastole	3	B	500	diastole
1023.9304999999997	0.1012496317853219	72	diastole	4	B	500	diastole
1024.459	0.1012496317853219	72	diastole	5	B	500	diastole
1025.0289	0.1012496317853219	72	diastole	6	B	500	diastole
1025.5572999999997	0.1012496317853219	72	diastole	7	B	500	diastole
1026.1505	0.1012496317853219	72	diastole	8	B	500	diastole
1026.7604	0.1012496317853219	72	diastole	9	B	500	diastole
1027.3805	0.1012496317853219	72	diastole	10	B	500	diastole
1028.0104	0.1012496317853219	72	diastole	11	B	500	diastole
1028.6404	0.1012496317853219	72	diastole	12	B	500	diastole
1029.2969999999998	0.1012496317853219	72	diastole	13	B	500	diastole
1029.9255	0.1012496317853219	72	diastole	14	B	500	diastole
1030.5455999999997	0.1012496317853219	72	diastole	15	B	500	diastole
1033.6798000000001	0.0768764787353575	73	systole	1	B	500	systole
1034.7416999999998	0.0768764787353575	73	systole	2	B	500	systole
1035.8036999999997	0.0768764787353575	73	systole	3	B	500	systole
1036.9639999999997	0.0768764787353575	73	systole	4	B	500	systole
1038.1242999999997	0.0768764787353575	73	systole	5	B	500	systole
1039.2939	0.0768764787353575	73	systole	6	B	500	systole
1040.9012999999998	0.0768764787353575	73	systole	7	B	500	systole
1042.0012	0.0768764787353575	73	systole	8	B	500	systole
1043.1453	0.0768764787353575	73	systole	9	B	500	systole
1046.0442	0.1375278361374512	74	systole	1	B	500	diastole
1046.9547	0.1375278361374512	74	systole	2	B	500	diastole
1047.7694	0.1375278361374512	74	systole	3	B	500	diastole
1048.4642999999999	0.1375278361374512	74	systole	4	B	500	diastole
1049.0334999999998	0.1375278361374512	74	systole	5	B	500	diastole
1049.7135	0.1375278361374512	74	systole	6	B	500	diastole
1050.3936	0.1375278361374512	74	systole	7	B	500	diastole
1051.4079999999997	0.1375278361374512	74	systole	8	B	500	diastole
1052.4878	0.1375278361374512	74	systole	9	B	500	diastole
1053.4578	0.1375278361374512	74	systole	10	B	500	diastole
1054.4624999999999	0.1375278361374512	74	systole	11	B	500	diastole
1059.0473	0.1175102979759685	75	diastole	1	B	500	diastole
1059.7272999999998	0.1175102979759685	75	diastole	2	B	500	diastole
1060.3056	0.1175102979759685	75	diastole	3	B	500	diastole
1060.8605999999997	0.1175102979759685	75	diastole	4	B	500	diastole
1061.6687999999997	0.1175102979759685	75	diastole	5	B	500	diastole
1062.6388999999997	0.1175102979759685	75	diastole	6	B	500	diastole
1063.6087999999997	0.1175102979759685	75	diastole	7	B	500	diastole
1064.5388999999998	0.1175102979759685	75	diastole	8	B	500	diastole
1065.4821999999997	0.1175102979759685	75	diastole	9	B	500	diastole
1066.3421	0.1175102979759685	75	diastole	10	B	500	diastole
1067.0671999999997	0.1175102979759685	75	diastole	11	B	500	diastole
1070.2737999999997	0.0925000857387203	76	systole	1	B	500	systole
1071.2137999999998	0.0925000857387203	76	systole	2	B	500	systole
1072.2137999999998	0.0925000857387203	76	systole	3	B	500	systole
1073.2137999999998	0.0925000857387203	76	systole	4	B	500	systole
1074.2137999999998	0.0925000857387203	76	systole	5	B	500	systole
1075.2236999999998	0.0925000857387203	76	systole	6	B	500	systole
1076.3169999999998	0.0925000857387203	76	systole	7	B	500	systole
1077.4763	0.0925000857387203	76	systole	8	B	500	systole
1078.4477	0.0925000857387203	76	systole	9	B	500	systole
1079.1878	0.0925000857387203	76	systole	10	B	500	systole
1079.8677	0.0925000857387203	76	systole	11	B	500	systole
1083.1454999999999	0.0806225462001748	77	diastole	1	B	500	systole
1083.8855	0.0806225462001748	77	diastole	2	B	500	systole
1084.9253999999999	0.0806225462001748	77	diastole	3	B	500	systole
1085.9653999999998	0.0806225462001748	77	diastole	4	B	500	systole
1087.0053	0.0806225462001748	77	diastole	5	B	500	systole
1088.0404	0.0806225462001748	77	diastole	6	B	500	systole
1089.1752	0.0806225462001748	77	diastole	7	B	500	systole
1090.2450000000001	0.0806225462001748	77	diastole	8	B	500	systole
1091.1350999999997	0.0806225462001748	77	diastole	9	B	500	systole
1091.9151	0.0806225462001748	77	diastole	10	B	500	systole
1094.0752999999997	0.1081318212382029	78	systole	1	B	500	diastole
1094.7854	0.1081318212382029	78	systole	2	B	500	diastole
1095.6654	0.1081318212382029	78	systole	3	B	500	diastole
1096.5354	0.1081318212382029	78	systole	4	B	500	diastole
1097.3954	0.1081318212382029	78	systole	5	B	500	diastole
1098.2553999999998	0.1081318212382029	78	systole	6	B	500	diastole
1099.0161999999998	0.1081318212382029	78	systole	7	B	500	diastole
1099.8362	0.1081318212382029	78	systole	8	B	500	diastole
1100.6896	0.1081318212382029	78	systole	9	B	500	diastole
1101.5928999999999	0.1081318212382029	78	systole	10	B	500	diastole
1102.5262	0.1081318212382029	78	systole	11	B	500	diastole
1103.4035999999999	0.1081318212382029	78	systole	12	B	500	diastole
1110.2634	0.1106241446686908	79	diastole	1	B	500	diastole
1111.1834000000001	0.1106241446686908	79	diastole	2	B	500	diastole
1111.8367	0.1106241446686908	79	diastole	3	B	500	diastole
1112.5563	0.1106241446686908	79	diastole	4	B	500	diastole
1113.2366999999997	0.1106241446686908	79	diastole	5	B	500	diastole
1113.8864	0.1106241446686908	79	diastole	6	B	500	diastole
1114.3293999999999	0.1106241446686908	79	diastole	7	B	500	diastole
1114.8661	0.1106241446686908	79	diastole	8	B	500	diastole
1115.4763999999998	0.1106241446686908	79	diastole	9	B	500	diastole
1116.5062999999998	0.1106241446686908	79	diastole	10	B	500	diastole
1117.5363	0.1106241446686908	79	diastole	11	B	500	diastole
1118.6359	0.1106241446686908	79	diastole	12	B	500	diastole
1119.7463999999998	0.1106241446686908	79	diastole	13	B	500	diastole
1124.3733999999997	0.122497477568686	80	systole	1	B	500	systole
1125.0329999999997	0.122497477568686	80	systole	2	B	500	systole
1125.5329999999997	0.122497477568686	80	systole	3	B	500	systole
1126.0676999999998	0.122497477568686	80	systole	4	B	500	systole
1126.6762	0.122497477568686	80	systole	5	B	500	systole
1127.2962	0.122497477568686	80	systole	6	B	500	systole
1127.9147	0.122497477568686	80	systole	7	B	500	systole
1128.5446999999997	0.122497477568686	80	systole	8	B	500	systole
1129.2204999999997	0.122497477568686	80	systole	9	B	500	systole
1130.0561999999998	0.122497477568686	80	systole	10	B	500	systole
1130.8863	0.122497477568686	80	systole	11	B	500	systole
1131.8762	0.122497477568686	80	systole	12	B	500	systole
1132.9259	0.122497477568686	80	systole	13	B	500	systole
1133.9437999999998	0.122497477568686	80	systole	14	B	500	systole
1139.4163	0.1018633375351782	81	systole	1	B	500	diastole
1140.0264999999997	0.1018633375351782	81	systole	2	B	500	diastole
1140.6948999999997	0.1018633375351782	81	systole	3	B	500	diastole
1141.3711999999998	0.1018633375351782	81	systole	4	B	500	diastole
1142.2794000000001	0.1018633375351782	81	systole	5	B	500	diastole
1143.1876	0.1018633375351782	81	systole	6	B	500	diastole
1144.0577	0.1018633375351782	81	systole	7	B	500	diastole
1144.9977999999999	0.1018633375351782	81	systole	8	B	500	diastole
1145.9994	0.1018633375351782	81	systole	9	B	500	diastole
1147.0586	0.1018633375351782	81	systole	10	B	500	diastole
1148.0183999999997	0.1018633375351782	81	systole	11	B	500	diastole
1149.0422	0.1018633375351782	81	systole	12	B	500	diastole
1152.7886999999998	0.1168833104893565	82	diastole	1	B	500	diastole
1153.5186999999999	0.1168833104893565	82	diastole	2	B	500	diastole
1154.1119	0.1168833104893565	82	diastole	3	B	500	diastole
1154.4525	0.1168833104893565	82	diastole	4	B	500	diastole
1154.9336999999998	0.1168833104893565	82	diastole	5	B	500	diastole
1155.5736999999997	0.1168833104893565	82	diastole	6	B	500	diastole
1156.2137	0.1168833104893565	82	diastole	7	B	500	diastole
1157.1035999999997	0.1168833104893565	82	diastole	8	B	500	diastole
1157.8636	0.1168833104893565	82	diastole	9	B	500	diastole
1158.6236000000001	0.1168833104893565	82	diastole	10	B	500	diastole
1159.3023	0.1168833104893565	82	diastole	11	B	500	diastole
1159.9725	0.1168833104893565	82	diastole	12	B	500	diastole
1160.7058	0.1168833104893565	82	diastole	13	B	500	diastole
1161.4522	0.1168833104893565	82	diastole	14	B	500	diastole
1165.1788	0.0981340817525051	83	diastole	1	B	500	systole
1166.0991999999999	0.0981340817525051	83	diastole	2	B	500	systole
1166.9693	0.0981340817525051	83	diastole	3	B	500	systole
1167.7593	0.0981340817525051	83	diastole	4	B	500	systole
1168.5493	0.0981340817525051	83	diastole	5	B	500	systole
1169.3392999999999	0.0981340817525051	83	diastole	6	B	500	systole
1170.1674999999998	0.0981340817525051	83	diastole	7	B	500	systole
1171.1406	0.0981340817525051	83	diastole	8	B	500	systole
1172.0806	0.0981340817525051	83	diastole	9	B	500	systole
1173.0819	0.0981340817525051	83	diastole	10	B	500	systole
1174.0410999999997	0.0981340817525051	83	diastole	11	B	500	systole
1177.9066999999998	0.1137332637154031	84	diastole	1	B	500	systole
1178.8567	0.1137332637154031	84	diastole	2	B	500	systole
1179.8066999999999	0.1137332637154031	84	diastole	3	B	500	systole
1180.8868999999997	0.1137332637154031	84	diastole	4	B	500	systole
1181.997	0.1137332637154031	84	diastole	5	B	500	systole
1183.1071	0.1137332637154031	84	diastole	6	B	500	systole
1184.2515	0.1137332637154031	84	diastole	7	B	500	systole
1185.1919	0.1137332637154031	84	diastole	8	B	500	systole
1186.0514999999998	0.1137332637154031	84	diastole	9	B	500	systole
1188.3704999999998	0.1224993197247386	85	systole	1	B	500	diastole
1189.0204	0.1224993197247386	85	systole	2	B	500	diastole
1189.5613999999998	0.1224993197247386	85	systole	3	B	500	diastole
1190.2015	0.1224993197247386	85	systole	4	B	500	diastole
1190.9282999999998	0.1224993197247386	85	systole	5	B	500	diastole
1191.948	0.1224993197247386	85	systole	6	B	500	diastole
1192.9882999999998	0.1224993197247386	85	systole	7	B	500	diastole
1194.0287	0.1224993197247386	85	systole	8	B	500	diastole
1195.0188	0.1224993197247386	85	systole	9	B	500	diastole
1196.1251	0.1224993197247386	85	systole	10	B	500	diastole
1197.0901000000001	0.1224993197247386	85	systole	11	B	500	diastole
1197.9282999999998	0.1224993197247386	85	systole	12	B	500	diastole
1202.1694999999997	0.1087531715456862	86	systole	1	B	500	diastole
1203.0595	0.1087531715456862	86	systole	2	B	500	diastole
1203.8192999999999	0.1087531715456862	86	systole	3	B	500	diastole
1204.4959000000001	0.1087531715456862	86	systole	4	B	500	diastole
1205.1959999999997	0.1087531715456862	86	systole	5	B	500	diastole
1205.8537	0.1087531715456862	86	systole	6	B	500	diastole
1206.5577999999998	0.1087531715456862	86	systole	7	B	500	diastole
1207.4050999999997	0.1087531715456862	86	systole	8	B	500	diastole
1208.4250999999997	0.1087531715456862	86	systole	9	B	500	diastole
1209.4450999999997	0.1087531715456862	86	systole	10	B	500	diastole
1210.4651999999999	0.1087531715456862	86	systole	11	B	500	diastole
1211.4851	0.1087531715456862	86	systole	12	B	500	diastole
1215.242	0.1043683562602382	87	diastole	1	B	500	systole
1216.0422	0.1043683562602382	87	diastole	2	B	500	systole
1216.8036999999997	0.1043683562602382	87	diastole	3	B	500	systole
1217.5487999999998	0.1043683562602382	87	diastole	4	B	500	systole
1218.3223	0.1043683562602382	87	diastole	5	B	500	systole
1219.1143999999997	0.1043683562602382	87	diastole	6	B	500	systole
1219.9725999999998	0.1043683562602382	87	diastole	7	B	500	systole
1220.9423	0.1043683562602382	87	diastole	8	B	500	systole
1221.9120999999998	0.1043683562602382	87	diastole	9	B	500	systole
1222.9450999999997	0.1043683562602382	87	diastole	10	B	500	systole
1223.9448	0.1043683562602382	87	diastole	11	B	500	systole
1227.5285000000001	0.118735668627778	88	systole	1	B	500	diastole
1228.3585	0.118735668627778	88	systole	2	B	500	diastole
1229.1885	0.118735668627778	88	systole	3	B	500	diastole
1229.5521	0.118735668627778	88	systole	4	B	500	diastole
1229.8421	0.118735668627778	88	systole	5	B	500	diastole
1230.421	0.118735668627778	88	systole	6	B	500	diastole
1231.1986999999997	0.118735668627778	88	systole	7	B	500	diastole
1232.0285999999999	0.118735668627778	88	systole	8	B	500	diastole
1233.0485999999999	0.118735668627778	88	systole	9	B	500	diastole
1234.0685999999998	0.118735668627778	88	systole	10	B	500	diastole
1235.1184999999998	0.118735668627778	88	systole	11	B	500	diastole
1236.1186	0.118735668627778	88	systole	12	B	500	diastole
1237.0276999999999	0.118735668627778	88	systole	13	B	500	diastole
1240.3135	0.107499642210314	89	systole	1	B	500	systole
1241.0833999999998	0.107499642210314	89	systole	2	B	500	systole
1241.6658999999997	0.107499642210314	89	systole	3	B	500	systole
1242.3356999999999	0.107499642210314	89	systole	4	B	500	systole
1242.9641	0.107499642210314	89	systole	5	B	500	systole
1243.6083	0.107499642210314	89	systole	6	B	500	systole
1244.6535000000001	0.107499642210314	89	systole	7	B	500	systole
1245.7335999999998	0.107499642210314	89	systole	8	B	500	systole
1246.7935999999997	0.107499642210314	89	systole	9	B	500	systole
1247.8935	0.107499642210314	89	systole	10	B	500	systole
1248.9934999999998	0.107499642210314	89	systole	11	B	500	systole
1250.1914	0.107499642210314	89	systole	12	B	500	systole
1254.2094999999997	0.1281436090939678	90	systole	1	B	500	diastole
1254.9095	0.1281436090939678	90	systole	2	B	500	diastole
1255.4904	0.1281436090939678	90	systole	3	B	500	diastole
1256.0336999999997	0.1281436090939678	90	systole	4	B	500	diastole
1256.6935999999998	0.1281436090939678	90	systole	5	B	500	diastole
1257.2895	0.1281436090939678	90	systole	6	B	500	diastole
1257.9345999999998	0.1281436090939678	90	systole	7	B	500	diastole
1258.7429	0.1281436090939678	90	systole	8	B	500	diastole
1259.5628999999997	0.1281436090939678	90	systole	9	B	500	diastole
1260.6227999999999	0.1281436090939678	90	systole	10	B	500	diastole
1261.7227999999998	0.1281436090939678	90	systole	11	B	500	diastole
1262.8227999999997	0.1281436090939678	90	systole	12	B	500	diastole
1268.3515	0.1093762143573258	91	diastole	1	B	500	diastole
1269.1411	0.1093762143573258	91	diastole	2	B	500	diastole
1269.9061999999997	0.1093762143573258	91	diastole	3	B	500	diastole
1270.5829	0.1093762143573258	91	diastole	4	B	500	diastole
1271.7931999999998	0.1093762143573258	91	diastole	5	B	500	diastole
1273.0530999999999	0.1093762143573258	91	diastole	6	B	500	diastole
1273.3542999999997	0.1093762143573258	91	diastole	7	B	500	diastole
1273.8221	0.1093762143573258	91	diastole	8	B	500	diastole
1274.2503999999997	0.1093762143573258	91	diastole	9	B	500	diastole
1274.7250999999999	0.1093762143573258	91	diastole	10	B	500	diastole
1275.2683999999997	0.1093762143573258	91	diastole	11	B	500	diastole
1275.7758000000001	0.1093762143573258	91	diastole	12	B	500	diastole
1276.3158	0.1093762143573258	91	diastole	13	B	500	diastole
1276.847	0.1093762143573258	91	diastole	14	B	500	diastole
1279.9853	0.0693988750281278	92	diastole	1	B	500	systole
1280.1991999999998	0.0693988750281278	92	diastole	2	B	500	systole
1280.8702999999998	0.0693988750281278	92	diastole	3	B	500	systole
1281.5204	0.0693988750281278	92	diastole	4	B	500	systole
1282.1705	0.0693988750281278	92	diastole	5	B	500	systole
1282.8207	0.0693988750281278	92	diastole	6	B	500	systole
1283.6294	0.0693988750281278	92	diastole	7	B	500	systole
1284.3726	0.0693988750281278	92	diastole	8	B	500	systole
1285.2123	0.0693988750281278	92	diastole	9	B	500	systole
1286.0521	0.0693988750281278	92	diastole	10	B	500	systole
1287.1622999999997	0.0693988750281278	92	diastole	11	B	500	systole
1288.2555	0.0693988750281278	92	diastole	12	B	500	systole
1289.3355	0.0693988750281278	92	diastole	13	B	500	systole
1294.3472	0.119376179180108	93	systole	1	B	500	systole
1294.9538999999997	0.119376179180108	93	systole	2	B	500	systole
1295.6213999999998	0.119376179180108	93	systole	3	B	500	systole
1296.4214	0.119376179180108	93	systole	4	B	500	systole
1297.5314	0.119376179180108	93	systole	5	B	500	systole
1298.6413999999997	0.119376179180108	93	systole	6	B	500	systole
1299.7513999999999	0.119376179180108	93	systole	7	B	500	systole
1300.8513	0.119376179180108	93	systole	8	B	500	systole
1301.9506	0.119376179180108	93	systole	9	B	500	systole
1303.1379999999997	0.119376179180108	93	systole	10	B	500	systole
1306.6247	0.1268764296546578	94	systole	1	B	500	systole
1307.3038	0.1268764296546578	94	systole	2	B	500	systole
1308.0237	0.1268764296546578	94	systole	3	B	500	systole
1308.6471	0.1268764296546578	94	systole	4	B	500	systole
1309.231	0.1268764296546578	94	systole	5	B	500	systole
1309.8906	0.1268764296546578	94	systole	6	B	500	systole
1310.5323999999998	0.1268764296546578	94	systole	7	B	500	systole
1311.7223999999999	0.1268764296546578	94	systole	8	B	500	systole
1312.9124	0.1268764296546578	94	systole	9	B	500	systole
1314.0327	0.1268764296546578	94	systole	10	B	500	systole
1315.0822999999998	0.1268764296546578	94	systole	11	B	500	systole
1316.1319	0.1268764296546578	94	systole	12	B	500	systole
1319.8583	0.1269019392493646	95	systole	1	B	500	diastole
1320.224	0.1269019392493646	95	systole	2	B	500	diastole
1320.5226999999998	0.1269019392493646	95	systole	3	B	500	diastole
1321.1319	0.1269019392493646	95	systole	4	B	500	diastole
1321.7818999999997	0.1269019392493646	95	systole	5	B	500	diastole
1322.4718	0.1269019392493646	95	systole	6	B	500	diastole
1323.1618	0.1269019392493646	95	systole	7	B	500	diastole
1324.0318	0.1269019392493646	95	systole	8	B	500	diastole
1324.9518	0.1269019392493646	95	systole	9	B	500	diastole
1325.8718000000001	0.1269019392493646	95	systole	10	B	500	diastole
1326.8542999999997	0.1269019392493646	95	systole	11	B	500	diastole
1327.7659999999998	0.1269019392493646	95	systole	12	B	500	diastole
1328.5959999999998	0.1269019392493646	95	systole	13	B	500	diastole
1331.4334999999999	0.1056296768656466	96	diastole	1	B	500	diastole
1332.0282999999997	0.1056296768656466	96	diastole	2	B	500	diastole
1332.6982	0.1056296768656466	96	diastole	3	B	500	diastole
1333.3679999999997	0.1056296768656466	96	diastole	4	B	500	diastole
1333.9498	0.1056296768656466	96	diastole	5	B	500	diastole
1334.6397999999997	0.1056296768656466	96	diastole	6	B	500	diastole
1335.3999999999999	0.1056296768656466	96	diastole	7	B	500	diastole
1336.4994999999997	0.1056296768656466	96	diastole	8	B	500	diastole
1337.5990999999997	0.1056296768656466	96	diastole	9	B	500	diastole
1338.6894999999997	0.1056296768656466	96	diastole	10	B	500	diastole
1339.7647999999997	0.1056296768656466	96	diastole	11	B	500	diastole
1340.9543	0.1056296768656466	96	diastole	12	B	500	diastole
1343.9471	0.119470321224071	97	systole	1	B	500	diastole
1344.5871999999997	0.119470321224071	97	systole	2	B	500	diastole
1345.1489	0.119470321224071	97	systole	3	B	500	diastole
1345.6732	0.119470321224071	97	systole	4	B	500	diastole
1346.1256	0.119470321224071	97	systole	5	B	500	diastole
1346.7843999999998	0.119470321224071	97	systole	6	B	500	diastole
1347.4540999999997	0.119470321224071	97	systole	7	B	500	diastole
1348.3645	0.119470321224071	97	systole	8	B	500	diastole
1349.3245	0.119470321224071	97	systole	9	B	500	diastole
1350.2944999999997	0.119470321224071	97	systole	10	B	500	diastole
1351.2645	0.119470321224071	97	systole	11	B	500	diastole
1352.4221999999997	0.119470321224071	97	systole	12	B	500	diastole
1353.4223	0.119470321224071	97	systole	13	B	500	diastole
1357.8304	0.1199989502492826	98	diastole	1	B	500	systole
1358.6606999999997	0.1199989502492826	98	diastole	2	B	500	systole
1359.4003	0.1199989502492826	98	diastole	3	B	500	systole
1360.1840999999997	0.1199989502492826	98	diastole	4	B	500	systole
1361.2940999999998	0.1199989502492826	98	diastole	5	B	500	systole
1362.4041999999997	0.1199989502492826	98	diastole	6	B	500	systole
1363.4642000000001	0.1199989502492826	98	diastole	7	B	500	systole
1364.5242	0.1199989502492826	98	diastole	8	B	500	systole
1365.6755999999998	0.1199989502492826	98	diastole	9	B	500	systole
1369.2802	0.127489884966053	99	diastole	1	B	500	diastole
1369.9338	0.127489884966053	99	diastole	2	B	500	diastole
1370.6038999999998	0.127489884966053	99	diastole	3	B	500	diastole
1370.9911999999997	0.127489884966053	99	diastole	4	B	500	diastole
1371.3886999999997	0.127489884966053	99	diastole	5	B	500	diastole
1371.9722	0.127489884966053	99	diastole	6	B	500	diastole
1372.6222	0.127489884966053	99	diastole	7	B	500	diastole
1373.2722	0.127489884966053	99	diastole	8	B	500	diastole
1374.2722999999999	0.127489884966053	99	diastole	9	B	500	diastole
1375.2724	0.127489884966053	99	diastole	10	B	500	diastole
1376.2724999999998	0.127489884966053	99	diastole	11	B	500	diastole
1377.2825999999998	0.127489884966053	99	diastole	12	B	500	diastole
1378.2926999999997	0.127489884966053	99	diastole	13	B	500	diastole
1385.3335	0.0849943312641698	100	systole	1	B	500	diastole
1386.0235	0.0849943312641698	100	systole	2	B	500	diastole
1386.7133999999999	0.0849943312641698	100	systole	3	B	500	diastole
1387.372	0.0849943312641698	100	systole	4	B	500	diastole
1388.052	0.0849943312641698	100	systole	5	B	500	diastole
1388.7418999999998	0.0849943312641698	100	systole	6	B	500	diastole
1389.4318	0.0849943312641698	100	systole	7	B	500	diastole
1390.0518999999997	0.0849943312641698	100	systole	8	B	500	diastole
1390.6717999999998	0.0849943312641698	100	systole	9	B	500	diastole
1391.2798999999998	0.0849943312641698	100	systole	10	B	500	diastole
1391.8477	0.0849943312641698	100	systole	11	B	500	diastole
1392.45	0.0849943312641698	100	systole	12	B	500	diastole
1393.1701	0.0849943312641698	100	systole	13	B	500	diastole
1394.0401999999997	0.0849943312641698	100	systole	14	B	500	diastole
1394.9102	0.0849943312641698	100	systole	15	B	500	diastole
