onset	duration	trial_num	trial_type	tone_num	tone_type	frequency	response
51.503600000000006	0.0993646254064515	1	diastole	1	B	500	diastole
52.25350000000003	0.0993646254064515	1	diastole	2	B	500	diastole
52.863599999999906	0.0993646254064515	1	diastole	3	B	500	diastole
53.47360000000003	0.0993646254064515	1	diastole	4	B	500	diastole
54.0784000000001	0.0993646254064515	1	diastole	5	B	500	diastole
54.75810000000001	0.0993646254064515	1	diastole	6	B	500	diastole
55.63799999999992	0.0993646254064515	1	diastole	7	B	500	diastole
56.45810000000006	0.0993646254064515	1	diastole	8	B	500	diastole
57.27819999999997	0.0993646254064515	1	diastole	9	B	500	diastole
58.36680000000001	0.0993646254064515	1	diastole	10	B	500	diastole
59.296800000000076	0.0993646254064515	1	diastole	11	B	500	diastole
60.15380000000005	0.0993646254064515	1	diastole	12	B	500	diastole
67.99039999999991	0.0999938625027425	2	diastole	1	B	500	diastole
68.66869999999994	0.0999938625027425	2	diastole	2	B	500	diastole
69.38869999999997	0.0999938625027425	2	diastole	3	B	500	diastole
70.1087	0.0999938625027425	2	diastole	4	B	500	diastole
70.87869999999998	0.0999938625027425	2	diastole	5	B	500	diastole
71.72540000000004	0.0999938625027425	2	diastole	6	B	500	diastole
72.6368	0.0999938625027425	2	diastole	7	B	500	diastole
73.23029999999994	0.0999938625027425	2	diastole	8	B	500	diastole
73.53140000000008	0.0999938625027425	2	diastole	9	B	500	diastole
73.66139999999996	0.0999938625027425	2	diastole	10	B	500	diastole
74.35020000000009	0.0999938625027425	2	diastole	11	B	500	diastole
75.15020000000004	0.0999938625027425	2	diastole	12	B	500	diastole
75.95859999999993	0.0999938625027425	2	diastole	13	B	500	diastole
76.69859999999994	0.0999938625027425	2	diastole	14	B	500	diastole
80.81629999999996	0.0918811814626678	3	systole	1	B	500	diastole
81.57639999999992	0.0918811814626678	3	systole	2	B	500	diastole
82.36040000000003	0.0918811814626678	3	systole	3	B	500	diastole
83.15039999999999	0.0918811814626678	3	systole	4	B	500	diastole
83.9679000000001	0.0918811814626678	3	systole	5	B	500	diastole
84.76790000000005	0.0918811814626678	3	systole	6	B	500	diastole
85.05140000000006	0.0918811814626678	3	systole	7	B	500	diastole
85.22389999999996	0.0918811814626678	3	systole	8	B	500	diastole
85.63760000000002	0.0918811814626678	3	systole	9	B	500	diastole
85.92139999999995	0.0918811814626678	3	systole	10	B	500	diastole
86.56580000000008	0.0918811814626678	3	systole	11	B	500	diastole
87.3456000000001	0.0918811814626678	3	systole	12	B	500	diastole
88.13049999999998	0.0918811814626678	3	systole	13	B	500	diastole
88.91049999999996	0.0918811814626678	3	systole	14	B	500	diastole
89.7206000000001	0.0918811814626678	3	systole	15	B	500	diastole
96.1902	0.0918852375471033	4	systole	1	B	500	systole
96.92020000000002	0.0918852375471033	4	systole	2	B	500	systole
97.65020000000004	0.0918852375471033	4	systole	3	B	500	systole
98.35449999999992	0.0918852375471033	4	systole	4	B	500	systole
99.21039999999994	0.0918852375471033	4	systole	5	B	500	systole
99.90059999999994	0.0918852375471033	4	systole	6	B	500	systole
100.59079999999994	0.0918852375471033	4	systole	7	B	500	systole
100.86879999999996	0.0918852375471033	4	systole	8	B	500	systole
101.54459999999995	0.0918852375471033	4	systole	9	B	500	systole
102.34449999999993	0.0918852375471033	4	systole	10	B	500	systole
103.14370000000008	0.0918852375471033	4	systole	11	B	500	systole
103.83220000000006	0.0918852375471033	4	systole	12	B	500	systole
104.67869999999994	0.0918852375471033	4	systole	13	B	500	systole
108.22869999999989	0.0974993001727853	5	diastole	1	B	500	systole
109.00029999999992	0.0974993001727853	5	diastole	2	B	500	systole
109.7802999999999	0.0974993001727853	5	diastole	3	B	500	systole
110.44530000000009	0.0974993001727853	5	diastole	4	B	500	systole
111.0172	0.0974993001727853	5	diastole	5	B	500	systole
111.93360000000007	0.0974993001727853	5	diastole	6	B	500	systole
112.50530000000003	0.0974993001727853	5	diastole	7	B	500	systole
113.20569999999998	0.0974993001727853	5	diastole	8	B	500	systole
113.9061999999999	0.0974993001727853	5	diastole	9	B	500	systole
114.60660000000007	0.0974993001727853	5	diastole	10	B	500	systole
115.4715000000001	0.0974993001727853	5	diastole	11	B	500	systole
116.08870000000002	0.0974993001727853	5	diastole	12	B	500	systole
116.69540000000006	0.0974993001727853	5	diastole	13	B	500	systole
119.80359999999996	0.09373943740502	6	systole	1	B	500	diastole
120.49450000000002	0.09373943740502	6	systole	2	B	500	diastole
121.1887999999999	0.09373943740502	6	systole	3	B	500	diastole
121.88869999999997	0.09373943740502	6	systole	4	B	500	diastole
122.58860000000004	0.09373943740502	6	systole	5	B	500	diastole
123.33459999999991	0.09373943740502	6	systole	6	B	500	diastole
124.1563000000001	0.09373943740502	6	systole	7	B	500	diastole
124.4411	0.09373943740502	6	systole	8	B	500	diastole
124.66609999999991	0.09373943740502	6	systole	9	B	500	diastole
125.16869999999994	0.09373943740502	6	systole	10	B	500	diastole
125.91869999999994	0.09373943740502	6	systole	11	B	500	diastole
126.7306000000001	0.09373943740502	6	systole	12	B	500	diastole
127.58829999999989	0.09373943740502	6	systole	13	B	500	diastole
128.4284	0.09373943740502	6	systole	14	B	500	diastole
129.2315000000001	0.09373943740502	6	systole	15	B	500	diastole
134.30690000000004	0.0531414197175763	7	diastole	1	B	500	systole
134.9770000000001	0.0531414197175763	7	diastole	2	B	500	systole
135.68689999999992	0.0531414197175763	7	diastole	3	B	500	systole
136.587	0.0531414197175763	7	diastole	4	B	500	systole
137.337	0.0531414197175763	7	diastole	5	B	500	systole
138.18910000000005	0.0531414197175763	7	diastole	6	B	500	systole
139.05549999999994	0.0531414197175763	7	diastole	7	B	500	systole
139.80549999999994	0.0531414197175763	7	diastole	8	B	500	systole
140.55549999999994	0.0531414197175763	7	diastole	9	B	500	systole
141.44859999999994	0.0531414197175763	7	diastole	10	B	500	systole
142.30819999999994	0.0531414197175763	7	diastole	11	B	500	systole
143.21849999999995	0.0531414197175763	7	diastole	12	B	500	systole
144.0788	0.0531414197175763	7	diastole	13	B	500	systole
147.6817000000001	0.0988830003188923	8	systole	1	B	500	diastole
148.38470000000007	0.0988830003188923	8	systole	2	B	500	diastole
149.0945999999999	0.0988830003188923	8	systole	3	B	500	diastole
149.81539999999995	0.0988830003188923	8	systole	4	B	500	diastole
150.64519999999993	0.0988830003188923	8	systole	5	B	500	diastole
151.35359999999991	0.0988830003188923	8	systole	6	B	500	diastole
152.07369999999992	0.0988830003188923	8	systole	7	B	500	diastole
152.36339999999996	0.0988830003188923	8	systole	8	B	500	diastole
152.99610000000007	0.0988830003188923	8	systole	9	B	500	diastole
153.76620000000003	0.0988830003188923	8	systole	10	B	500	diastole
154.4586999999999	0.0988830003188923	8	systole	11	B	500	diastole
155.16879999999992	0.0988830003188923	8	systole	12	B	500	diastole
155.87889999999993	0.0988830003188923	8	systole	13	B	500	diastole
156.6463000000001	0.0988830003188923	8	systole	14	B	500	diastole
157.3496	0.0988830003188923	8	systole	15	B	500	diastole
160.8931	0.0906548374623525	9	systole	1	B	500	diastole
161.58300000000008	0.0906548374623525	9	systole	2	B	500	diastole
162.2729999999999	0.0906548374623525	9	systole	3	B	500	diastole
162.9466	0.0906548374623525	9	systole	4	B	500	diastole
163.62650000000008	0.0906548374623525	9	systole	5	B	500	diastole
164.35889999999995	0.0906548374623525	9	systole	6	B	500	diastole
165.18100000000004	0.0906548374623525	9	systole	7	B	500	diastole
166.0326	0.0906548374623525	9	systole	8	B	500	diastole
166.8010999999999	0.0906548374623525	9	systole	9	B	500	diastole
167.38120000000004	0.0906548374623525	9	systole	10	B	500	diastole
167.96129999999994	0.0906548374623525	9	systole	11	B	500	diastole
168.23579999999993	0.0906548374623525	9	systole	12	B	500	diastole
168.98430000000008	0.0906548374623525	9	systole	13	B	500	diastole
169.7141999999999	0.0906548374623525	9	systole	14	B	500	diastole
170.4342999999999	0.0906548374623525	9	systole	15	B	500	diastole
179.14830000000006	0.097494518791791	10	systole	1	B	500	systole
179.8409999999999	0.097494518791791	10	systole	2	B	500	systole
180.4235000000001	0.097494518791791	10	systole	3	B	500	systole
181.0235	0.097494518791791	10	systole	4	B	500	systole
181.3155999999999	0.097494518791791	10	systole	5	B	500	systole
181.4756	0.097494518791791	10	systole	6	B	500	systole
182.1409000000001	0.097494518791791	10	systole	7	B	500	systole
182.9909	0.097494518791791	10	systole	8	B	500	systole
183.75520000000006	0.097494518791791	10	systole	9	B	500	systole
184.48530000000005	0.097494518791791	10	systole	10	B	500	systole
185.2754	0.097494518791791	10	systole	11	B	500	systole
186.11529999999993	0.097494518791791	10	systole	12	B	500	systole
186.9552000000001	0.097494518791791	10	systole	13	B	500	systole
187.72129999999993	0.097494518791791	10	systole	14	B	500	systole
190.81279999999992	0.096877456177026	11	systole	1	B	500	diastole
191.38609999999994	0.096877456177026	11	systole	2	B	500	diastole
192.00610000000006	0.096877456177026	11	systole	3	B	500	diastole
192.2931000000001	0.096877456177026	11	systole	4	B	500	diastole
192.97029999999995	0.096877456177026	11	systole	5	B	500	diastole
193.7804000000001	0.096877456177026	11	systole	6	B	500	diastole
194.52250000000004	0.096877456177026	11	systole	7	B	500	diastole
195.25260000000003	0.096877456177026	11	systole	8	B	500	diastole
195.9828	0.096877456177026	11	systole	9	B	500	diastole
196.71309999999994	0.096877456177026	11	systole	10	B	500	diastole
197.44740000000002	0.096877456177026	11	systole	11	B	500	diastole
198.3021000000001	0.096877456177026	11	systole	12	B	500	diastole
199.12210000000005	0.096877456177026	11	systole	13	B	500	diastole
199.90390000000002	0.096877456177026	11	systole	14	B	500	diastole
202.59169999999995	0.0918740937486291	12	diastole	1	B	500	systole
203.28150000000005	0.0918740937486291	12	diastole	2	B	500	systole
203.93820000000005	0.0918740937486291	12	diastole	3	B	500	systole
204.64830000000006	0.0918740937486291	12	diastole	4	B	500	systole
205.35840000000007	0.0918740937486291	12	diastole	5	B	500	systole
206.16830000000004	0.0918740937486291	12	diastole	6	B	500	systole
206.9783	0.0918740937486291	12	diastole	7	B	500	systole
207.76530000000002	0.0918740937486291	12	diastole	8	B	500	systole
208.47360000000003	0.0918740937486291	12	diastole	9	B	500	systole
209.26019999999994	0.0918740937486291	12	diastole	10	B	500	systole
210.05680000000007	0.0918740937486291	12	diastole	11	B	500	systole
210.86840000000007	0.0918740937486291	12	diastole	12	B	500	systole
211.63830000000007	0.0918740937486291	12	diastole	13	B	500	systole
214.8085000000001	0.0930294502177275	13	systole	1	B	500	systole
215.58889999999997	0.0930294502177275	13	systole	2	B	500	systole
216.2808	0.0930294502177275	13	systole	3	B	500	systole
217.00070000000005	0.0930294502177275	13	systole	4	B	500	systole
217.66859999999997	0.0930294502177275	13	systole	5	B	500	systole
218.4036000000001	0.0930294502177275	13	systole	6	B	500	systole
219.1434999999999	0.0930294502177275	13	systole	7	B	500	systole
219.80790000000002	0.0930294502177275	13	systole	8	B	500	systole
220.4967999999999	0.0930294502177275	13	systole	9	B	500	systole
221.18679999999995	0.0930294502177275	13	systole	10	B	500	systole
221.87689999999998	0.0930294502177275	13	systole	11	B	500	systole
222.70100000000002	0.0930294502177275	13	systole	12	B	500	systole
223.38920000000007	0.0930294502177275	13	systole	13	B	500	systole
223.9135000000001	0.0930294502177275	13	systole	14	B	500	systole
224.1851999999999	0.0930294502177275	13	systole	15	B	500	systole
224.81899999999996	0.0930294502177275	13	systole	16	B	500	systole
228.20499999999993	0.0887546124577056	14	diastole	1	B	500	diastole
228.8619000000001	0.0887546124577056	14	diastole	2	B	500	diastole
229.52379999999994	0.0887546124577056	14	diastole	3	B	500	diastole
230.19370000000004	0.0887546124577056	14	diastole	4	B	500	diastole
230.8637000000001	0.0887546124577056	14	diastole	5	B	500	diastole
231.65689999999995	0.0887546124577056	14	diastole	6	B	500	diastole
232.29189999999994	0.0887546124577056	14	diastole	7	B	500	diastole
232.95190000000002	0.0887546124577056	14	diastole	8	B	500	diastole
233.6117999999999	0.0887546124577056	14	diastole	9	B	500	diastole
233.88509999999997	0.0887546124577056	14	diastole	10	B	500	diastole
234.43849999999998	0.0887546124577056	14	diastole	11	B	500	diastole
235.12850000000003	0.0887546124577056	14	diastole	12	B	500	diastole
235.87670000000003	0.0887546124577056	14	diastole	13	B	500	diastole
236.63979999999992	0.0887546124577056	14	diastole	14	B	500	diastole
237.4348	0.0887546124577056	14	diastole	15	B	500	diastole
240.6984	0.0937401785049587	15	diastole	1	B	500	diastole
241.39840000000004	0.0937401785049587	15	diastole	2	B	500	diastole
242.0983000000001	0.0937401785049587	15	diastole	3	B	500	diastole
242.79829999999993	0.0937401785049587	15	diastole	4	B	500	diastole
243.4432999999999	0.0937401785049587	15	diastole	5	B	500	diastole
244.17509999999993	0.0937401785049587	15	diastole	6	B	500	diastole
244.87889999999993	0.0937401785049587	15	diastole	7	B	500	diastole
245.5990999999999	0.0937401785049587	15	diastole	8	B	500	diastole
246.28230000000008	0.0937401785049587	15	diastole	9	B	500	diastole
246.9824000000001	0.0937401785049587	15	diastole	10	B	500	diastole
247.8155999999999	0.0937401785049587	15	diastole	11	B	500	diastole
248.61570000000006	0.0937401785049587	15	diastole	12	B	500	diastole
249.41589999999997	0.0937401785049587	15	diastole	13	B	500	diastole
253.54050000000007	0.093851129640825	16	diastole	1	B	500	diastole
254.2621999999999	0.093851129640825	16	diastole	2	B	500	diastole
254.99209999999994	0.093851129640825	16	diastole	3	B	500	diastole
255.72209999999995	0.093851129640825	16	diastole	4	B	500	diastole
256.5103999999999	0.093851129640825	16	diastole	5	B	500	diastole
257.2902999999999	0.093851129640825	16	diastole	6	B	500	diastole
258.0317	0.093851129640825	16	diastole	7	B	500	diastole
258.73029999999994	0.093851129640825	16	diastole	8	B	500	diastole
259.452	0.093851129640825	16	diastole	9	B	500	diastole
260.182	0.093851129640825	16	diastole	10	B	500	diastole
260.952	0.093851129640825	16	diastole	11	B	500	diastole
261.75199999999995	0.093851129640825	16	diastole	12	B	500	diastole
262.5036	0.093851129640825	16	diastole	13	B	500	diastole
265.3381999999999	0.0899932764295954	17	diastole	1	B	500	systole
266.03510000000006	0.0899932764295954	17	diastole	2	B	500	systole
266.7469000000001	0.0899932764295954	17	diastole	3	B	500	systole
267.4749999999999	0.0899932764295954	17	diastole	4	B	500	systole
268.09159999999997	0.0899932764295954	17	diastole	5	B	500	systole
268.7515000000001	0.0899932764295954	17	diastole	6	B	500	systole
269.35159999999996	0.0899932764295954	17	diastole	7	B	500	systole
269.61979999999994	0.0899932764295954	17	diastole	8	B	500	systole
269.7798	0.0899932764295954	17	diastole	9	B	500	systole
270.36840000000007	0.0899932764295954	17	diastole	10	B	500	systole
271.06690000000003	0.0899932764295954	17	diastole	11	B	500	systole
271.80729999999994	0.0899932764295954	17	diastole	12	B	500	systole
272.56680000000006	0.0899932764295954	17	diastole	13	B	500	systole
273.32629999999995	0.0899932764295954	17	diastole	14	B	500	systole
274.08580000000006	0.0899932764295954	17	diastole	15	B	500	systole
274.7328	0.0899932764295954	17	diastole	16	B	500	systole
278.2868000000001	0.0893777373130433	18	diastole	1	B	500	diastole
279.0169000000001	0.0893777373130433	18	diastole	2	B	500	diastole
279.74700000000007	0.0893777373130433	18	diastole	3	B	500	diastole
280.4588000000001	0.0893777373130433	18	diastole	4	B	500	diastole
281.0821000000001	0.0893777373130433	18	diastole	5	B	500	diastole
281.72219999999993	0.0893777373130433	18	diastole	6	B	500	diastole
282.3623	0.0893777373130433	18	diastole	7	B	500	diastole
283.0238999999999	0.0893777373130433	18	diastole	8	B	500	diastole
283.6872000000001	0.0893777373130433	18	diastole	9	B	500	diastole
284.3488	0.0893777373130433	18	diastole	10	B	500	diastole
285.01880000000006	0.0893777373130433	18	diastole	11	B	500	diastole
285.68049999999994	0.0893777373130433	18	diastole	12	B	500	diastole
286.31410000000005	0.0893777373130433	18	diastole	13	B	500	diastole
286.9640999999999	0.0893777373130433	18	diastole	14	B	500	diastole
290.3152	0.0837586269190069	19	diastole	1	B	500	diastole
290.91509999999994	0.0837586269190069	19	diastole	2	B	500	diastole
291.1722	0.0837586269190069	19	diastole	3	B	500	diastole
291.3146999999999	0.0837586269190069	19	diastole	4	B	500	diastole
291.84860000000003	0.0837586269190069	19	diastole	5	B	500	diastole
292.5284999999999	0.0837586269190069	19	diastole	6	B	500	diastole
293.20849999999996	0.0837586269190069	19	diastole	7	B	500	diastole
293.8786	0.0837586269190069	19	diastole	8	B	500	diastole
294.59850000000006	0.0837586269190069	19	diastole	9	B	500	diastole
295.34529999999995	0.0837586269190069	19	diastole	10	B	500	diastole
296.10349999999994	0.0837586269190069	19	diastole	11	B	500	diastole
296.80359999999996	0.0837586269190069	19	diastole	12	B	500	diastole
297.54179999999997	0.0837586269190069	19	diastole	13	B	500	diastole
298.3285000000001	0.0837586269190069	19	diastole	14	B	500	diastole
299.0984000000001	0.0837586269190069	19	diastole	15	B	500	diastole
302.6735000000001	0.0781399437109939	20	systole	1	B	500	systole
303.32349999999997	0.0781399437109939	20	systole	2	B	500	systole
303.97350000000006	0.0781399437109939	20	systole	3	B	500	systole
304.6635000000001	0.0781399437109939	20	systole	4	B	500	systole
305.3635999999999	0.0781399437109939	20	systole	5	B	500	systole
306.13599999999997	0.0781399437109939	20	systole	6	B	500	systole
306.856	0.0781399437109939	20	systole	7	B	500	systole
307.64329999999995	0.0781399437109939	20	systole	8	B	500	systole
308.3433	0.0781399437109939	20	systole	9	B	500	systole
309.0691999999999	0.0781399437109939	20	systole	10	B	500	systole
309.7492	0.0781399437109939	20	systole	11	B	500	systole
310.4293	0.0781399437109939	20	systole	12	B	500	systole
311.1093000000001	0.0781399437109939	20	systole	13	B	500	systole
311.7935	0.0781399437109939	20	systole	14	B	500	systole
312.4836	0.0781399437109939	20	systole	15	B	500	systole
320.56960000000004	0.0593953709758352	21	systole	1	B	500	diastole
321.2295999999999	0.0593953709758352	21	systole	2	B	500	diastole
321.8896	0.0593953709758352	21	systole	3	B	500	diastole
322.1019000000001	0.0593953709758352	21	systole	4	B	500	diastole
322.27510000000007	0.0593953709758352	21	systole	5	B	500	diastole
322.44730000000004	0.0593953709758352	21	systole	6	B	500	diastole
322.6196	0.0593953709758352	21	systole	7	B	500	diastole
322.8478	0.0593953709758352	21	systole	8	B	500	diastole
323.72810000000004	0.0593953709758352	21	systole	9	B	500	diastole
323.9655	0.0593953709758352	21	systole	10	B	500	diastole
324.21540000000005	0.0593953709758352	21	systole	11	B	500	diastole
324.4362000000001	0.0593953709758352	21	systole	12	B	500	diastole
324.7342000000001	0.0593953709758352	21	systole	13	B	500	diastole
325.0144	0.0593953709758352	21	systole	14	B	500	diastole
325.21299999999997	0.0593953709758352	21	systole	15	B	500	diastole
325.89339999999993	0.0593953709758352	21	systole	16	B	500	diastole
326.6331	0.0593953709758352	21	systole	17	B	500	diastole
327.3729000000001	0.0593953709758352	21	systole	18	B	500	diastole
328.11259999999993	0.0593953709758352	21	systole	19	B	500	diastole
328.2519	0.0593953709758352	21	systole	20	B	500	diastole
328.4037000000001	0.0593953709758352	21	systole	21	B	500	diastole
329.1114	0.0593953709758352	21	systole	22	B	500	diastole
330.0096000000001	0.0593953709758352	21	systole	23	B	500	diastole
332.8891000000001	0.0818888997600879	22	systole	1	B	500	systole
333.6192000000001	0.0818888997600879	22	systole	2	B	500	systole
334.2992999999999	0.0818888997600879	22	systole	3	B	500	systole
334.97929999999997	0.0818888997600879	22	systole	4	B	500	systole
335.7665999999999	0.0818888997600879	22	systole	5	B	500	systole
336.48109999999997	0.0818888997600879	22	systole	6	B	500	systole
337.18499999999995	0.0818888997600879	22	systole	7	B	500	systole
337.89480000000003	0.0818888997600879	22	systole	8	B	500	systole
338.66419999999994	0.0818888997600879	22	systole	9	B	500	systole
339.40419999999995	0.0818888997600879	22	systole	10	B	500	systole
340.1002000000001	0.0818888997600879	22	systole	11	B	500	systole
340.8515	0.0818888997600879	22	systole	12	B	500	systole
341.59130000000005	0.0818888997600879	22	systole	13	B	500	systole
342.3873000000001	0.0818888997600879	22	systole	14	B	500	systole
344.68769999999995	0.092493768694112	23	systole	1	B	500	diastole
345.40190000000007	0.092493768694112	23	systole	2	B	500	diastole
346.1219000000001	0.092493768694112	23	systole	3	B	500	diastole
346.7959000000001	0.092493768694112	23	systole	4	B	500	diastole
347.5358000000001	0.092493768694112	23	systole	5	B	500	diastole
348.2757999999999	0.092493768694112	23	systole	6	B	500	diastole
348.9743000000001	0.092493768694112	23	systole	7	B	500	diastole
349.5028	0.092493768694112	23	systole	8	B	500	diastole
350.16509999999994	0.092493768694112	23	systole	9	B	500	diastole
350.9049	0.092493768694112	23	systole	10	B	500	diastole
351.64470000000006	0.092493768694112	23	systole	11	B	500	diastole
352.3846000000001	0.092493768694112	23	systole	12	B	500	diastole
353.1047000000001	0.092493768694112	23	systole	13	B	500	diastole
353.7247	0.092493768694112	23	systole	14	B	500	diastole
354.4124999999999	0.092493768694112	23	systole	15	B	500	diastole
358.5265999999999	0.0874791560636367	24	diastole	1	B	500	diastole
359.1567	0.0874791560636367	24	diastole	2	B	500	diastole
359.8747000000001	0.0874791560636367	24	diastole	3	B	500	diastole
360.55680000000007	0.0874791560636367	24	diastole	4	B	500	diastole
361.2469000000001	0.0874791560636367	24	diastole	5	B	500	diastole
361.94900000000007	0.0874791560636367	24	diastole	6	B	500	diastole
362.65930000000003	0.0874791560636367	24	diastole	7	B	500	diastole
363.3696	0.0874791560636367	24	diastole	8	B	500	diastole
363.9112	0.0874791560636367	24	diastole	9	B	500	diastole
364.1767	0.0874791560636367	24	diastole	10	B	500	diastole
364.79269999999997	0.0874791560636367	24	diastole	11	B	500	diastole
365.52240000000006	0.0874791560636367	24	diastole	12	B	500	diastole
366.28729999999996	0.0874791560636367	24	diastole	13	B	500	diastole
367.03729999999996	0.0874791560636367	24	diastole	14	B	500	diastole
371.39329999999995	0.0262472675240132	25	systole	1	B	500	diastole
371.9135000000001	0.0262472675240132	25	systole	2	B	500	diastole
372.43360000000007	0.0262472675240132	25	systole	3	B	500	diastole
372.5626	0.0262472675240132	25	systole	4	B	500	diastole
372.7322999999999	0.0262472675240132	25	systole	5	B	500	diastole
372.9021	0.0262472675240132	25	systole	6	B	500	diastole
373.0718999999999	0.0262472675240132	25	systole	7	B	500	diastole
373.24170000000004	0.0262472675240132	25	systole	8	B	500	diastole
374.1751999999999	0.0262472675240132	25	systole	9	B	500	diastole
375.21360000000004	0.0262472675240132	25	systole	10	B	500	diastole
376.0537999999999	0.0262472675240132	25	systole	11	B	500	diastole
376.9756	0.0262472675240132	25	systole	12	B	500	diastole
377.8571999999999	0.0262472675240132	25	systole	13	B	500	diastole
378.0464999999999	0.0262472675240132	25	systole	14	B	500	diastole
378.2014999999999	0.0262472675240132	25	systole	15	B	500	diastole
378.9773	0.0262472675240132	25	systole	16	B	500	diastole
379.4170999999999	0.0262472675240132	25	systole	17	B	500	diastole
379.8569	0.0262472675240132	25	systole	18	B	500	diastole
380.0935999999999	0.0262472675240132	25	systole	19	B	500	diastole
380.259	0.0262472675240132	25	systole	20	B	500	diastole
380.8551	0.0262472675240132	25	systole	21	B	500	diastole
384.43409999999994	0.0899996875086799	26	systole	1	B	500	systole
385.1379999999999	0.0899996875086799	26	systole	2	B	500	systole
385.84799999999996	0.0899996875086799	26	systole	3	B	500	systole
386.558	0.0899996875086799	26	systole	4	B	500	systole
387.3813	0.0899996875086799	26	systole	5	B	500	systole
388.18129999999996	0.0899996875086799	26	systole	6	B	500	systole
388.83140000000003	0.0899996875086799	26	systole	7	B	500	systole
389.673	0.0899996875086799	26	systole	8	B	500	systole
390.44309999999996	0.0899996875086799	26	systole	9	B	500	systole
391.2131999999999	0.0899996875086799	26	systole	10	B	500	systole
391.97309999999993	0.0899996875086799	26	systole	11	B	500	systole
392.72309999999993	0.0899996875086799	26	systole	12	B	500	systole
393.3232999999998	0.0899996875086799	26	systole	13	B	500	systole
393.9233999999999	0.0899996875086799	26	systole	14	B	500	systole
397.31780000000003	0.0931279225915204	27	systole	1	B	500	diastole
398.13789999999995	0.0931279225915204	27	systole	2	B	500	diastole
398.81999999999994	0.0931279225915204	27	systole	3	B	500	diastole
399.49739999999997	0.0931279225915204	27	systole	4	B	500	diastole
400.1090999999999	0.0931279225915204	27	systole	5	B	500	diastole
400.38649999999984	0.0931279225915204	27	systole	6	B	500	diastole
400.539	0.0931279225915204	27	systole	7	B	500	diastole
401.17359999999985	0.0931279225915204	27	systole	8	B	500	diastole
401.89369999999985	0.0931279225915204	27	systole	9	B	500	diastole
402.67370000000005	0.0931279225915204	27	systole	10	B	500	diastole
403.4856000000002	0.0931279225915204	27	systole	11	B	500	diastole
404.0735000000002	0.0931279225915204	27	systole	12	B	500	diastole
404.6733999999999	0.0931279225915204	27	systole	13	B	500	diastole
404.9489000000001	0.0931279225915204	27	systole	14	B	500	diastole
405.55989999999997	0.0931279225915204	27	systole	15	B	500	diastole
406.30140000000006	0.0931279225915204	27	systole	16	B	500	diastole
409.5301999999999	0.0869675814174115	28	systole	1	B	500	systole
410.2302000000002	0.0869675814174115	28	systole	2	B	500	systole
410.9548000000002	0.0869675814174115	28	systole	3	B	500	systole
411.63480000000004	0.0869675814174115	28	systole	4	B	500	systole
412.3100999999999	0.0869675814174115	28	systole	5	B	500	systole
412.9945	0.0869675814174115	28	systole	6	B	500	systole
413.66790000000015	0.0869675814174115	28	systole	7	B	500	systole
414.3480000000002	0.0869675814174115	28	systole	8	B	500	systole
415.01199999999994	0.0869675814174115	28	systole	9	B	500	systole
415.7176999999999	0.0869675814174115	28	systole	10	B	500	systole
416.4494000000002	0.0869675814174115	28	systole	11	B	500	systole
417.1811	0.0869675814174115	28	systole	12	B	500	systole
417.91279999999983	0.0869675814174115	28	systole	13	B	500	systole
418.6944000000001	0.0869675814174115	28	systole	14	B	500	systole
421.31819999999993	0.0518755750090349	29	diastole	1	B	500	diastole
421.46130000000016	0.0518755750090349	29	diastole	2	B	500	diastole
421.58180000000016	0.0518755750090349	29	diastole	3	B	500	diastole
421.7418	0.0518755750090349	29	diastole	4	B	500	diastole
422.0818999999999	0.0518755750090349	29	diastole	5	B	500	diastole
422.1921	0.0518755750090349	29	diastole	6	B	500	diastole
422.35220000000004	0.0518755750090349	29	diastole	7	B	500	diastole
422.51199999999994	0.0518755750090349	29	diastole	8	B	500	diastole
422.7218999999998	0.0518755750090349	29	diastole	9	B	500	diastole
422.88199999999983	0.0518755750090349	29	diastole	10	B	500	diastole
423.05179999999996	0.0518755750090349	29	diastole	11	B	500	diastole
423.2039000000002	0.0518755750090349	29	diastole	12	B	500	diastole
423.414	0.0518755750090349	29	diastole	13	B	500	diastole
423.7018999999998	0.0518755750090349	29	diastole	14	B	500	diastole
424.27189999999996	0.0518755750090349	29	diastole	15	B	500	diastole
424.8419000000001	0.0518755750090349	29	diastole	16	B	500	diastole
424.9939999999999	0.0518755750090349	29	diastole	17	B	500	diastole
425.17190000000005	0.0518755750090349	29	diastole	18	B	500	diastole
425.33169999999996	0.0518755750090349	29	diastole	19	B	500	diastole
425.4838000000002	0.0518755750090349	29	diastole	20	B	500	diastole
425.66160000000013	0.0518755750090349	29	diastole	21	B	500	diastole
425.8136999999999	0.0518755750090349	29	diastole	22	B	500	diastole
425.96569999999997	0.0518755750090349	29	diastole	23	B	500	diastole
426.1836999999998	0.0518755750090349	29	diastole	24	B	500	diastole
426.35349999999994	0.0518755750090349	29	diastole	25	B	500	diastole
426.52330000000006	0.0518755750090349	29	diastole	26	B	500	diastole
427.1814999999999	0.0518755750090349	29	diastole	27	B	500	diastole
427.90139999999997	0.0518755750090349	29	diastole	28	B	500	diastole
428.6211999999998	0.0518755750090349	29	diastole	29	B	500	diastole
429.1899000000001	0.0518755750090349	29	diastole	30	B	500	diastole
429.7500000000002	0.0518755750090349	29	diastole	31	B	500	diastole
430.4451999999999	0.0518755750090349	29	diastole	32	B	500	diastole
431.8473999999999	0.0518755750090349	29	diastole	33	B	500	diastole
441.06029999999987	0.0812561876955442	30	diastole	1	B	500	diastole
441.7547000000002	0.0812561876955442	30	diastole	2	B	500	diastole
442.0087000000001	0.0812561876955442	30	diastole	3	B	500	diastole
442.1712	0.0812561876955442	30	diastole	4	B	500	diastole
442.6450000000002	0.0812561876955442	30	diastole	5	B	500	diastole
443.3749	0.0812561876955442	30	diastole	6	B	500	diastole
444.1148999999998	0.0812561876955442	30	diastole	7	B	500	diastole
444.8138999999999	0.0812561876955442	30	diastole	8	B	500	diastole
445.52049999999986	0.0812561876955442	30	diastole	9	B	500	diastole
445.7787000000001	0.0812561876955442	30	diastole	10	B	500	diastole
445.9212	0.0812561876955442	30	diastole	11	B	500	diastole
446.5318	0.0812561876955442	30	diastole	12	B	500	diastole
447.2787999999998	0.0812561876955442	30	diastole	13	B	500	diastole
448.00879999999984	0.0812561876955442	30	diastole	14	B	500	diastole
448.69910000000004	0.0812561876955442	30	diastole	15	B	500	diastole
449.37889999999993	0.0812561876955442	30	diastole	16	B	500	diastole
451.9336999999998	0.0787562158366199	31	systole	1	B	500	systole
452.6238000000001	0.0787562158366199	31	systole	2	B	500	systole
453.13710000000015	0.0787562158366199	31	systole	3	B	500	systole
453.3761000000002	0.0787562158366199	31	systole	4	B	500	systole
453.9694000000002	0.0787562158366199	31	systole	5	B	500	systole
454.6245999999999	0.0787562158366199	31	systole	6	B	500	systole
455.3534000000002	0.0787562158366199	31	systole	7	B	500	systole
455.9462000000001	0.0787562158366199	31	systole	8	B	500	systole
456.1861000000001	0.0787562158366199	31	systole	9	B	500	systole
456.77380000000016	0.0787562158366199	31	systole	10	B	500	systole
457.4615000000001	0.0787562158366199	31	systole	11	B	500	systole
458.17139999999995	0.0787562158366199	31	systole	12	B	500	systole
458.8812999999998	0.0787562158366199	31	systole	13	B	500	systole
459.6757	0.0787562158366199	31	systole	14	B	500	systole
460.3576999999998	0.0787562158366199	31	systole	15	B	500	systole
461.02780000000007	0.0787562158366199	31	systole	16	B	500	systole
463.3325000000002	0.0893787258828524	32	systole	1	B	500	systole
464.0125999999998	0.0893787258828524	32	systole	2	B	500	systole
464.6868999999999	0.0893787258828524	32	systole	3	B	500	systole
465.3671999999999	0.0893787258828524	32	systole	4	B	500	systole
466.1987999999999	0.0893787258828524	32	systole	5	B	500	systole
467.1586	0.0893787258828524	32	systole	6	B	500	systole
468.08760000000007	0.0893787258828524	32	systole	7	B	500	systole
468.98760000000016	0.0893787258828524	32	systole	8	B	500	systole
469.8875999999998	0.0893787258828524	32	systole	9	B	500	systole
470.8342	0.0893787258828524	32	systole	10	B	500	systole
471.8318999999999	0.0893787258828524	32	systole	11	B	500	systole
472.73620000000005	0.0893787258828524	32	systole	12	B	500	systole
480.7414000000001	0.0487268750439398	33	diastole	1	B	500	diastole
481.49149999999986	0.0487268750439398	33	diastole	2	B	500	diastole
482.6719999999998	0.0487268750439398	33	diastole	3	B	500	diastole
483.3021000000001	0.0487268750439398	33	diastole	4	B	500	diastole
483.93219999999997	0.0487268750439398	33	diastole	5	B	500	diastole
484.17330000000015	0.0487268750439398	33	diastole	6	B	500	diastole
484.7421999999999	0.0487268750439398	33	diastole	7	B	500	diastole
485.5420999999999	0.0487268750439398	33	diastole	8	B	500	diastole
486.2654	0.0487268750439398	33	diastole	9	B	500	diastole
486.9952999999998	0.0487268750439398	33	diastole	10	B	500	diastole
487.72529999999983	0.0487268750439398	33	diastole	11	B	500	diastole
488.41830000000004	0.0487268750439398	33	diastole	12	B	500	diastole
489.07500000000005	0.0487268750439398	33	diastole	13	B	500	diastole
489.6051	0.0487268750439398	33	diastole	14	B	500	diastole
492.5982999999999	0.0862581017136108	34	diastole	1	B	500	diastole
493.2484999999999	0.0862581017136108	34	diastole	2	B	500	diastole
493.89830000000006	0.0862581017136108	34	diastole	3	B	500	diastole
494.54830000000015	0.0862581017136108	34	diastole	4	B	500	diastole
495.0852000000002	0.0862581017136108	34	diastole	5	B	500	diastole
495.3457999999998	0.0862581017136108	34	diastole	6	B	500	diastole
495.78840000000014	0.0862581017136108	34	diastole	7	B	500	diastole
496.5019	0.0862581017136108	34	diastole	8	B	500	diastole
497.1517000000001	0.0862581017136108	34	diastole	9	B	500	diastole
497.8520000000001	0.0862581017136108	34	diastole	10	B	500	diastole
498.55230000000006	0.0862581017136108	34	diastole	11	B	500	diastole
499.27189999999996	0.0862581017136108	34	diastole	12	B	500	diastole
499.96159999999986	0.0862581017136108	34	diastole	13	B	500	diastole
500.67460000000005	0.0862581017136108	34	diastole	14	B	500	diastole
501.3981000000001	0.0862581017136108	34	diastole	15	B	500	diastole
504.77639999999997	0.0849782250006683	35	diastole	1	B	500	diastole
505.44600000000014	0.0849782250006683	35	diastole	2	B	500	diastole
506.10439999999994	0.0849782250006683	35	diastole	3	B	500	diastole
506.77409999999986	0.0849782250006683	35	diastole	4	B	500	diastole
507.4260999999999	0.0849782250006683	35	diastole	5	B	500	diastole
508.0861000000002	0.0849782250006683	35	diastole	6	B	500	diastole
508.7841000000001	0.0849782250006683	35	diastole	7	B	500	diastole
509.47399999999993	0.0849782250006683	35	diastole	8	B	500	diastole
509.99599999999987	0.0849782250006683	35	diastole	9	B	500	diastole
510.2531999999999	0.0849782250006683	35	diastole	10	B	500	diastole
510.798	0.0849782250006683	35	diastole	11	B	500	diastole
511.3379000000002	0.0849782250006683	35	diastole	12	B	500	diastole
511.5932	0.0849782250006683	35	diastole	13	B	500	diastole
512.1593	0.0849782250006683	35	diastole	14	B	500	diastole
512.8594	0.0849782250006683	35	diastole	15	B	500	diastole
513.5474999999999	0.0849782250006683	35	diastole	16	B	500	diastole
518.9484	0.0825088075653184	36	diastole	1	B	500	systole
519.5885000000001	0.0825088075653184	36	diastole	2	B	500	systole
520.2184	0.0825088075653184	36	diastole	3	B	500	systole
520.4732000000001	0.0825088075653184	36	diastole	4	B	500	systole
520.9966999999999	0.0825088075653184	36	diastole	5	B	500	systole
521.6364999999998	0.0825088075653184	36	diastole	6	B	500	systole
522.2765000000002	0.0825088075653184	36	diastole	7	B	500	systole
522.9563999999998	0.0825088075653184	36	diastole	8	B	500	systole
523.6263999999999	0.0825088075653184	36	diastole	9	B	500	systole
524.2965000000002	0.0825088075653184	36	diastole	10	B	500	systole
524.9665000000002	0.0825088075653184	36	diastole	11	B	500	systole
525.6618000000001	0.0825088075653184	36	diastole	12	B	500	systole
526.3866999999998	0.0825088075653184	36	diastole	13	B	500	systole
527.0649999999998	0.0825088075653184	36	diastole	14	B	500	systole
527.7349999999999	0.0825088075653184	36	diastole	15	B	500	systole
530.2182	0.0825076749897562	37	diastole	1	B	500	diastole
530.8781000000001	0.0825076749897562	37	diastole	2	B	500	diastole
531.5000000000002	0.0825076749897562	37	diastole	3	B	500	diastole
532.1216999999999	0.0825076749897562	37	diastole	4	B	500	diastole
532.7713999999999	0.0825076749897562	37	diastole	5	B	500	diastole
533.4213000000002	0.0825076749897562	37	diastole	6	B	500	diastole
534.0083000000002	0.0825076749897562	37	diastole	7	B	500	diastole
534.5281000000002	0.0825076749897562	37	diastole	8	B	500	diastole
535.0179	0.0825076749897562	37	diastole	9	B	500	diastole
535.2656	0.0825076749897562	37	diastole	10	B	500	diastole
535.4156	0.0825076749897562	37	diastole	11	B	500	diastole
535.9412	0.0825076749897562	37	diastole	12	B	500	diastole
536.5708000000002	0.0825076749897562	37	diastole	13	B	500	diastole
537.2004	0.0825076749897562	37	diastole	14	B	500	diastole
537.8704	0.0825076749897562	37	diastole	15	B	500	diastole
538.5404000000001	0.0825076749897562	37	diastole	16	B	500	diastole
538.7830000000001	0.0825076749897562	37	diastole	17	B	500	diastole
539.1955	0.0825076749897562	37	diastole	18	B	500	diastole
539.9657	0.0825076749897562	37	diastole	19	B	500	diastole
544.0082	0.0818679635121952	38	diastole	1	B	500	systole
544.6582000000001	0.0818679635121952	38	diastole	2	B	500	systole
545.3082000000002	0.0818679635121952	38	diastole	3	B	500	systole
546.0233999999998	0.0818679635121952	38	diastole	4	B	500	systole
546.7232000000001	0.0818679635121952	38	diastole	5	B	500	systole
547.4017999999999	0.0818679635121952	38	diastole	6	B	500	systole
548.0815	0.0818679635121952	38	diastole	7	B	500	systole
548.7610999999999	0.0818679635121952	38	diastole	8	B	500	systole
549.5195000000001	0.0818679635121952	38	diastole	9	B	500	systole
550.2879	0.0818679635121952	38	diastole	10	B	500	systole
551.0483000000002	0.0818679635121952	38	diastole	11	B	500	systole
551.8086000000001	0.0818679635121952	38	diastole	12	B	500	systole
552.4883000000002	0.0818679635121952	38	diastole	13	B	500	systole
553.2448999999999	0.0818679635121952	38	diastole	14	B	500	systole
564.9768000000001	0.0869060187542345	39	diastole	1	B	500	systole
565.6668000000002	0.0869060187542345	39	diastole	2	B	500	systole
566.3198	0.0869060187542345	39	diastole	3	B	500	systole
566.8518000000001	0.0869060187542345	39	diastole	4	B	500	systole
567.3680999999999	0.0869060187542345	39	diastole	5	B	500	systole
568.1247000000001	0.0869060187542345	39	diastole	6	B	500	systole
568.8147000000001	0.0869060187542345	39	diastole	7	B	500	systole
569.5510999999999	0.0869060187542345	39	diastole	8	B	500	systole
570.1065000000001	0.0869060187542345	39	diastole	9	B	500	systole
570.6768	0.0869060187542345	39	diastole	10	B	500	systole
570.9377999999999	0.0869060187542345	39	diastole	11	B	500	systole
571.5620999999999	0.0869060187542345	39	diastole	12	B	500	systole
572.2724000000001	0.0869060187542345	39	diastole	13	B	500	systole
572.9866	0.0869060187542345	39	diastole	14	B	500	systole
573.7077999999999	0.0869060187542345	39	diastole	15	B	500	systole
574.4748000000002	0.0869060187542345	39	diastole	16	B	500	systole
577.0651999999998	0.0881541920243762	40	systole	1	B	500	diastole
577.3353	0.0881541920243762	40	systole	2	B	500	diastole
577.4878000000001	0.0881541920243762	40	systole	3	B	500	diastole
577.7915999999998	0.0881541920243762	40	systole	4	B	500	diastole
578.0427999999999	0.0881541920243762	40	systole	5	B	500	diastole
578.5703000000001	0.0881541920243762	40	systole	6	B	500	diastole
579.2702000000002	0.0881541920243762	40	systole	7	B	500	diastole
579.9901000000002	0.0881541920243762	40	systole	8	B	500	diastole
580.7801000000002	0.0881541920243762	40	systole	9	B	500	diastole
581.6272999999999	0.0881541920243762	40	systole	10	B	500	diastole
582.4471999999998	0.0881541920243762	40	systole	11	B	500	diastole
583.2488999999998	0.0881541920243762	40	systole	12	B	500	diastole
584.039	0.0881541920243762	40	systole	13	B	500	diastole
584.7448000000002	0.0881541920243762	40	systole	14	B	500	diastole
585.4449000000002	0.0881541920243762	40	systole	15	B	500	diastole
586.1450000000002	0.0881541920243762	40	systole	16	B	500	diastole
588.9451000000001	0.0875043736887164	41	diastole	1	B	500	systole
589.5950999999998	0.0875043736887164	41	diastole	2	B	500	systole
590.2452000000001	0.0875043736887164	41	diastole	3	B	500	systole
590.9069999999999	0.0875043736887164	41	diastole	4	B	500	systole
591.4304	0.0875043736887164	41	diastole	5	B	500	systole
591.6989999999998	0.0875043736887164	41	diastole	6	B	500	systole
592.0092000000002	0.0875043736887164	41	diastole	7	B	500	systole
592.3142	0.0875043736887164	41	diastole	8	B	500	systole
592.6940999999999	0.0875043736887164	41	diastole	9	B	500	systole
593.4788999999998	0.0875043736887164	41	diastole	10	B	500	systole
594.1888000000001	0.0875043736887164	41	diastole	11	B	500	systole
594.9136000000001	0.0875043736887164	41	diastole	12	B	500	systole
595.6135999999999	0.0875043736887164	41	diastole	13	B	500	systole
596.3018	0.0875043736887164	41	diastole	14	B	500	systole
596.9718	0.0875043736887164	41	diastole	15	B	500	systole
597.6723	0.0875043736887164	41	diastole	16	B	500	systole
598.3423	0.0875043736887164	41	diastole	17	B	500	systole
607.4386000000002	0.0362477062444668	42	diastole	1	B	500	systole
608.4732000000001	0.0362477062444668	42	diastole	2	B	500	systole
609.2648999999999	0.0362477062444668	42	diastole	3	B	500	systole
610.0132999999998	0.0362477062444668	42	diastole	4	B	500	systole
610.8571	0.0362477062444668	42	diastole	5	B	500	systole
611.5755999999999	0.0362477062444668	42	diastole	6	B	500	systole
612.3154999999999	0.0362477062444668	42	diastole	7	B	500	systole
613.017	0.0362477062444668	42	diastole	8	B	500	systole
613.7034000000001	0.0362477062444668	42	diastole	9	B	500	systole
614.4136000000001	0.0362477062444668	42	diastole	10	B	500	systole
615.1335000000001	0.0362477062444668	42	diastole	11	B	500	systole
615.8534000000002	0.0362477062444668	42	diastole	12	B	500	systole
616.5332999999998	0.0362477062444668	42	diastole	13	B	500	systole
619.8109000000002	0.0881233062245883	43	systole	1	B	500	diastole
620.5811000000001	0.0881233062245883	43	systole	2	B	500	diastole
621.3009	0.0881233062245883	43	systole	3	B	500	diastole
622.0924000000002	0.0881233062245883	43	systole	4	B	500	diastole
622.9181999999998	0.0881233062245883	43	systole	5	B	500	diastole
623.7382	0.0881233062245883	43	systole	6	B	500	diastole
624.3678000000002	0.0881233062245883	43	systole	7	B	500	diastole
624.9680000000001	0.0881233062245883	43	systole	8	B	500	diastole
625.2500000000002	0.0881233062245883	43	systole	9	B	500	diastole
625.4174999999998	0.0881233062245883	43	systole	10	B	500	diastole
625.9880999999998	0.0881233062245883	43	systole	11	B	500	diastole
626.7184	0.0881233062245883	43	systole	12	B	500	diastole
627.4385	0.0881233062245883	43	systole	13	B	500	diastole
628.1425000000002	0.0881233062245883	43	systole	14	B	500	diastole
637.4741000000001	0.0912528687331359	44	systole	1	B	500	diastole
637.7524000000001	0.0912528687331359	44	systole	2	B	500	diastole
637.9123999999999	0.0912528687331359	44	systole	3	B	500	diastole
638.0748999999998	0.0912528687331359	44	systole	4	B	500	diastole
638.2074	0.0912528687331359	44	systole	5	B	500	diastole
638.3774000000001	0.0912528687331359	44	systole	6	B	500	diastole
639.1344999999999	0.0912528687331359	44	systole	7	B	500	diastole
639.9352999999999	0.0912528687331359	44	systole	8	B	500	diastole
640.7128	0.0912528687331359	44	systole	9	B	500	diastole
641.4727999999998	0.0912528687331359	44	systole	10	B	500	diastole
642.3028999999999	0.0912528687331359	44	systole	11	B	500	diastole
643.1328000000001	0.0912528687331359	44	systole	12	B	500	diastole
643.4172999999998	0.0912528687331359	44	systole	13	B	500	diastole
643.6672999999998	0.0912528687331359	44	systole	14	B	500	diastole
643.8273000000002	0.0912528687331359	44	systole	15	B	500	diastole
643.9873	0.0912528687331359	44	systole	16	B	500	diastole
644.4448	0.0912528687331359	44	systole	17	B	500	diastole
645.2846000000002	0.0912528687331359	44	systole	18	B	500	diastole
645.9947	0.0912528687331359	44	systole	19	B	500	diastole
646.2823000000001	0.0912528687331359	44	systole	20	B	500	diastole
646.8122999999998	0.0912528687331359	44	systole	21	B	500	diastole
650.7102000000002	0.091247411823133	45	systole	1	B	500	systole
651.5204000000001	0.091247411823133	45	systole	2	B	500	systole
652.2402	0.091247411823133	45	systole	3	B	500	systole
653.0436000000002	0.091247411823133	45	systole	4	B	500	systole
653.8237000000001	0.091247411823133	45	systole	5	B	500	systole
654.5934	0.091247411823133	45	systole	6	B	500	systole
655.3176999999998	0.091247411823133	45	systole	7	B	500	systole
656.0582999999999	0.091247411823133	45	systole	8	B	500	systole
656.7987	0.091247411823133	45	systole	9	B	500	systole
657.4667999999999	0.091247411823133	45	systole	10	B	500	systole
658.1465000000001	0.091247411823133	45	systole	11	B	500	systole
658.8504999999998	0.091247411823133	45	systole	12	B	500	systole
659.5485000000001	0.091247411823133	45	systole	13	B	500	systole
663.9404999999999	0.0856396822782699	46	diastole	1	B	500	systole
664.6206	0.0856396822782699	46	diastole	2	B	500	systole
665.3486999999998	0.0856396822782699	46	diastole	3	B	500	systole
665.9995000000001	0.0856396822782699	46	diastole	4	B	500	systole
666.6800999999998	0.0856396822782699	46	diastole	5	B	500	systole
667.3603999999998	0.0856396822782699	46	diastole	6	B	500	systole
668.1189999999999	0.0856396822782699	46	diastole	7	B	500	systole
668.8592999999998	0.0856396822782699	46	diastole	8	B	500	systole
669.5935999999999	0.0856396822782699	46	diastole	9	B	500	systole
670.3603	0.0856396822782699	46	diastole	10	B	500	systole
671.1483999999998	0.0856396822782699	46	diastole	11	B	500	systole
671.9386000000002	0.0856396822782699	46	diastole	12	B	500	systole
672.7286000000001	0.0856396822782699	46	diastole	13	B	500	systole
673.4386000000002	0.0856396822782699	46	diastole	14	B	500	systole
682.6668000000002	0.0768737149483058	47	systole	1	B	500	systole
683.3669000000002	0.0768737149483058	47	systole	2	B	500	systole
684.1362999999999	0.0768737149483058	47	systole	3	B	500	systole
684.8280000000002	0.0768737149483058	47	systole	4	B	500	systole
685.5337999999999	0.0768737149483058	47	systole	5	B	500	systole
686.2337	0.0768737149483058	47	systole	6	B	500	systole
686.9793000000002	0.0768737149483058	47	systole	7	B	500	systole
687.6951000000001	0.0768737149483058	47	systole	8	B	500	systole
688.405	0.0768737149483058	47	systole	9	B	500	systole
689.115	0.0768737149483058	47	systole	10	B	500	systole
689.8909000000001	0.0768737149483058	47	systole	11	B	500	systole
690.5708999999999	0.0768737149483058	47	systole	12	B	500	systole
691.3181999999999	0.0768737149483058	47	systole	13	B	500	systole
692.0582000000002	0.0768737149483058	47	systole	14	B	500	systole
698.6899999999998	0.0912514624942559	48	systole	1	B	500	systole
699.4599000000001	0.0912514624942559	48	systole	2	B	500	systole
700.2297999999998	0.0912514624942559	48	systole	3	B	500	systole
700.9298000000001	0.0912514624942559	48	systole	4	B	500	systole
701.6915999999999	0.0912514624942559	48	systole	5	B	500	systole
702.4613999999999	0.0912514624942559	48	systole	6	B	500	systole
703.2312	0.0912514624942559	48	systole	7	B	500	systole
704.0031000000001	0.0912514624942559	48	systole	8	B	500	systole
704.7030000000002	0.0912514624942559	48	systole	9	B	500	systole
705.4111	0.0912514624942559	48	systole	10	B	500	systole
706.1153999999999	0.0912514624942559	48	systole	11	B	500	systole
706.7879	0.0912514624942559	48	systole	12	B	500	systole
707.5521999999999	0.0912514624942559	48	systole	13	B	500	systole
708.3223	0.0912514624942559	48	systole	14	B	500	systole
712.6265999999998	0.091239211265929	49	diastole	1	B	500	diastole
713.3967	0.091239211265929	49	diastole	2	B	500	diastole
714.2321	0.091239211265929	49	diastole	3	B	500	diastole
715.0420000000001	0.091239211265929	49	diastole	4	B	500	diastole
715.7754000000002	0.091239211265929	49	diastole	5	B	500	diastole
716.0644	0.091239211265929	49	diastole	6	B	500	diastole
716.8421000000001	0.091239211265929	49	diastole	7	B	500	diastole
717.6404	0.091239211265929	49	diastole	8	B	500	diastole
717.9318000000001	0.091239211265929	49	diastole	9	B	500	diastole
718.5047999999999	0.091239211265929	49	diastole	10	B	500	diastole
718.7868000000001	0.091239211265929	49	diastole	11	B	500	diastole
719.2909000000002	0.091239211265929	49	diastole	12	B	500	diastole
720.1414000000002	0.091239211265929	49	diastole	13	B	500	diastole
720.7733999999998	0.091239211265929	49	diastole	14	B	500	diastole
721.0292999999999	0.091239211265929	49	diastole	15	B	500	diastole
721.2093000000002	0.091239211265929	49	diastole	16	B	500	diastole
721.9026999999999	0.091239211265929	49	diastole	17	B	500	diastole
725.021	0.036867493763566	50	systole	1	B	500	diastole
725.7805999999998	0.036867493763566	50	systole	2	B	500	diastole
726.5011000000002	0.036867493763566	50	systole	3	B	500	diastole
727.2216000000001	0.036867493763566	50	systole	4	B	500	diastole
727.9419999999998	0.036867493763566	50	systole	5	B	500	diastole
728.9977999999999	0.036867493763566	50	systole	6	B	500	diastole
729.7594999999999	0.036867493763566	50	systole	7	B	500	diastole
730.5172	0.036867493763566	50	systole	8	B	500	diastole
731.3023000000001	0.036867493763566	50	systole	9	B	500	diastole
732.0701999999999	0.036867493763566	50	systole	10	B	500	diastole
732.8725000000002	0.036867493763566	50	systole	11	B	500	diastole
733.6549000000002	0.036867493763566	50	systole	12	B	500	diastole
734.4363999999998	0.036867493763566	50	systole	13	B	500	diastole
740.9386000000002	0.0900331595330499	51	diastole	1	B	500	diastole
741.6580999999999	0.0900331595330499	51	diastole	2	B	500	diastole
742.3779999999999	0.0900331595330499	51	diastole	3	B	500	diastole
743.0799	0.0900331595330499	51	diastole	4	B	500	diastole
743.8915	0.0900331595330499	51	diastole	5	B	500	diastole
744.6618000000001	0.0900331595330499	51	diastole	6	B	500	diastole
745.3817999999999	0.0900331595330499	51	diastole	7	B	500	diastole
745.9736	0.0900331595330499	51	diastole	8	B	500	diastole
746.2542000000001	0.0900331595330499	51	diastole	9	B	500	diastole
746.3767	0.0900331595330499	51	diastole	10	B	500	diastole
747.0071999999998	0.0900331595330499	51	diastole	11	B	500	diastole
747.5359000000001	0.0900331595330499	51	diastole	12	B	500	diastole
748.1825999999999	0.0900331595330499	51	diastole	13	B	500	diastole
748.9125999999999	0.0900331595330499	51	diastole	14	B	500	diastole
751.5015000000001	0.086977406986989	52	systole	1	B	500	diastole
752.2814999999998	0.086977406986989	52	systole	2	B	500	diastole
752.5516	0.086977406986989	52	systole	3	B	500	diastole
752.6866000000002	0.086977406986989	52	systole	4	B	500	diastole
752.9201999999998	0.086977406986989	52	systole	5	B	500	diastole
753.5303999999999	0.086977406986989	52	systole	6	B	500	diastole
754.1405000000002	0.086977406986989	52	systole	7	B	500	diastole
754.4091000000001	0.086977406986989	52	systole	8	B	500	diastole
754.9921999999999	0.086977406986989	52	systole	9	B	500	diastole
755.7722000000001	0.086977406986989	52	systole	10	B	500	diastole
756.5433999999998	0.086977406986989	52	systole	11	B	500	diastole
757.2933	0.086977406986989	52	systole	12	B	500	diastole
757.9826999999998	0.086977406986989	52	systole	13	B	500	diastole
758.8342	0.086977406986989	52	systole	14	B	500	diastole
759.6043000000002	0.086977406986989	52	systole	15	B	500	diastole
760.3435000000002	0.086977406986989	52	systole	16	B	500	diastole
768.6605999999999	0.065619037108263	53	systole	1	B	500	systole
769.5206999999998	0.065619037108263	53	systole	2	B	500	systole
770.3806999999999	0.065619037108263	53	systole	3	B	500	systole
771.3776	0.065619037108263	53	systole	4	B	500	systole
772.1877000000002	0.065619037108263	53	systole	5	B	500	systole
773.0467999999998	0.065619037108263	53	systole	6	B	500	systole
773.9019999999998	0.065619037108263	53	systole	7	B	500	systole
774.7221999999999	0.065619037108263	53	systole	8	B	500	systole
775.4696000000001	0.065619037108263	53	systole	9	B	500	systole
776.2628000000002	0.065619037108263	53	systole	10	B	500	systole
777.0327	0.065619037108263	53	systole	11	B	500	systole
777.7927999999999	0.065619037108263	53	systole	12	B	500	systole
782.0116	0.0906228499661665	54	diastole	1	B	500	systole
782.2863	0.0906228499661665	54	diastole	2	B	500	systole
782.8785999999998	0.0906228499661665	54	diastole	3	B	500	systole
783.6186	0.0906228499661665	54	diastole	4	B	500	systole
784.3484000000001	0.0906228499661665	54	diastole	5	B	500	systole
785.0984000000001	0.0906228499661665	54	diastole	6	B	500	systole
785.8484999999998	0.0906228499661665	54	diastole	7	B	500	systole
786.5782999999999	0.0906228499661665	54	diastole	8	B	500	systole
787.3081	0.0906228499661665	54	diastole	9	B	500	systole
788.1442	0.0906228499661665	54	diastole	10	B	500	systole
788.9141000000002	0.0906228499661665	54	diastole	11	B	500	systole
789.6625999999999	0.0906228499661665	54	diastole	12	B	500	systole
790.4026000000001	0.0906228499661665	54	diastole	13	B	500	systole
790.6838	0.0906228499661665	54	diastole	14	B	500	systole
790.8437999999999	0.0906228499661665	54	diastole	15	B	500	systole
791.4824999999998	0.0906228499661665	54	diastole	16	B	500	systole
803.0013999999999	0.0300001437717583	55	diastole	1	B	500	diastole
803.9864	0.0300001437717583	55	diastole	2	B	500	diastole
804.1586	0.0300001437717583	55	diastole	3	B	500	diastole
804.3185999999998	0.0300001437717583	55	diastole	4	B	500	diastole
805.2564	0.0300001437717583	55	diastole	5	B	500	diastole
806.1813	0.0300001437717583	55	diastole	6	B	500	diastole
807.1751000000002	0.0300001437717583	55	diastole	7	B	500	diastole
807.7652999999998	0.0300001437717583	55	diastole	8	B	500	diastole
807.9910000000002	0.0300001437717583	55	diastole	9	B	500	diastole
808.1609999999998	0.0300001437717583	55	diastole	10	B	500	diastole
808.9066	0.0300001437717583	55	diastole	11	B	500	diastole
809.7366	0.0300001437717583	55	diastole	12	B	500	diastole
810.5662	0.0300001437717583	55	diastole	13	B	500	diastole
811.2475999999999	0.0300001437717583	55	diastole	14	B	500	diastole
811.9709999999998	0.0300001437717583	55	diastole	15	B	500	diastole
814.9914999999999	0.0925075054983608	56	systole	1	B	500	diastole
815.2736000000002	0.0925075054983608	56	systole	2	B	500	diastole
815.8415000000002	0.0925075054983608	56	systole	3	B	500	diastole
816.1261000000002	0.0925075054983608	56	systole	4	B	500	diastole
816.8037999999999	0.0925075054983608	56	systole	5	B	500	diastole
817.2965000000002	0.0925075054983608	56	systole	6	B	500	diastole
817.8765000000001	0.0925075054983608	56	systole	7	B	500	diastole
818.1386	0.0925075054983608	56	systole	8	B	500	diastole
818.7607	0.0925075054983608	56	systole	9	B	500	diastole
819.5604999999998	0.0925075054983608	56	systole	10	B	500	diastole
820.3304999999998	0.0925075054983608	56	systole	11	B	500	diastole
820.8707000000002	0.0925075054983608	56	systole	12	B	500	diastole
821.4109999999998	0.0925075054983608	56	systole	13	B	500	diastole
821.6535999999999	0.0925075054983608	56	systole	14	B	500	diastole
822.4567	0.0925075054983608	56	systole	15	B	500	diastole
823.1706000000001	0.0925075054983608	56	systole	16	B	500	diastole
823.4460000000001	0.0925075054983608	56	systole	17	B	500	diastole
823.606	0.0925075054983608	56	systole	18	B	500	diastole
824.1155000000001	0.0925075054983608	56	systole	19	B	500	diastole
826.8767	0.0881172687513753	57	systole	1	B	500	diastole
827.5768	0.0881172687513753	57	systole	2	B	500	diastole
828.4041	0.0881172687513753	57	systole	3	B	500	diastole
829.2140000000002	0.0881172687513753	57	systole	4	B	500	diastole
830.0049000000001	0.0881172687513753	57	systole	5	B	500	diastole
830.7549000000001	0.0881172687513753	57	systole	6	B	500	diastole
831.5049000000001	0.0881172687513753	57	systole	7	B	500	diastole
832.3599000000002	0.0881172687513753	57	systole	8	B	500	diastole
833.1198000000002	0.0881172687513753	57	systole	9	B	500	diastole
833.894	0.0881172687513753	57	systole	10	B	500	diastole
834.6740000000002	0.0881172687513753	57	systole	11	B	500	diastole
835.3439999999998	0.0881172687513753	57	systole	12	B	500	diastole
836.0139999999999	0.0881172687513753	57	systole	13	B	500	diastole
836.3059999999998	0.0881172687513753	57	systole	14	B	500	diastole
840.7182	0.0962514999846462	58	diastole	1	B	500	systole
841.4979999999998	0.0962514999846462	58	diastole	2	B	500	systole
842.1465000000001	0.0962514999846462	58	diastole	3	B	500	systole
842.8563000000001	0.0962514999846462	58	diastole	4	B	500	systole
843.5662	0.0962514999846462	58	diastole	5	B	500	systole
844.2760000000001	0.0962514999846462	58	diastole	6	B	500	systole
844.9961000000001	0.0962514999846462	58	diastole	7	B	500	systole
845.7162000000001	0.0962514999846462	58	diastole	8	B	500	systole
846.3697	0.0962514999846462	58	diastole	9	B	500	systole
847.1198000000002	0.0962514999846462	58	diastole	10	B	500	systole
847.8014000000001	0.0962514999846462	58	diastole	11	B	500	systole
848.4914999999999	0.0962514999846462	58	diastole	12	B	500	systole
849.2299999999998	0.0962514999846462	58	diastole	13	B	500	systole
859.6998999999998	0.0893779937177896	59	systole	1	B	500	systole
860.4599000000001	0.0893779937177896	59	systole	2	B	500	systole
861.3109999999999	0.0893779937177896	59	systole	3	B	500	systole
862.0609999999999	0.0893779937177896	59	systole	4	B	500	systole
862.8109999999999	0.0893779937177896	59	systole	5	B	500	systole
863.4606000000001	0.0893779937177896	59	systole	6	B	500	systole
863.7457999999999	0.0893779937177896	59	systole	7	B	500	systole
864.2976999999998	0.0893779937177896	59	systole	8	B	500	systole
865.0793999999999	0.0893779937177896	59	systole	9	B	500	systole
865.8612	0.0893779937177896	59	systole	10	B	500	systole
866.6605999999999	0.0893779937177896	59	systole	11	B	500	systole
867.5042999999998	0.0893779937177896	59	systole	12	B	500	systole
868.2769999999998	0.0893779937177896	59	systole	13	B	500	systole
869.1121999999998	0.0893779937177896	59	systole	14	B	500	systole
872.9930999999999	0.0993622456444427	60	diastole	1	B	500	diastole
873.8131000000001	0.0993622456444427	60	diastole	2	B	500	diastole
874.7299999999998	0.0993622456444427	60	diastole	3	B	500	diastole
875.6321	0.0993622456444427	60	diastole	4	B	500	diastole
876.4262000000001	0.0993622456444427	60	diastole	5	B	500	diastole
877.2358999999999	0.0993622456444427	60	diastole	6	B	500	diastole
877.5456999999999	0.0993622456444427	60	diastole	7	B	500	diastole
877.6857000000002	0.0993622456444427	60	diastole	8	B	500	diastole
878.3696000000002	0.0993622456444427	60	diastole	9	B	500	diastole
879.1996999999999	0.0993622456444427	60	diastole	10	B	500	diastole
880.0847999999999	0.0993622456444427	60	diastole	11	B	500	diastole
880.9332999999999	0.0993622456444427	60	diastole	12	B	500	diastole
881.771	0.0993622456444427	60	diastole	13	B	500	diastole
886.4312000000002	0.1037263812322635	61	diastole	1	B	500	diastole
887.2112	0.1037263812322635	61	diastole	2	B	500	diastole
887.8978	0.1037263812322635	61	diastole	3	B	500	diastole
888.5865000000001	0.1037263812322635	61	diastole	4	B	500	diastole
889.3864999999998	0.1037263812322635	61	diastole	5	B	500	diastole
890.2664000000002	0.1037263812322635	61	diastole	6	B	500	diastole
891.1463999999999	0.1037263812322635	61	diastole	7	B	500	diastole
892.0263000000002	0.1037263812322635	61	diastole	8	B	500	diastole
892.8131000000001	0.1037263812322635	61	diastole	9	B	500	diastole
893.7063	0.1037263812322635	61	diastole	10	B	500	diastole
894.4129	0.1037263812322635	61	diastole	11	B	500	diastole
899.2582	0.0937587029475253	62	diastole	1	B	500	diastole
899.9498000000001	0.0937587029475253	62	diastole	2	B	500	diastole
900.6496	0.0937587029475253	62	diastole	3	B	500	diastole
901.2331000000001	0.0937587029475253	62	diastole	4	B	500	diastole
902.0076000000001	0.0937587029475253	62	diastole	5	B	500	diastole
902.8073999999999	0.0937587029475253	62	diastole	6	B	500	diastole
903.5481000000002	0.0937587029475253	62	diastole	7	B	500	diastole
904.2393	0.0937587029475253	62	diastole	8	B	500	diastole
904.9777000000001	0.0937587029475253	62	diastole	9	B	500	diastole
905.7567000000001	0.0937587029475253	62	diastole	10	B	500	diastole
906.5564999999999	0.0937587029475253	62	diastole	11	B	500	diastole
907.2945000000002	0.0937587029475253	62	diastole	12	B	500	diastole
908.0242999999998	0.0937587029475253	62	diastole	13	B	500	diastole
917.9601	0.0531118928920477	63	diastole	1	B	500	diastole
918.6501999999998	0.0531118928920477	63	diastole	2	B	500	diastole
919.4585	0.0531118928920477	63	diastole	3	B	500	diastole
920.2884000000001	0.0531118928920477	63	diastole	4	B	500	diastole
921.0750999999998	0.0531118928920477	63	diastole	5	B	500	diastole
921.8450999999998	0.0531118928920477	63	diastole	6	B	500	diastole
922.5649999999998	0.0531118928920477	63	diastole	7	B	500	diastole
923.2765000000002	0.0531118928920477	63	diastole	8	B	500	diastole
924.0181	0.0531118928920477	63	diastole	9	B	500	diastole
924.7681	0.0531118928920477	63	diastole	10	B	500	diastole
925.488	0.0531118928920477	63	diastole	11	B	500	diastole
925.8381000000002	0.0531118928920477	63	diastole	12	B	500	diastole
926.1881999999998	0.0531118928920477	63	diastole	13	B	500	diastole
936.229	0.0343855125829577	64	systole	1	B	500	systole
937.0591000000002	0.0343855125829577	64	systole	2	B	500	systole
937.8891000000001	0.0343855125829577	64	systole	3	B	500	systole
938.8518999999999	0.0343855125829577	64	systole	4	B	500	systole
939.8421000000001	0.0343855125829577	64	systole	5	B	500	systole
940.5818000000002	0.0343855125829577	64	systole	6	B	500	systole
941.3902	0.0343855125829577	64	systole	7	B	500	systole
942.2072000000001	0.0343855125829577	64	systole	8	B	500	systole
943.0148000000002	0.0343855125829577	64	systole	9	B	500	systole
943.7663	0.0343855125829577	64	systole	10	B	500	systole
944.4864	0.0343855125829577	64	systole	11	B	500	systole
945.2063999999998	0.0343855125829577	64	systole	12	B	500	systole
945.8848	0.0343855125829577	64	systole	13	B	500	systole
949.7085	0.0900082152511458	65	diastole	1	B	500	systole
950.4584000000002	0.0900082152511458	65	diastole	2	B	500	systole
951.2783000000002	0.0900082152511458	65	diastole	3	B	500	systole
952.095	0.0900082152511458	65	diastole	4	B	500	systole
952.8951	0.0900082152511458	65	diastole	5	B	500	systole
953.7068000000002	0.0900082152511458	65	diastole	6	B	500	systole
954.4770000000001	0.0900082152511458	65	diastole	7	B	500	systole
955.3520000000001	0.0900082152511458	65	diastole	8	B	500	systole
956.202	0.0900082152511458	65	diastole	9	B	500	systole
956.8621999999998	0.0900082152511458	65	diastole	10	B	500	systole
957.5224000000001	0.0900082152511458	65	diastole	11	B	500	systole
958.4273999999998	0.0900082152511458	65	diastole	12	B	500	systole
959.2474	0.0900082152511458	65	diastole	13	B	500	systole
970.5779	0.0306180813058745	66	diastole	1	B	500	diastole
971.3979999999999	0.0306180813058745	66	diastole	2	B	500	diastole
972.2180999999998	0.0306180813058745	66	diastole	3	B	500	diastole
972.5278999999998	0.0306180813058745	66	diastole	4	B	500	diastole
972.6879999999999	0.0306180813058745	66	diastole	5	B	500	diastole
973.6499000000001	0.0306180813058745	66	diastole	6	B	500	diastole
974.3799999999999	0.0306180813058745	66	diastole	7	B	500	diastole
974.9100000000001	0.0306180813058745	66	diastole	8	B	500	diastole
975.4833000000001	0.0306180813058745	66	diastole	9	B	500	diastole
976.1598999999999	0.0306180813058745	66	diastole	10	B	500	diastole
976.7200999999998	0.0306180813058745	66	diastole	11	B	500	diastole
976.9222000000002	0.0306180813058745	66	diastole	12	B	500	diastole
977.3547999999998	0.0306180813058745	66	diastole	13	B	500	diastole
978.0797	0.0306180813058745	66	diastole	14	B	500	diastole
978.7295000000001	0.0306180813058745	66	diastole	15	B	500	diastole
979.3619000000001	0.0306180813058745	66	diastole	16	B	500	diastole
980.1236999999999	0.0306180813058745	66	diastole	17	B	500	diastole
983.0183	0.0818773506907746	67	diastole	1	B	500	systole
983.8048999999999	0.0818773506907746	67	diastole	2	B	500	systole
984.5748000000001	0.0818773506907746	67	diastole	3	B	500	systole
985.4629000000002	0.0818773506907746	67	diastole	4	B	500	systole
986.2428000000002	0.0818773506907746	67	diastole	5	B	500	systole
986.8898000000002	0.0818773506907746	67	diastole	6	B	500	systole
987.6611999999998	0.0818773506907746	67	diastole	7	B	500	systole
988.3911	0.0818773506907746	67	diastole	8	B	500	systole
989.1110999999999	0.0818773506907746	67	diastole	9	B	500	systole
989.8012000000001	0.0818773506907746	67	diastole	10	B	500	systole
990.4296000000002	0.0818773506907746	67	diastole	11	B	500	systole
991.1011000000001	0.0818773506907746	67	diastole	12	B	500	systole
991.7810999999999	0.0818773506907746	67	diastole	13	B	500	systole
995.0512000000001	0.0849945922382175	68	diastole	1	B	500	systole
995.7129000000002	0.0849945922382175	68	diastole	2	B	500	systole
996.4113	0.0849945922382175	68	diastole	3	B	500	systole
997.1213	0.0849945922382175	68	diastole	4	B	500	systole
997.8311999999999	0.0849945922382175	68	diastole	5	B	500	systole
998.5411999999999	0.0849945922382175	68	diastole	6	B	500	systole
999.2695999999999	0.0849945922382175	68	diastole	7	B	500	systole
999.8196999999998	0.0849945922382175	68	diastole	8	B	500	systole
1000.3698000000002	0.0849945922382175	68	diastole	9	B	500	systole
1001.0798000000002	0.0849945922382175	68	diastole	10	B	500	systole
1001.8163999999999	0.0849945922382175	68	diastole	11	B	500	systole
1002.5447999999999	0.0849945922382175	68	diastole	12	B	500	systole
1003.2713000000001	0.0849945922382175	68	diastole	13	B	500	systole
1006.3118999999999	0.0887642684974707	69	systole	1	B	500	systole
1007.1119999999999	0.0887642684974707	69	systole	2	B	500	systole
1007.8579000000002	0.0887642684974707	69	systole	3	B	500	systole
1008.5980000000002	0.0887642684974707	69	systole	4	B	500	systole
1009.3394999999998	0.0887642684974707	69	systole	5	B	500	systole
1010.0694999999998	0.0887642684974707	69	systole	6	B	500	systole
1010.7994999999999	0.0887642684974707	69	systole	7	B	500	systole
1011.5672000000002	0.0887642684974707	69	systole	8	B	500	systole
1012.3172999999999	0.0887642684974707	69	systole	9	B	500	systole
1013.0413999999998	0.0887642684974707	69	systole	10	B	500	systole
1013.7713999999999	0.0887642684974707	69	systole	11	B	500	systole
1014.5472000000002	0.0887642684974707	69	systole	12	B	500	systole
1015.3230999999998	0.0887642684974707	69	systole	13	B	500	systole
1018.2465	0.0893751129915472	70	systole	1	B	500	diastole
1018.5193999999999	0.0893751129915472	70	systole	2	B	500	diastole
1019.0211999999999	0.0893751129915472	70	systole	3	B	500	diastole
1019.6708999999998	0.0893751129915472	70	systole	4	B	500	diastole
1020.4109000000001	0.0893751129915472	70	systole	5	B	500	diastole
1021.2209	0.0893751129915472	70	systole	6	B	500	diastole
1021.961	0.0893751129915472	70	systole	7	B	500	diastole
1022.7108999999998	0.0893751129915472	70	systole	8	B	500	diastole
1023.5040000000001	0.0893751129915472	70	systole	9	B	500	diastole
1024.2717	0.0893751129915472	70	systole	10	B	500	diastole
1025.0274000000002	0.0893751129915472	70	systole	11	B	500	diastole
1025.7773	0.0893751129915472	70	systole	12	B	500	diastole
1026.5329	0.0893751129915472	70	systole	13	B	500	diastole
1027.2828000000002	0.0893751129915472	70	systole	14	B	500	diastole
1030.1827	0.0937437471584416	71	systole	1	B	500	systole
1030.9127	0.0937437471584416	71	systole	2	B	500	systole
1031.5910000000001	0.0937437471584416	71	systole	3	B	500	systole
1032.2439000000002	0.0937437471584416	71	systole	4	B	500	systole
1032.8882	0.0937437471584416	71	systole	5	B	500	systole
1033.5921	0.0937437471584416	71	systole	6	B	500	systole
1033.8718000000001	0.0937437471584416	71	systole	7	B	500	systole
1034.0017999999998	0.0937437471584416	71	systole	8	B	500	systole
1034.5312999999999	0.0937437471584416	71	systole	9	B	500	systole
1035.2312	0.0937437471584416	71	systole	10	B	500	systole
1035.9312000000002	0.0937437471584416	71	systole	11	B	500	systole
1036.6614000000002	0.0937437471584416	71	systole	12	B	500	systole
1037.3916000000002	0.0937437471584416	71	systole	13	B	500	systole
1038.1148999999998	0.0937437471584416	71	systole	14	B	500	systole
1038.8149	0.0937437471584416	71	systole	15	B	500	systole
1039.4750000000001	0.0937437471584416	71	systole	16	B	500	systole
1047.5791000000002	0.0200151871249545	72	systole	1	B	500	diastole
1048.1901	0.0200151871249545	72	systole	2	B	500	diastole
1048.8100000000002	0.0200151871249545	72	systole	3	B	500	diastole
1049.4298999999999	0.0200151871249545	72	systole	4	B	500	diastole
1050.0496999999998	0.0200151871249545	72	systole	5	B	500	diastole
1050.6696	0.0200151871249545	72	systole	6	B	500	diastole
1051.4554	0.0200151871249545	72	systole	7	B	500	diastole
1052.2353999999998	0.0200151871249545	72	systole	8	B	500	diastole
1052.664	0.0200151871249545	72	systole	9	B	500	diastole
1053.5829	0.0200151871249545	72	systole	10	B	500	diastole
1054.432	0.0200151871249545	72	systole	11	B	500	diastole
1055.182	0.0200151871249545	72	systole	12	B	500	diastole
1055.8938	0.0200151871249545	72	systole	13	B	500	diastole
1056.6254000000001	0.0200151871249545	72	systole	14	B	500	diastole
1057.3155	0.0200151871249545	72	systole	15	B	500	diastole
1058.0194	0.0200151871249545	72	systole	16	B	500	diastole
1066.0545	0.083745887473924	73	diastole	1	B	500	systole
1066.7346	0.083745887473924	73	diastole	2	B	500	systole
1067.4449000000002	0.083745887473924	73	diastole	3	B	500	systole
1068.155	0.083745887473924	73	diastole	4	B	500	systole
1068.8632	0.083745887473924	73	diastole	5	B	500	systole
1069.5999	0.083745887473924	73	diastole	6	B	500	systole
1070.3198	0.083745887473924	73	diastole	7	B	500	systole
1071.0465000000002	0.083745887473924	73	diastole	8	B	500	systole
1071.7747000000002	0.083745887473924	73	diastole	9	B	500	systole
1072.4946000000002	0.083745887473924	73	diastole	10	B	500	systole
1073.2430000000002	0.083745887473924	73	diastole	11	B	500	systole
1073.863	0.083745887473924	73	diastole	12	B	500	systole
1074.483	0.083745887473924	73	diastole	13	B	500	systole
1075.3214999999998	0.083745887473924	73	diastole	14	B	500	systole
1078.0442999999998	0.0668632260058075	74	diastole	1	B	500	diastole
1078.7542	0.0668632260058075	74	diastole	2	B	500	diastole
1078.979	0.0668632260058075	74	diastole	3	B	500	diastole
1079.3531999999998	0.0668632260058075	74	diastole	4	B	500	diastole
1079.8133	0.0668632260058075	74	diastole	5	B	500	diastole
1080.2967999999998	0.0668632260058075	74	diastole	6	B	500	diastole
1080.4765	0.0668632260058075	74	diastole	7	B	500	diastole
1080.5718	0.0668632260058075	74	diastole	8	B	500	diastole
1080.7315	0.0668632260058075	74	diastole	9	B	500	diastole
1081.0201	0.0668632260058075	74	diastole	10	B	500	diastole
1081.3999999999999	0.0668632260058075	74	diastole	11	B	500	diastole
1082.1766	0.0668632260058075	74	diastole	12	B	500	diastole
1082.5218000000002	0.0668632260058075	74	diastole	13	B	500	diastole
1082.9118	0.0668632260058075	74	diastole	14	B	500	diastole
1083.2218	0.0668632260058075	74	diastole	15	B	500	diastole
1083.5319000000002	0.0668632260058075	74	diastole	16	B	500	diastole
1083.9217	0.0668632260058075	74	diastole	17	B	500	diastole
1084.1399	0.0668632260058075	74	diastole	18	B	500	diastole
1084.309	0.0668632260058075	74	diastole	19	B	500	diastole
1084.4689999999998	0.0668632260058075	74	diastole	20	B	500	diastole
1085.1105	0.0668632260058075	74	diastole	21	B	500	diastole
1085.3601999999998	0.0668632260058075	74	diastole	22	B	500	diastole
1085.5265000000002	0.0668632260058075	74	diastole	23	B	500	diastole
1085.6941	0.0668632260058075	74	diastole	24	B	500	diastole
1085.8464000000001	0.0668632260058075	74	diastole	25	B	500	diastole
1086.0004000000001	0.0668632260058075	74	diastole	26	B	500	diastole
1086.1803000000002	0.0668632260058075	74	diastole	27	B	500	diastole
1086.4802000000002	0.0668632260058075	74	diastole	28	B	500	diastole
1086.6384999999998	0.0668632260058075	74	diastole	29	B	500	diastole
1086.7713999999999	0.0668632260058075	74	diastole	30	B	500	diastole
1086.892	0.0668632260058075	74	diastole	31	B	500	diastole
1087.332	0.0668632260058075	74	diastole	32	B	500	diastole
1089.1652000000001	0.0318627512897364	75	systole	1	B	500	diastole
1089.5451	0.0318627512897364	75	systole	2	B	500	diastole
1090.2645	0.0318627512897364	75	systole	3	B	500	diastole
1090.8848	0.0318627512897364	75	systole	4	B	500	diastole
1091.2638	0.0318627512897364	75	systole	5	B	500	diastole
1091.9536	0.0318627512897364	75	systole	6	B	500	diastole
1092.6434000000002	0.0318627512897364	75	systole	7	B	500	diastole
1093.3259999999998	0.0318627512897364	75	systole	8	B	500	diastole
1093.8633000000002	0.0318627512897364	75	systole	9	B	500	diastole
1094.4986000000001	0.0318627512897364	75	systole	10	B	500	diastole
1095.0287999999998	0.0318627512897364	75	systole	11	B	500	diastole
1095.559	0.0318627512897364	75	systole	12	B	500	diastole
1095.7115000000001	0.0318627512897364	75	systole	13	B	500	diastole
1096.3815000000002	0.0318627512897364	75	systole	14	B	500	diastole
1097.0744000000002	0.0318627512897364	75	systole	15	B	500	diastole
1097.4923999999999	0.0318627512897364	75	systole	16	B	500	diastole
1098.3709000000001	0.0318627512897364	75	systole	17	B	500	diastole
1099.0510000000002	0.0318627512897364	75	systole	18	B	500	diastole
1105.5384000000001	0.0499910443613771	76	systole	1	B	500	diastole
1105.7482000000002	0.0499910443613771	76	systole	2	B	500	diastole
1105.9579999999999	0.0499910443613771	76	systole	3	B	500	diastole
1106.1678	0.0499910443613771	76	systole	4	B	500	diastole
1107.1168	0.0499910443613771	76	systole	5	B	500	diastole
1107.8866999999998	0.0499910443613771	76	systole	6	B	500	diastole
1108.6566	0.0499910443613771	76	systole	7	B	500	diastole
1108.8363000000002	0.0499910443613771	76	systole	8	B	500	diastole
1109.3520999999998	0.0499910443613771	76	systole	9	B	500	diastole
1110.1528999999998	0.0499910443613771	76	systole	10	B	500	diastole
1110.8538999999998	0.0499910443613771	76	systole	11	B	500	diastole
1111.4439	0.0499910443613771	76	systole	12	B	500	diastole
1111.6162000000002	0.0499910443613771	76	systole	13	B	500	diastole
1111.7762	0.0499910443613771	76	systole	14	B	500	diastole
1112.434	0.0499910443613771	76	systole	15	B	500	diastole
1113.144	0.0499910443613771	76	systole	16	B	500	diastole
1114.0631	0.0499910443613771	76	systole	17	B	500	diastole
1114.9106	0.0499910443613771	76	systole	18	B	500	diastole
1115.6706000000001	0.0499910443613771	76	systole	19	B	500	diastole
1121.7294	0.0343904624751303	77	diastole	1	B	500	diastole
1122.0694	0.0343904624751303	77	diastole	2	B	500	diastole
1122.4093	0.0343904624751303	77	diastole	3	B	500	diastole
1123.1794000000002	0.0343904624751303	77	diastole	4	B	500	diastole
1123.9495	0.0343904624751303	77	diastole	5	B	500	diastole
1124.5494999999999	0.0343904624751303	77	diastole	6	B	500	diastole
1124.7194000000002	0.0343904624751303	77	diastole	7	B	500	diastole
1125.6061000000002	0.0343904624751303	77	diastole	8	B	500	diastole
1125.8996	0.0343904624751303	77	diastole	9	B	500	diastole
1126.0597	0.0343904624751303	77	diastole	10	B	500	diastole
1126.8453000000002	0.0343904624751303	77	diastole	11	B	500	diastole
1127.7250999999999	0.0343904624751303	77	diastole	12	B	500	diastole
1128.4550000000002	0.0343904624751303	77	diastole	13	B	500	diastole
1129.34	0.0343904624751303	77	diastole	14	B	500	diastole
1130.1800999999998	0.0343904624751303	77	diastole	15	B	500	diastole
1130.8502999999998	0.0343904624751303	77	diastole	16	B	500	diastole
1131.0711	0.0343904624751303	77	diastole	17	B	500	diastole
1131.8263	0.0343904624751303	77	diastole	18	B	500	diastole
1135.0078	0.0881136624957434	78	diastole	1	B	500	systole
1135.6175	0.0881136624957434	78	diastole	2	B	500	systole
1135.8785999999998	0.0881136624957434	78	diastole	3	B	500	systole
1136.3868	0.0881136624957434	78	diastole	4	B	500	systole
1137.1359	0.0881136624957434	78	diastole	5	B	500	systole
1137.8358	0.0881136624957434	78	diastole	6	B	500	systole
1138.5276000000001	0.0881136624957434	78	diastole	7	B	500	systole
1139.309	0.0881136624957434	78	diastole	8	B	500	systole
1140.0559	0.0881136624957434	78	diastole	9	B	500	systole
1140.7279999999998	0.0881136624957434	78	diastole	10	B	500	systole
1141.4779999999998	0.0881136624957434	78	diastole	11	B	500	systole
1142.2279999999998	0.0881136624957434	78	diastole	12	B	500	systole
1142.9449000000002	0.0881136624957434	78	diastole	13	B	500	systole
1143.6449	0.0881136624957434	78	diastole	14	B	500	systole
1146.0928999999999	0.0875067850283812	79	systole	1	B	500	diastole
1146.7729000000002	0.0875067850283812	79	systole	2	B	500	diastole
1147.4529	0.0875067850283812	79	systole	3	B	500	diastole
1148.1112	0.0875067850283812	79	systole	4	B	500	diastole
1148.4013000000002	0.0875067850283812	79	systole	5	B	500	diastole
1148.7553999999998	0.0875067850283812	79	systole	6	B	500	diastole
1149.4198	0.0875067850283812	79	systole	7	B	500	diastole
1150.0995999999998	0.0875067850283812	79	systole	8	B	500	diastole
1150.3609	0.0875067850283812	79	systole	9	B	500	diastole
1150.6879999999999	0.0875067850283812	79	systole	10	B	500	diastole
1151.3797000000002	0.0875067850283812	79	systole	11	B	500	diastole
1152.0496999999998	0.0875067850283812	79	systole	12	B	500	diastole
1152.7198	0.0875067850283812	79	systole	13	B	500	diastole
1153.3582	0.0875067850283812	79	systole	14	B	500	diastole
1153.6683	0.0875067850283812	79	systole	15	B	500	diastole
1153.9284	0.0875067850283812	79	systole	16	B	500	diastole
1154.6124000000002	0.0875067850283812	79	systole	17	B	500	diastole
1155.2122000000002	0.0875067850283812	79	systole	18	B	500	diastole
1158.2123	0.059368593909312	80	diastole	1	B	500	systole
1158.9261	0.059368593909312	80	diastole	2	B	500	systole
1159.6063000000001	0.059368593909312	80	diastole	3	B	500	systole
1160.1462	0.059368593909312	80	diastole	4	B	500	systole
1160.4260000000002	0.059368593909312	80	diastole	5	B	500	systole
1160.7378	0.059368593909312	80	diastole	6	B	500	systole
1161.4159000000002	0.059368593909312	80	diastole	7	B	500	systole
1162.1128999999999	0.059368593909312	80	diastole	8	B	500	systole
1162.7814	0.059368593909312	80	diastole	9	B	500	systole
1163.4415999999999	0.059368593909312	80	diastole	10	B	500	systole
1164.0995999999998	0.059368593909312	80	diastole	11	B	500	systole
1164.7495999999999	0.059368593909312	80	diastole	12	B	500	systole
1165.3995000000002	0.059368593909312	80	diastole	13	B	500	systole
1165.6283	0.059368593909312	80	diastole	14	B	500	systole
1166.2094	0.059368593909312	80	diastole	15	B	500	systole
1166.9394	0.059368593909312	80	diastole	16	B	500	systole
1169.9578	0.0825009964755736	81	diastole	1	B	500	diastole
1170.6829	0.0825009964755736	81	diastole	2	B	500	diastole
1171.3832	0.0825009964755736	81	diastole	3	B	500	diastole
1172.0833	0.0825009964755736	81	diastole	4	B	500	diastole
1172.6833	0.0825009964755736	81	diastole	5	B	500	diastole
1172.9482999999998	0.0825009964755736	81	diastole	6	B	500	diastole
1173.4832	0.0825009964755736	81	diastole	7	B	500	diastole
1174.2132	0.0825009964755736	81	diastole	8	B	500	diastole
1174.8349	0.0825009964755736	81	diastole	9	B	500	diastole
1175.4649000000002	0.0825009964755736	81	diastole	10	B	500	diastole
1176.0694999999998	0.0825009964755736	81	diastole	11	B	500	diastole
1176.7495000000001	0.0825009964755736	81	diastole	12	B	500	diastole
1177.4995000000001	0.0825009964755736	81	diastole	13	B	500	diastole
1178.2495000000001	0.0825009964755736	81	diastole	14	B	500	diastole
1178.9925999999998	0.0825009964755736	81	diastole	15	B	500	diastole
1181.4961999999998	0.0855245425191242	82	systole	1	B	500	diastole
1182.1461000000002	0.0855245425191242	82	systole	2	B	500	diastole
1182.7960999999998	0.0855245425191242	82	systole	3	B	500	diastole
1183.4336999999998	0.0855245425191242	82	systole	4	B	500	diastole
1184.0937000000001	0.0855245425191242	82	systole	5	B	500	diastole
1184.7378999999999	0.0855245425191242	82	systole	6	B	500	diastole
1185.4179000000001	0.0855245425191242	82	systole	7	B	500	diastole
1186.068	0.0855245425191242	82	systole	8	B	500	diastole
1186.7178999999999	0.0855245425191242	82	systole	9	B	500	diastole
1187.3421	0.0855245425191242	82	systole	10	B	500	diastole
1187.9721000000002	0.0855245425191242	82	systole	11	B	500	diastole
1188.6020999999998	0.0855245425191242	82	systole	12	B	500	diastole
1189.2263	0.0855245425191242	82	systole	13	B	500	diastole
1189.8563000000001	0.0855245425191242	82	systole	14	B	500	diastole
1190.5062	0.0855245425191242	82	systole	15	B	500	diastole
1202.2213	0.069998393766582	83	systole	1	B	500	systole
1202.4381	0.069998393766582	83	systole	2	B	500	systole
1203.2972000000002	0.069998393766582	83	systole	3	B	500	systole
1204.1672999999998	0.069998393766582	83	systole	4	B	500	systole
1205.0375000000001	0.069998393766582	83	systole	5	B	500	systole
1205.8835000000001	0.069998393766582	83	systole	6	B	500	systole
1206.7239000000002	0.069998393766582	83	systole	7	B	500	systole
1207.7160999999999	0.069998393766582	83	systole	8	B	500	systole
1208.7126	0.069998393766582	83	systole	9	B	500	systole
1209.5918	0.069998393766582	83	systole	10	B	500	systole
1210.4424000000001	0.069998393766582	83	systole	11	B	500	systole
1211.2927000000002	0.069998393766582	83	systole	12	B	500	systole
1213.89	0.1069302404648624	84	systole	1	B	500	diastole
1214.2155	0.1069302404648624	84	systole	2	B	500	diastole
1214.6697000000001	0.1069302404648624	84	systole	3	B	500	diastole
1215.3879	0.1069302404648624	84	systole	4	B	500	diastole
1215.9979	0.1069302404648624	84	systole	5	B	500	diastole
1216.6778000000002	0.1069302404648624	84	systole	6	B	500	diastole
1217.2706999999998	0.1069302404648624	84	systole	7	B	500	diastole
1217.9846	0.1069302404648624	84	systole	8	B	500	diastole
1218.7045	0.1069302404648624	84	systole	9	B	500	diastole
1219.4644	0.1069302404648624	84	systole	10	B	500	diastole
1220.2243	0.1069302404648624	84	systole	11	B	500	diastole
1220.9777000000001	0.1069302404648624	84	systole	12	B	500	diastole
1221.7335999999998	0.1069302404648624	84	systole	13	B	500	diastole
1222.4835	0.1069302404648624	84	systole	14	B	500	diastole
1223.1679000000001	0.1069302404648624	84	systole	15	B	500	diastole
1227.9824999999998	0.0787296849593985	85	systole	1	B	500	systole
1228.6324000000002	0.0787296849593985	85	systole	2	B	500	systole
1229.2823999999998	0.0787296849593985	85	systole	3	B	500	systole
1229.9423	0.0787296849593985	85	systole	4	B	500	systole
1230.6022	0.0787296849593985	85	systole	5	B	500	systole
1231.2882000000002	0.0787296849593985	85	systole	6	B	500	systole
1231.8981999999999	0.0787296849593985	85	systole	7	B	500	systole
1232.5481000000002	0.0787296849593985	85	systole	8	B	500	systole
1233.198	0.0787296849593985	85	systole	9	B	500	systole
1233.8852	0.0787296849593985	85	systole	10	B	500	systole
1234.5550999999998	0.0787296849593985	85	systole	11	B	500	systole
1235.1852000000001	0.0787296849593985	85	systole	12	B	500	systole
1235.8252	0.0787296849593985	85	systole	13	B	500	systole
1236.4754	0.0787296849593985	85	systole	14	B	500	systole
1237.1553999999999	0.0787296849593985	85	systole	15	B	500	systole
1239.6429999999998	0.0806318312243092	86	diastole	1	B	500	diastole
1239.8902999999998	0.0806318312243092	86	diastole	2	B	500	diastole
1240.4046999999998	0.0806318312243092	86	diastole	3	B	500	diastole
1241.1209000000001	0.0806318312243092	86	diastole	4	B	500	diastole
1241.8309000000002	0.0806318312243092	86	diastole	5	B	500	diastole
1242.3714000000002	0.0806318312243092	86	diastole	6	B	500	diastole
1242.9615000000001	0.0806318312243092	86	diastole	7	B	500	diastole
1243.2027	0.0806318312243092	86	diastole	8	B	500	diastole
1243.7812999999999	0.0806318312243092	86	diastole	9	B	500	diastole
1244.5047000000002	0.0806318312243092	86	diastole	10	B	500	diastole
1245.2747000000002	0.0806318312243092	86	diastole	11	B	500	diastole
1245.9948000000002	0.0806318312243092	86	diastole	12	B	500	diastole
1246.7148	0.0806318312243092	86	diastole	13	B	500	diastole
1247.4080999999999	0.0806318312243092	86	diastole	14	B	500	diastole
1248.0613	0.0806318312243092	86	diastole	15	B	500	diastole
1248.733	0.0806318312243092	86	diastole	16	B	500	diastole
1258.0575000000001	0.0274949691665824	87	diastole	1	B	500	diastole
1258.7176000000002	0.0274949691665824	87	diastole	2	B	500	diastole
1259.3776	0.0274949691665824	87	diastole	3	B	500	diastole
1259.5473	0.0274949691665824	87	diastole	4	B	500	diastole
1259.7276	0.0274949691665824	87	diastole	5	B	500	diastole
1260.0975	0.0274949691665824	87	diastole	6	B	500	diastole
1260.8525000000002	0.0274949691665824	87	diastole	7	B	500	diastole
1261.6325	0.0274949691665824	87	diastole	8	B	500	diastole
1262.2623999999998	0.0274949691665824	87	diastole	9	B	500	diastole
1263.0876999999998	0.0274949691665824	87	diastole	10	B	500	diastole
1263.9156999999998	0.0274949691665824	87	diastole	11	B	500	diastole
1264.6474	0.0274949691665824	87	diastole	12	B	500	diastole
1265.3342	0.0274949691665824	87	diastole	13	B	500	diastole
1266.0042	0.0274949691665824	87	diastole	14	B	500	diastole
1266.6741	0.0274949691665824	87	diastole	15	B	500	diastole
1267.2754000000002	0.0274949691665824	87	diastole	16	B	500	diastole
1267.9351	0.0274949691665824	87	diastole	17	B	500	diastole
1270.5188	0.0781089438241906	88	systole	1	B	500	systole
1270.7474	0.0781089438241906	88	systole	2	B	500	systole
1271.1689	0.0781089438241906	88	systole	3	B	500	systole
1271.3974	0.0781089438241906	88	systole	4	B	500	systole
1271.9988	0.0781089438241906	88	systole	5	B	500	systole
1272.6589000000001	0.0781089438241906	88	systole	6	B	500	systole
1273.3086999999998	0.0781089438241906	88	systole	7	B	500	systole
1273.9687000000001	0.0781089438241906	88	systole	8	B	500	systole
1274.671	0.0781089438241906	88	systole	9	B	500	systole
1275.376	0.0781089438241906	88	systole	10	B	500	systole
1276.052	0.0781089438241906	88	systole	11	B	500	systole
1276.7221000000002	0.0781089438241906	88	systole	12	B	500	systole
1277.3621	0.0781089438241906	88	systole	13	B	500	systole
1278.0121000000001	0.0781089438241906	88	systole	14	B	500	systole
1278.6779	0.0781089438241906	88	systole	15	B	500	systole
1279.3679	0.0781089438241906	88	systole	16	B	500	systole
1280.0537000000002	0.0781089438241906	88	systole	17	B	500	systole
1282.5559	0.0806299062387552	89	systole	1	B	500	diastole
1283.2317	0.0806299062387552	89	systole	2	B	500	diastole
1283.7503	0.0806299062387552	89	systole	3	B	500	diastole
1283.9997999999998	0.0806299062387552	89	systole	4	B	500	diastole
1284.1247999999998	0.0806299062387552	89	systole	5	B	500	diastole
1284.6184999999998	0.0806299062387552	89	systole	6	B	500	diastole
1285.2684000000002	0.0806299062387552	89	systole	7	B	500	diastole
1285.9183	0.0806299062387552	89	systole	8	B	500	diastole
1286.5681000000002	0.0806299062387552	89	systole	9	B	500	diastole
1287.2450999999999	0.0806299062387552	89	systole	10	B	500	diastole
1287.8655999999999	0.0806299062387552	89	systole	11	B	500	diastole
1288.486	0.0806299062387552	89	systole	12	B	500	diastole
1289.0788	0.0806299062387552	89	systole	13	B	500	diastole
1289.6775	0.0806299062387552	89	systole	14	B	500	diastole
1290.2769999999998	0.0806299062387552	89	systole	15	B	500	diastole
1290.8071000000002	0.0806299062387552	89	systole	16	B	500	diastole
1291.0473	0.0806299062387552	89	systole	17	B	500	diastole
1291.5611999999999	0.0806299062387552	89	systole	18	B	500	diastole
1292.1055	0.0806299062387552	89	systole	19	B	500	diastole
1307.2077000000002	0.0562520000094082	90	diastole	1	B	500	systole
1307.8077999999998	0.0562520000094082	90	diastole	2	B	500	systole
1308.4644999999998	0.0562520000094082	90	diastole	3	B	500	systole
1309.1308999999999	0.0562520000094082	90	diastole	4	B	500	systole
1309.7978	0.0562520000094082	90	diastole	5	B	500	systole
1310.4477	0.0562520000094082	90	diastole	6	B	500	systole
1311.0927	0.0562520000094082	90	diastole	7	B	500	systole
1311.7128	0.0562520000094082	90	diastole	8	B	500	systole
1312.3628999999999	0.0562520000094082	90	diastole	9	B	500	systole
1312.9228	0.0562520000094082	90	diastole	10	B	500	systole
1313.4826999999998	0.0562520000094082	90	diastole	11	B	500	systole
1313.7070999999999	0.0562520000094082	90	diastole	12	B	500	systole
1314.2827	0.0562520000094082	90	diastole	13	B	500	systole
1314.9144	0.0562520000094082	90	diastole	14	B	500	systole
1315.5546000000002	0.0562520000094082	90	diastole	15	B	500	systole
1316.1843000000001	0.0562520000094082	90	diastole	16	B	500	systole
1318.7645	0.0800083937647286	91	systole	1	B	500	systole
1319.4545999999998	0.0800083937647286	91	systole	2	B	500	systole
1320.1004	0.0800083937647286	91	systole	3	B	500	systole
1320.8295	0.0800083937647286	91	systole	4	B	500	systole
1321.4395000000002	0.0800083937647286	91	systole	5	B	500	systole
1322.0496	0.0800083937647286	91	systole	6	B	500	systole
1322.3046000000002	0.0800083937647286	91	systole	7	B	500	systole
1322.8462000000002	0.0800083937647286	91	systole	8	B	500	systole
1323.5152	0.0800083937647286	91	systole	9	B	500	systole
1324.1552	0.0800083937647286	91	systole	10	B	500	systole
1324.9012	0.0800083937647286	91	systole	11	B	500	systole
1325.6414000000002	0.0800083937647286	91	systole	12	B	500	systole
1326.1665	0.0800083937647286	91	systole	13	B	500	systole
1326.4170000000001	0.0800083937647286	91	systole	14	B	500	systole
1326.9806	0.0800083937647286	91	systole	15	B	500	systole
1327.6737999999998	0.0800083937647286	91	systole	16	B	500	systole
1335.6558000000002	0.0287543250015005	92	systole	1	B	500	diastole
1336.2358000000002	0.0287543250015005	92	systole	2	B	500	diastole
1336.8158	0.0287543250015005	92	systole	3	B	500	diastole
1337.456	0.0287543250015005	92	systole	4	B	500	diastole
1338.1359	0.0287543250015005	92	systole	5	B	500	diastole
1338.8158	0.0287543250015005	92	systole	6	B	500	diastole
1339.6604	0.0287543250015005	92	systole	7	B	500	diastole
1340.6454	0.0287543250015005	92	systole	8	B	500	diastole
1341.4006000000002	0.0287543250015005	92	systole	9	B	500	diastole
1342.0685	0.0287543250015005	92	systole	10	B	500	diastole
1342.7306	0.0287543250015005	92	systole	11	B	500	diastole
1343.4752	0.0287543250015005	92	systole	12	B	500	diastole
1344.2034999999998	0.0287543250015005	92	systole	13	B	500	diastole
1344.9309999999998	0.0287543250015005	92	systole	14	B	500	diastole
1345.6409999999998	0.0287543250015005	92	systole	15	B	500	diastole
1348.2793	0.0856241937435697	93	diastole	1	B	500	diastole
1348.9192999999998	0.0856241937435697	93	diastole	2	B	500	diastole
1349.6543	0.0856241937435697	93	diastole	3	B	500	diastole
1350.3644000000002	0.0856241937435697	93	diastole	4	B	500	diastole
1350.9413000000002	0.0856241937435697	93	diastole	5	B	500	diastole
1351.6593999999998	0.0856241937435697	93	diastole	6	B	500	diastole
1352.4190999999998	0.0856241937435697	93	diastole	7	B	500	diastole
1353.151	0.0856241937435697	93	diastole	8	B	500	diastole
1353.9042000000002	0.0856241937435697	93	diastole	9	B	500	diastole
1354.6241000000002	0.0856241937435697	93	diastole	10	B	500	diastole
1355.3441	0.0856241937435697	93	diastole	11	B	500	diastole
1355.6118	0.0856241937435697	93	diastole	12	B	500	diastole
1356.1689	0.0856241937435697	93	diastole	13	B	500	diastole
1356.8489000000002	0.0856241937435697	93	diastole	14	B	500	diastole
1357.6270000000002	0.0856241937435697	93	diastole	15	B	500	diastole
1370.4075	0.0224808750208467	94	systole	1	B	500	diastole
1371.1074999999998	0.0224808750208467	94	systole	2	B	500	diastole
1371.8074	0.0224808750208467	94	systole	3	B	500	diastole
1372.6567000000002	0.0224808750208467	94	systole	4	B	500	diastole
1373.4067000000002	0.0224808750208467	94	systole	5	B	500	diastole
1374.6142000000002	0.0224808750208467	94	systole	6	B	500	diastole
1375.3841	0.0224808750208467	94	systole	7	B	500	diastole
1376.0593999999999	0.0224808750208467	94	systole	8	B	500	diastole
1376.2566	0.0224808750208467	94	systole	9	B	500	diastole
1376.9169	0.0224808750208467	94	systole	10	B	500	diastole
1377.5865000000001	0.0224808750208467	94	systole	11	B	500	diastole
1378.2483	0.0224808750208467	94	systole	12	B	500	diastole
1378.9102	0.0224808750208467	94	systole	13	B	500	diastole
1379.5309	0.0224808750208467	94	systole	14	B	500	diastole
1380.0961	0.0224808750208467	94	systole	15	B	500	diastole
1382.6831	0.0819985692505724	95	systole	1	B	500	diastole
1383.3263	0.0819985692505724	95	systole	2	B	500	diastole
1383.9922	0.0819985692505724	95	systole	3	B	500	diastole
1384.682	0.0819985692505724	95	systole	4	B	500	diastole
1385.3718000000001	0.0819985692505724	95	systole	5	B	500	diastole
1386.0831999999998	0.0819985692505724	95	systole	6	B	500	diastole
1386.6319999999998	0.0819985692505724	95	systole	7	B	500	diastole
1387.2721	0.0819985692505724	95	systole	8	B	500	diastole
1387.9120999999998	0.0819985692505724	95	systole	9	B	500	diastole
1388.6119999999999	0.0819985692505724	95	systole	10	B	500	diastole
1389.1121999999998	0.0819985692505724	95	systole	11	B	500	diastole
1389.3641	0.0819985692505724	95	systole	12	B	500	diastole
1389.5516	0.0819985692505724	95	systole	13	B	500	diastole
1390.0766999999998	0.0819985692505724	95	systole	14	B	500	diastole
1390.2991	0.0819985692505724	95	systole	15	B	500	diastole
1390.8621999999998	0.0819985692505724	95	systole	16	B	500	diastole
1391.552	0.0819985692505724	95	systole	17	B	500	diastole
1392.2416999999998	0.0819985692505724	95	systole	18	B	500	diastole
1403.0287999999998	0.0209784558974206	96	diastole	1	B	500	diastole
1403.5089	0.0209784558974206	96	diastole	2	B	500	diastole
1403.6689	0.0209784558974206	96	diastole	3	B	500	diastole
1403.829	0.0209784558974206	96	diastole	4	B	500	diastole
1404.6011	0.0209784558974206	96	diastole	5	B	500	diastole
1405.3709999999999	0.0209784558974206	96	diastole	6	B	500	diastole
1406.151	0.0209784558974206	96	diastole	7	B	500	diastole
1406.9309	0.0209784558974206	96	diastole	8	B	500	diastole
1407.5415	0.0209784558974206	96	diastole	9	B	500	diastole
1408.1143	0.0209784558974206	96	diastole	10	B	500	diastole
1408.9593000000002	0.0209784558974206	96	diastole	11	B	500	diastole
1409.9383999999998	0.0209784558974206	96	diastole	12	B	500	diastole
1410.6926999999998	0.0209784558974206	96	diastole	13	B	500	diastole
1411.5096	0.0209784558974206	96	diastole	14	B	500	diastole
1411.9115	0.0209784558974206	96	diastole	15	B	500	diastole
1412.3716000000002	0.0209784558974206	96	diastole	16	B	500	diastole
1412.5788	0.0209784558974206	96	diastole	17	B	500	diastole
1413.104	0.0209784558974206	96	diastole	18	B	500	diastole
1421.1092	0.0406313501880504	97	diastole	1	B	500	systole
1421.7612000000001	0.0406313501880504	97	diastole	2	B	500	systole
1422.6850000000002	0.0406313501880504	97	diastole	3	B	500	systole
1423.3851000000002	0.0406313501880504	97	diastole	4	B	500	systole
1424.0355000000002	0.0406313501880504	97	diastole	5	B	500	systole
1424.7335	0.0406313501880504	97	diastole	6	B	500	systole
1425.4134000000001	0.0406313501880504	97	diastole	7	B	500	systole
1425.9574	0.0406313501880504	97	diastole	8	B	500	systole
1426.6251	0.0406313501880504	97	diastole	9	B	500	systole
1427.285	0.0406313501880504	97	diastole	10	B	500	systole
1427.925	0.0406313501880504	97	diastole	11	B	500	systole
1428.6197	0.0406313501880504	97	diastole	12	B	500	systole
1429.3196999999998	0.0406313501880504	97	diastole	13	B	500	systole
1429.9995999999999	0.0406313501880504	97	diastole	14	B	500	systole
1430.7162999999998	0.0406313501880504	97	diastole	15	B	500	systole
1433.0195999999999	0.0856171899940818	98	diastole	1	B	500	diastole
1433.2838	0.0856171899940818	98	diastole	2	B	500	diastole
1433.8191	0.0856171899940818	98	diastole	3	B	500	diastole
1434.396	0.0856171899940818	98	diastole	4	B	500	diastole
1435.0062	0.0856171899940818	98	diastole	5	B	500	diastole
1435.2613	0.0856171899940818	98	diastole	6	B	500	diastole
1435.8473000000001	0.0856171899940818	98	diastole	7	B	500	diastole
1436.5273	0.0856171899940818	98	diastole	8	B	500	diastole
1437.2072999999998	0.0856171899940818	98	diastole	9	B	500	diastole
1437.9093999999998	0.0856171899940818	98	diastole	10	B	500	diastole
1438.6195	0.0856171899940818	98	diastole	11	B	500	diastole
1439.3565999999998	0.0856171899940818	98	diastole	12	B	500	diastole
1440.0449999999998	0.0856171899940818	98	diastole	13	B	500	diastole
1440.7333999999998	0.0856171899940818	98	diastole	14	B	500	diastole
1441.3158999999998	0.0856171899940818	98	diastole	15	B	500	diastole
1441.5788	0.0856171899940818	98	diastole	16	B	500	diastole
1441.7387999999999	0.0856171899940818	98	diastole	17	B	500	diastole
1442.3173	0.0856171899940818	98	diastole	18	B	500	diastole
1444.3281	0.0718406501691788	99	systole	1	B	500	diastole
1444.9777000000001	0.0718406501691788	99	systole	2	B	500	diastole
1445.7344999999998	0.0718406501691788	99	systole	3	B	500	diastole
1446.4037999999998	0.0718406501691788	99	systole	4	B	500	diastole
1447.0599	0.0718406501691788	99	systole	5	B	500	diastole
1447.7104000000002	0.0718406501691788	99	systole	6	B	500	diastole
1448.2701	0.0718406501691788	99	systole	7	B	500	diastole
1448.5087	0.0718406501691788	99	systole	8	B	500	diastole
1449.0745	0.0718406501691788	99	systole	9	B	500	diastole
1449.7449	0.0718406501691788	99	systole	10	B	500	diastole
1450.4105000000002	0.0718406501691788	99	systole	11	B	500	diastole
1451.1463	0.0718406501691788	99	systole	12	B	500	diastole
1451.872	0.0718406501691788	99	systole	13	B	500	diastole
1452.5624	0.0718406501691788	99	systole	14	B	500	diastole
1453.2643999999998	0.0718406501691788	99	systole	15	B	500	diastole
1453.9548000000002	0.0718406501691788	99	systole	16	B	500	diastole
1457.4617999999998	0.0818490874953568	100	systole	1	B	500	systole
1458.1175	0.0818490874953568	100	systole	2	B	500	systole
1458.7674	0.0818490874953568	100	systole	3	B	500	systole
1459.3102000000001	0.0818490874953568	100	systole	4	B	500	systole
1459.8700999999999	0.0818490874953568	100	systole	5	B	500	systole
1460.5257	0.0818490874953568	100	systole	6	B	500	systole
1461.2873000000002	0.0818490874953568	100	systole	7	B	500	systole
1462.1054000000001	0.0818490874953568	100	systole	8	B	500	systole
1462.7892	0.0818490874953568	100	systole	9	B	500	systole
1463.5206999999998	0.0818490874953568	100	systole	10	B	500	systole
1464.2522000000001	0.0818490874953568	100	systole	11	B	500	systole
1464.9835999999998	0.0818490874953568	100	systole	12	B	500	systole
1465.8088	0.0818490874953568	100	systole	13	B	500	systole
1466.5873	0.0818490874953568	100	systole	14	B	500	systole
1467.4032	0.0818490874953568	100	systole	15	B	500	systole
