onset	duration	trial_num	trial_type	tone_num	tone_type	frequency	response
230.252	0.0793825249711517	1	diastole	1	A	1578.5670027440333	coherent
230.411	0.0793825249711517	1	diastole	2	B	500.0	coherent
230.5696	0.0793825249711517	1	diastole	3	A	1578.5670027440333	coherent
230.892	0.0793825249711517	1	diastole	4	A	1578.5670027440333	coherent
231.0509	0.0793825249711517	1	diastole	5	B	500.0	coherent
231.2095	0.0793825249711517	1	diastole	6	A	1578.5670027440333	coherent
231.592	0.0793825249711517	1	diastole	7	A	1578.5670027440333	coherent
231.751	0.0793825249711517	1	diastole	8	B	500.0	coherent
231.9095	0.0793825249711517	1	diastole	9	A	1578.5670027440333	coherent
232.2792	0.0793825249711517	1	diastole	10	A	1578.5670027440333	coherent
232.4394	0.0793825249711517	1	diastole	11	B	500.0	coherent
232.5993	0.0793825249711517	1	diastole	12	A	1578.5670027440333	coherent
232.9592	0.0793825249711517	1	diastole	13	A	1578.5670027440333	coherent
233.1194	0.0793825249711517	1	diastole	14	B	500.0	coherent
233.2792	0.0793825249711517	1	diastole	15	A	1578.5670027440333	coherent
233.6704	0.0793825249711517	1	diastole	16	A	1578.5670027440333	coherent
233.8343	0.0793825249711517	1	diastole	17	B	500.0	coherent
233.9979	0.0793825249711517	1	diastole	18	A	1578.5670027440333	coherent
234.3716	0.0793825249711517	1	diastole	19	A	1578.5670027440333	coherent
234.5393	0.0793825249711517	1	diastole	20	B	500.0	coherent
234.7066	0.0793825249711517	1	diastole	21	A	1578.5670027440333	coherent
235.0115	0.0793825249711517	1	diastole	22	A	1578.5670027440333	coherent
235.1792	0.0793825249711517	1	diastole	23	B	500.0	coherent
235.3465	0.0793825249711517	1	diastole	24	A	1578.5670027440333	coherent
235.6515	0.0793825249711517	1	diastole	25	A	1578.5670027440333	coherent
235.8191	0.0793825249711517	1	diastole	26	B	500.0	coherent
235.9865	0.0793825249711517	1	diastole	27	A	1578.5670027440333	coherent
236.2815	0.0793825249711517	1	diastole	28	A	1578.5670027440333	coherent
236.4492	0.0793825249711517	1	diastole	29	B	500.0	coherent
236.6165	0.0793825249711517	1	diastole	30	A	1578.5670027440333	coherent
236.9758	0.0793825249711517	1	diastole	31	A	1578.5670027440333	coherent
237.146	0.0793825249711517	1	diastole	32	B	500.0	coherent
237.3158	0.0793825249711517	1	diastole	33	A	1578.5670027440333	coherent
237.6559	0.0793825249711517	1	diastole	34	A	1578.5670027440333	coherent
237.8261	0.0793825249711517	1	diastole	35	B	500.0	coherent
237.9959	0.0793825249711517	1	diastole	36	A	1578.5670027440333	coherent
238.3559	0.0793825249711517	1	diastole	37	A	1578.5670027440333	coherent
238.5261	0.0793825249711517	1	diastole	38	B	500.0	coherent
238.6959	0.0793825249711517	1	diastole	39	A	1578.5670027440333	coherent
238.9988	0.0793825249711517	1	diastole	40	A	1578.5670027440333	coherent
239.1676	0.0793825249711517	1	diastole	41	B	500.0	coherent
239.3362	0.0793825249711517	1	diastole	42	A	1578.5670027440333	coherent
247.0366	0.0768797291384544	2	systole	1	A	1578.5670027440333	coherent
247.1905	0.0768797291384544	2	systole	2	B	500.0	coherent
247.3441	0.0768797291384544	2	systole	3	A	1578.5670027440333	coherent
247.6316	0.0768797291384544	2	systole	4	A	1578.5670027440333	coherent
247.7843	0.0768797291384544	2	systole	5	B	500.0	coherent
247.9366	0.0768797291384544	2	systole	6	A	1578.5670027440333	coherent
248.2313	0.0768797291384544	2	systole	7	A	1578.5670027440333	coherent
248.3839	0.0768797291384544	2	systole	8	B	500.0	coherent
248.5363	0.0768797291384544	2	systole	9	A	1578.5670027440333	coherent
248.8416	0.0768797291384544	2	systole	10	A	1578.5670027440333	coherent
248.9943	0.0768797291384544	2	systole	11	B	500.0	coherent
249.1467	0.0768797291384544	2	systole	12	A	1578.5670027440333	coherent
249.452	0.0768797291384544	2	systole	13	A	1578.5670027440333	coherent
249.6047	0.0768797291384544	2	systole	14	B	500.0	coherent
249.757	0.0768797291384544	2	systole	15	A	1578.5670027440333	coherent
250.0722	0.0768797291384544	2	systole	16	A	1578.5670027440333	coherent
250.2249	0.0768797291384544	2	systole	17	B	500.0	coherent
250.3773	0.0768797291384544	2	systole	18	A	1578.5670027440333	coherent
250.6923	0.0768797291384544	2	systole	19	A	1578.5670027440333	coherent
250.845	0.0768797291384544	2	systole	20	B	500.0	coherent
250.9974	0.0768797291384544	2	systole	21	A	1578.5670027440333	coherent
251.3271	0.0768797291384544	2	systole	22	A	1578.5670027440333	coherent
251.4811	0.0768797291384544	2	systole	23	B	500.0	coherent
251.6348	0.0768797291384544	2	systole	24	A	1578.5670027440333	coherent
252.031	0.0768797291384544	2	systole	25	A	1578.5670027440333	coherent
252.1887	0.0768797291384544	2	systole	26	B	500.0	coherent
252.3461	0.0768797291384544	2	systole	27	A	1578.5670027440333	coherent
252.6755	0.0768797291384544	2	systole	28	A	1578.5670027440333	coherent
252.8344	0.0768797291384544	2	systole	29	B	500.0	coherent
252.993	0.0768797291384544	2	systole	30	A	1578.5670027440333	coherent
253.3054	0.0768797291384544	2	systole	31	A	1578.5670027440333	coherent
253.4643	0.0768797291384544	2	systole	32	B	500.0	coherent
253.6229	0.0768797291384544	2	systole	33	A	1578.5670027440333	coherent
253.9353	0.0768797291384544	2	systole	34	A	1578.5670027440333	coherent
254.0943	0.0768797291384544	2	systole	35	B	500.0	coherent
254.2529	0.0768797291384544	2	systole	36	A	1578.5670027440333	coherent
254.5653	0.0768797291384544	2	systole	37	A	1578.5670027440333	coherent
254.7242	0.0768797291384544	2	systole	38	B	500.0	coherent
254.8828	0.0768797291384544	2	systole	39	A	1578.5670027440333	coherent
255.2735	0.0768797291384544	2	systole	40	A	1578.5670027440333	coherent
255.4374	0.0768797291384544	2	systole	41	B	500.0	coherent
255.6009	0.0768797291384544	2	systole	42	A	1578.5670027440333	coherent
255.9771	0.0768797291384544	2	systole	43	A	1578.5670027440333	coherent
256.1447	0.0768797291384544	2	systole	44	B	500.0	coherent
256.3119	0.0768797291384544	2	systole	45	A	1578.5670027440333	coherent
256.667	0.0768797291384544	2	systole	46	A	1578.5670027440333	coherent
256.8346	0.0768797291384544	2	systole	47	B	500.0	coherent
257.0019	0.0768797291384544	2	systole	48	A	1578.5670027440333	coherent
269.3331	0.0825021311757154	3	systole	1	A	2180.0224995339627	streaming
269.4969	0.0825021311757154	3	systole	2	B	500.0	streaming
269.6606	0.0825021311757154	3	systole	3	A	2180.0224995339627	streaming
269.9585	0.0825021311757154	3	systole	4	A	2180.0224995339627	streaming
270.121	0.0825021311757154	3	systole	5	B	500.0	streaming
270.2835	0.0825021311757154	3	systole	6	A	2180.0224995339627	streaming
270.5885	0.0825021311757154	3	systole	7	A	2180.0224995339627	streaming
270.751	0.0825021311757154	3	systole	8	B	500.0	streaming
270.9135	0.0825021311757154	3	systole	9	A	2180.0224995339627	streaming
271.2139	0.0825021311757154	3	systole	10	A	2180.0224995339627	streaming
271.3752	0.0825021311757154	3	systole	11	B	500.0	streaming
271.5365	0.0825021311757154	3	systole	12	A	2180.0224995339627	streaming
271.884	0.0825021311757154	3	systole	13	A	2180.0224995339627	streaming
272.0453	0.0825021311757154	3	systole	14	B	500.0	streaming
272.2065	0.0825021311757154	3	systole	15	A	2180.0224995339627	streaming
272.554	0.0825021311757154	3	systole	16	A	2180.0224995339627	streaming
272.7153	0.0825021311757154	3	systole	17	B	500.0	streaming
272.8766	0.0825021311757154	3	systole	18	A	2180.0224995339627	streaming
273.1702	0.0825021311757154	3	systole	19	A	2180.0224995339627	streaming
273.3277	0.0825021311757154	3	systole	20	B	500.0	streaming
273.4852	0.0825021311757154	3	systole	21	A	2180.0224995339627	streaming
273.8202	0.0825021311757154	3	systole	22	A	2180.0224995339627	streaming
273.9777	0.0825021311757154	3	systole	23	B	500.0	streaming
274.1352	0.0825021311757154	3	systole	24	A	2180.0224995339627	streaming
274.5193	0.0825021311757154	3	systole	25	A	2180.0224995339627	streaming
274.6793	0.0825021311757154	3	systole	26	B	500.0	streaming
274.8393	0.0825021311757154	3	systole	27	A	2180.0224995339627	streaming
275.2093	0.0825021311757154	3	systole	28	A	2180.0224995339627	streaming
275.3693	0.0825021311757154	3	systole	29	B	500.0	streaming
275.5293	0.0825021311757154	3	systole	30	A	2180.0224995339627	streaming
275.8202	0.0825021311757154	3	systole	31	A	2180.0224995339627	streaming
275.9778	0.0825021311757154	3	systole	32	B	500.0	streaming
276.1352	0.0825021311757154	3	systole	33	A	2180.0224995339627	streaming
276.4403	0.0825021311757154	3	systole	34	A	2180.0224995339627	streaming
276.5978	0.0825021311757154	3	systole	35	B	500.0	streaming
276.7553	0.0825021311757154	3	systole	36	A	2180.0224995339627	streaming
277.1094	0.0825021311757154	3	systole	37	A	2180.0224995339627	streaming
277.2694	0.0825021311757154	3	systole	38	B	500.0	streaming
277.4294	0.0825021311757154	3	systole	39	A	2180.0224995339627	streaming
277.8186	0.0825021311757154	3	systole	40	A	2180.0224995339627	streaming
277.9811	0.0825021311757154	3	systole	41	B	500.0	streaming
278.1435	0.0825021311757154	3	systole	42	A	2180.0224995339627	streaming
278.5132	0.0825021311757154	3	systole	43	A	2180.0224995339627	streaming
278.6769	0.0825021311757154	3	systole	44	B	500.0	streaming
278.8406	0.0825021311757154	3	systole	45	A	2180.0224995339627	streaming
283.9715	0.0862503062526229	4	systole	1	A	1253.4921645871675	coherent
284.1402	0.0862503062526229	4	systole	2	B	500.0	coherent
284.309	0.0862503062526229	4	systole	3	A	1253.4921645871675	coherent
284.6462	0.0862503062526229	4	systole	4	A	1253.4921645871675	coherent
284.8161	0.0862503062526229	4	systole	5	B	500.0	coherent
284.9862	0.0862503062526229	4	systole	6	A	1253.4921645871675	coherent
285.3162	0.0862503062526229	4	systole	7	A	1253.4921645871675	coherent
285.4862	0.0862503062526229	4	systole	8	B	500.0	coherent
285.6562	0.0862503062526229	4	systole	9	A	1253.4921645871675	coherent
286.0153	0.0862503062526229	4	systole	10	A	1253.4921645871675	coherent
286.1877	0.0862503062526229	4	systole	11	B	500.0	coherent
286.3602	0.0862503062526229	4	systole	12	A	1253.4921645871675	coherent
286.6416	0.0862503062526229	4	systole	13	A	1253.4921645871675	coherent
286.8103	0.0862503062526229	4	systole	14	B	500.0	coherent
286.9791	0.0862503062526229	4	systole	15	A	1253.4921645871675	coherent
287.3215	0.0862503062526229	4	systole	16	A	1253.4921645871675	coherent
287.4902	0.0862503062526229	4	systole	17	B	500.0	coherent
287.6591	0.0862503062526229	4	systole	18	A	1253.4921645871675	coherent
288.0015	0.0862503062526229	4	systole	19	A	1253.4921645871675	coherent
288.1702	0.0862503062526229	4	systole	20	B	500.0	coherent
288.339	0.0862503062526229	4	systole	21	A	1253.4921645871675	coherent
288.7161	0.0862503062526229	4	systole	22	A	1253.4921645871675	coherent
288.8861	0.0862503062526229	4	systole	23	B	500.0	coherent
289.0561	0.0862503062526229	4	systole	24	A	1253.4921645871675	coherent
289.3716	0.0862503062526229	4	systole	25	A	1253.4921645871675	coherent
289.5402	0.0862503062526229	4	systole	26	B	500.0	coherent
289.709	0.0862503062526229	4	systole	27	A	1253.4921645871675	coherent
290.0515	0.0862503062526229	4	systole	28	A	1253.4921645871675	coherent
290.2203	0.0862503062526229	4	systole	29	B	500.0	coherent
290.3891	0.0862503062526229	4	systole	30	A	1253.4921645871675	coherent
290.7316	0.0862503062526229	4	systole	31	A	1253.4921645871675	coherent
290.9003	0.0862503062526229	4	systole	32	B	500.0	coherent
291.0691	0.0862503062526229	4	systole	33	A	1253.4921645871675	coherent
291.426	0.0862503062526229	4	systole	34	A	1253.4921645871675	coherent
291.596	0.0862503062526229	4	systole	35	B	500.0	coherent
291.766	0.0862503062526229	4	systole	36	A	1253.4921645871675	coherent
292.116	0.0862503062526229	4	systole	37	A	1253.4921645871675	coherent
292.2859	0.0862503062526229	4	systole	38	B	500.0	coherent
292.456	0.0862503062526229	4	systole	39	A	1253.4921645871675	coherent
292.766	0.0862503062526229	4	systole	40	A	1253.4921645871675	coherent
292.936	0.0862503062526229	4	systole	41	B	500.0	coherent
293.106	0.0862503062526229	4	systole	42	A	1253.4921645871675	coherent
293.4162	0.0862503062526229	4	systole	43	A	1253.4921645871675	coherent
293.5861	0.0862503062526229	4	systole	44	B	500.0	coherent
293.7562	0.0862503062526229	4	systole	45	A	1253.4921645871675	coherent
296.9997	0.0862464374804403	5	systole	1	A	2621.646269519023	streaming
297.1736	0.0862464374804403	5	systole	2	B	500.0	streaming
297.3472	0.0862464374804403	5	systole	3	A	2621.646269519023	streaming
297.7097	0.0862464374804403	5	systole	4	A	2621.646269519023	streaming
297.8836	0.0862464374804403	5	systole	5	B	500.0	streaming
298.0572	0.0862464374804403	5	systole	6	A	2621.646269519023	streaming
298.3505	0.0862464374804403	5	systole	7	A	2621.646269519023	streaming
298.5219	0.0862464374804403	5	systole	8	B	500.0	streaming
298.693	0.0862464374804403	5	systole	9	A	2621.646269519023	streaming
299.0004	0.0862464374804403	5	systole	10	A	2621.646269519023	streaming
299.1719	0.0862464374804403	5	systole	11	B	500.0	streaming
299.3429	0.0862464374804403	5	systole	12	A	2621.646269519023	streaming
299.695	0.0862464374804403	5	systole	13	A	2621.646269519023	streaming
299.8677	0.0862464374804403	5	systole	14	B	500.0	streaming
300.04	0.0862464374804403	5	systole	15	A	2621.646269519023	streaming
300.4196	0.0862464374804403	5	systole	16	A	2621.646269519023	streaming
300.5936	0.0862464374804403	5	systole	17	B	500.0	streaming
300.7671	0.0862464374804403	5	systole	18	A	2621.646269519023	streaming
301.0804	0.0862464374804403	5	systole	19	A	2621.646269519023	streaming
301.2519	0.0862464374804403	5	systole	20	B	500.0	streaming
301.4229	0.0862464374804403	5	systole	21	A	2621.646269519023	streaming
301.7701	0.0862464374804403	5	systole	22	A	2621.646269519023	streaming
301.9415	0.0862464374804403	5	systole	23	B	500.0	streaming
302.1125	0.0862464374804403	5	systole	24	A	2621.646269519023	streaming
302.4599	0.0862464374804403	5	systole	25	A	2621.646269519023	streaming
302.6313	0.0862464374804403	5	systole	26	B	500.0	streaming
302.8023	0.0862464374804403	5	systole	27	A	2621.646269519023	streaming
303.1497	0.0862464374804403	5	systole	28	A	2621.646269519023	streaming
303.3211	0.0862464374804403	5	systole	29	B	500.0	streaming
303.4921	0.0862464374804403	5	systole	30	A	2621.646269519023	streaming
303.9438	0.0862464374804403	5	systole	31	A	2621.646269519023	streaming
304.119	0.0862464374804403	5	systole	32	B	500.0	streaming
304.2938	0.0862464374804403	5	systole	33	A	2621.646269519023	streaming
304.6145	0.0862464374804403	5	systole	34	A	2621.646269519023	streaming
304.7871	0.0862464374804403	5	systole	35	B	500.0	streaming
304.9594	0.0862464374804403	5	systole	36	A	2621.646269519023	streaming
305.3345	0.0862464374804403	5	systole	37	A	2621.646269519023	streaming
305.5071	0.0862464374804403	5	systole	38	B	500.0	streaming
305.6794	0.0862464374804403	5	systole	39	A	2621.646269519023	streaming
306.0783	0.0862464374804403	5	systole	40	A	2621.646269519023	streaming
306.2548	0.0862464374804403	5	systole	41	B	500.0	streaming
306.4308	0.0862464374804403	5	systole	42	A	2621.646269519023	streaming
306.8422	0.0862464374804403	5	systole	43	A	2621.646269519023	streaming
307.0224	0.0862464374804403	5	systole	44	B	500.0	streaming
307.2022	0.0862464374804403	5	systole	45	A	2621.646269519023	streaming
311.4554	0.0899833436706103	6	diastole	1	A	2180.0224995339627	streaming
311.6342	0.0899833436706103	6	diastole	2	B	500.0	streaming
311.8129	0.0899833436706103	6	diastole	3	A	2180.0224995339627	streaming
312.1455	0.0899833436706103	6	diastole	4	A	2180.0224995339627	streaming
312.3243	0.0899833436706103	6	diastole	5	B	500.0	streaming
312.503	0.0899833436706103	6	diastole	6	A	2180.0224995339627	streaming
312.7646	0.0899833436706103	6	diastole	7	A	2180.0224995339627	streaming
312.9396	0.0899833436706103	6	diastole	8	B	500.0	streaming
313.1146	0.0899833436706103	6	diastole	9	A	2180.0224995339627	streaming
313.3965	0.0899833436706103	6	diastole	10	A	2180.0224995339627	streaming
313.5665	0.0899833436706103	6	diastole	11	B	500.0	streaming
313.7366	0.0899833436706103	6	diastole	12	A	2180.0224995339627	streaming
314.0565	0.0899833436706103	6	diastole	13	A	2180.0224995339627	streaming
314.2266	0.0899833436706103	6	diastole	14	B	500.0	streaming
314.3966	0.0899833436706103	6	diastole	15	A	2180.0224995339627	streaming
314.7022	0.0899833436706103	6	diastole	16	A	2180.0224995339627	streaming
314.8698	0.0899833436706103	6	diastole	17	B	500.0	streaming
315.0373	0.0899833436706103	6	diastole	18	A	2180.0224995339627	streaming
315.3348	0.0899833436706103	6	diastole	19	A	2180.0224995339627	streaming
315.5011	0.0899833436706103	6	diastole	20	B	500.0	streaming
315.6673	0.0899833436706103	6	diastole	21	A	2180.0224995339627	streaming
316.0148	0.0899833436706103	6	diastole	22	A	2180.0224995339627	streaming
316.1811	0.0899833436706103	6	diastole	23	B	500.0	streaming
316.3473	0.0899833436706103	6	diastole	24	A	2180.0224995339627	streaming
316.7122	0.0899833436706103	6	diastole	25	A	2180.0224995339627	streaming
316.8798	0.0899833436706103	6	diastole	26	B	500.0	streaming
317.0473	0.0899833436706103	6	diastole	27	A	2180.0224995339627	streaming
317.429	0.0899833436706103	6	diastole	28	A	2180.0224995339627	streaming
317.5978	0.0899833436706103	6	diastole	29	B	500.0	streaming
317.7665	0.0899833436706103	6	diastole	30	A	2180.0224995339627	streaming
318.1389	0.0899833436706103	6	diastole	31	A	2180.0224995339627	streaming
318.3077	0.0899833436706103	6	diastole	32	B	500.0	streaming
318.4764	0.0899833436706103	6	diastole	33	A	2180.0224995339627	streaming
318.8019	0.0899833436706103	6	diastole	34	A	2180.0224995339627	streaming
318.9695	0.0899833436706103	6	diastole	35	B	500.0	streaming
319.1369	0.0899833436706103	6	diastole	36	A	2180.0224995339627	streaming
319.512	0.0899833436706103	6	diastole	37	A	2180.0224995339627	streaming
319.6795	0.0899833436706103	6	diastole	38	B	500.0	streaming
319.847	0.0899833436706103	6	diastole	39	A	2180.0224995339627	streaming
320.2232	0.0899833436706103	6	diastole	40	A	2180.0224995339627	streaming
320.3945	0.0899833436706103	6	diastole	41	B	500.0	streaming
320.5657	0.0899833436706103	6	diastole	42	A	2180.0224995339627	streaming
323.8415	0.0837504312512464	7	systole	1	A	1196.9977780158051	coherent
324.0101	0.0837504312512464	7	systole	2	B	500.0	coherent
324.1789	0.0837504312512464	7	systole	3	A	1196.9977780158051	coherent
324.4924	0.0837504312512464	7	systole	4	A	1196.9977780158051	coherent
324.6585	0.0837504312512464	7	systole	5	B	500.0	coherent
324.8249	0.0837504312512464	7	systole	6	A	1196.9977780158051	coherent
325.1524	0.0837504312512464	7	systole	7	A	1196.9977780158051	coherent
325.3186	0.0837504312512464	7	systole	8	B	500.0	coherent
325.485	0.0837504312512464	7	systole	9	A	1196.9977780158051	coherent
325.7979	0.0837504312512464	7	systole	10	A	1196.9977780158051	coherent
325.9628	0.0837504312512464	7	systole	11	B	500.0	coherent
326.1279	0.0837504312512464	7	systole	12	A	1196.9977780158051	coherent
326.4478	0.0837504312512464	7	systole	13	A	1196.9977780158051	coherent
326.6127	0.0837504312512464	7	systole	14	B	500.0	coherent
326.7779	0.0837504312512464	7	systole	15	A	1196.9977780158051	coherent
327.1078	0.0837504312512464	7	systole	16	A	1196.9977780158051	coherent
327.2727	0.0837504312512464	7	systole	17	B	500.0	coherent
327.4378	0.0837504312512464	7	systole	18	A	1196.9977780158051	coherent
327.7979	0.0837504312512464	7	systole	19	A	1196.9977780158051	coherent
327.9628	0.0837504312512464	7	systole	20	B	500.0	coherent
328.1279	0.0837504312512464	7	systole	21	A	1196.9977780158051	coherent
328.4879	0.0837504312512464	7	systole	22	A	1196.9977780158051	coherent
328.6528	0.0837504312512464	7	systole	23	B	500.0	coherent
328.8179	0.0837504312512464	7	systole	24	A	1196.9977780158051	coherent
329.2024	0.0837504312512464	7	systole	25	A	1196.9977780158051	coherent
329.3686	0.0837504312512464	7	systole	26	B	500.0	coherent
329.5349	0.0837504312512464	7	systole	27	A	1196.9977780158051	coherent
329.8479	0.0837504312512464	7	systole	28	A	1196.9977780158051	coherent
330.0128	0.0837504312512464	7	systole	29	B	500.0	coherent
330.1779	0.0837504312512464	7	systole	30	A	1196.9977780158051	coherent
330.5578	0.0837504312512464	7	systole	31	A	1196.9977780158051	coherent
330.7227	0.0837504312512464	7	systole	32	B	500.0	coherent
330.8879	0.0837504312512464	7	systole	33	A	1196.9977780158051	coherent
331.2678	0.0837504312512464	7	systole	34	A	1196.9977780158051	coherent
331.4327	0.0837504312512464	7	systole	35	B	500.0	coherent
331.5978	0.0837504312512464	7	systole	36	A	1196.9977780158051	coherent
331.9778	0.0837504312512464	7	systole	37	A	1196.9977780158051	coherent
332.1426	0.0837504312512464	7	systole	38	B	500.0	coherent
332.3078	0.0837504312512464	7	systole	39	A	1196.9977780158051	coherent
332.6523	0.0837504312512464	7	systole	40	A	1196.9977780158051	coherent
332.8185	0.0837504312512464	7	systole	41	B	500.0	coherent
332.9848	0.0837504312512464	7	systole	42	A	1196.9977780158051	coherent
339.1581	0.0887494010385125	8	systole	1	A	2682.7996005075997	streaming
339.3371	0.0887494010385125	8	systole	2	B	500.0	streaming
339.5156	0.0887494010385125	8	systole	3	A	2682.7996005075997	streaming
339.8234	0.0887494010385125	8	systole	4	A	2682.7996005075997	streaming
340.0012	0.0887494010385125	8	systole	5	B	500.0	streaming
340.1784	0.0887494010385125	8	systole	6	A	2682.7996005075997	streaming
340.4933	0.0887494010385125	8	systole	7	A	2682.7996005075997	streaming
340.6711	0.0887494010385125	8	systole	8	B	500.0	streaming
340.8483	0.0887494010385125	8	systole	9	A	2682.7996005075997	streaming
341.1632	0.0887494010385125	8	systole	10	A	2682.7996005075997	streaming
341.341	0.0887494010385125	8	systole	11	B	500.0	streaming
341.5182	0.0887494010385125	8	systole	12	A	2682.7996005075997	streaming
341.8422	0.0887494010385125	8	systole	13	A	2682.7996005075997	streaming
342.0197	0.0887494010385125	8	systole	14	B	500.0	streaming
342.1968	0.0887494010385125	8	systole	15	A	2682.7996005075997	streaming
342.4831	0.0887494010385125	8	systole	16	A	2682.7996005075997	streaming
342.6581	0.0887494010385125	8	systole	17	B	500.0	streaming
342.8327	0.0887494010385125	8	systole	18	A	2682.7996005075997	streaming
343.133	0.0887494010385125	8	systole	19	A	2682.7996005075997	streaming
343.308	0.0887494010385125	8	systole	20	B	500.0	streaming
343.4826	0.0887494010385125	8	systole	21	A	2682.7996005075997	streaming
343.783	0.0887494010385125	8	systole	22	A	2682.7996005075997	streaming
343.958	0.0887494010385125	8	systole	23	B	500.0	streaming
344.1326	0.0887494010385125	8	systole	24	A	2682.7996005075997	streaming
344.4312	0.0887494010385125	8	systole	25	A	2682.7996005075997	streaming
344.6002	0.0887494010385125	8	systole	26	B	500.0	streaming
344.7687	0.0887494010385125	8	systole	27	A	2682.7996005075997	streaming
345.1508	0.0887494010385125	8	systole	28	A	2682.7996005075997	streaming
345.3198	0.0887494010385125	8	systole	29	B	500.0	streaming
345.4884	0.0887494010385125	8	systole	30	A	2682.7996005075997	streaming
345.8016	0.0887494010385125	8	systole	31	A	2682.7996005075997	streaming
345.968	0.0887494010385125	8	systole	32	B	500.0	streaming
346.134	0.0887494010385125	8	systole	33	A	2682.7996005075997	streaming
346.4616	0.0887494010385125	8	systole	34	A	2682.7996005075997	streaming
346.628	0.0887494010385125	8	systole	35	B	500.0	streaming
346.794	0.0887494010385125	8	systole	36	A	2682.7996005075997	streaming
347.2125	0.0887494010385125	8	systole	37	A	2682.7996005075997	streaming
347.3815	0.0887494010385125	8	systole	38	B	500.0	streaming
347.55	0.0887494010385125	8	systole	39	A	2682.7996005075997	streaming
347.9542	0.0887494010385125	8	systole	40	A	2682.7996005075997	streaming
348.1231	0.0887494010385125	8	systole	41	B	500.0	streaming
348.2917	0.0887494010385125	8	systole	42	A	2682.7996005075997	streaming
348.6171	0.0887494010385125	8	systole	43	A	2682.7996005075997	streaming
348.7846	0.0887494010385125	8	systole	44	B	500.0	streaming
348.9517	0.0887494010385125	8	systole	45	A	2682.7996005075997	streaming
352.3309	0.0836485250038094	9	diastole	1	A	1253.4921645871675	streaming
352.4982	0.0836485250038094	9	diastole	2	B	500.0	streaming
352.6655	0.0836485250038094	9	diastole	3	A	1253.4921645871675	streaming
352.9909	0.0836485250038094	9	diastole	4	A	1253.4921645871675	streaming
353.1581	0.0836485250038094	9	diastole	5	B	500.0	streaming
353.3255	0.0836485250038094	9	diastole	6	A	1253.4921645871675	streaming
353.6405	0.0836485250038094	9	diastole	7	A	1253.4921645871675	streaming
353.8078	0.0836485250038094	9	diastole	8	B	500.0	streaming
353.9751	0.0836485250038094	9	diastole	9	A	1253.4921645871675	streaming
354.2638	0.0836485250038094	9	diastole	10	A	1253.4921645871675	streaming
354.4298	0.0836485250038094	9	diastole	11	B	500.0	streaming
354.5959	0.0836485250038094	9	diastole	12	A	1253.4921645871675	streaming
354.8878	0.0836485250038094	9	diastole	13	A	1253.4921645871675	streaming
355.0527	0.0836485250038094	9	diastole	14	B	500.0	streaming
355.2177	0.0836485250038094	9	diastole	15	A	1253.4921645871675	streaming
355.5479	0.0836485250038094	9	diastole	16	A	1253.4921645871675	streaming
355.7128	0.0836485250038094	9	diastole	17	B	500.0	streaming
355.8779	0.0836485250038094	9	diastole	18	A	1253.4921645871675	streaming
356.208	0.0836485250038094	9	diastole	19	A	1253.4921645871675	streaming
356.3729	0.0836485250038094	9	diastole	20	B	500.0	streaming
356.538	0.0836485250038094	9	diastole	21	A	1253.4921645871675	streaming
356.8779	0.0836485250038094	9	diastole	22	A	1253.4921645871675	streaming
357.0428	0.0836485250038094	9	diastole	23	B	500.0	streaming
357.2079	0.0836485250038094	9	diastole	24	A	1253.4921645871675	streaming
357.5479	0.0836485250038094	9	diastole	25	A	1253.4921645871675	streaming
357.7128	0.0836485250038094	9	diastole	26	B	500.0	streaming
357.8779	0.0836485250038094	9	diastole	27	A	1253.4921645871675	streaming
358.1909	0.0836485250038094	9	diastole	28	A	1253.4921645871675	streaming
358.3546	0.0836485250038094	9	diastole	29	B	500.0	streaming
358.5184	0.0836485250038094	9	diastole	30	A	1253.4921645871675	streaming
358.9109	0.0836485250038094	9	diastole	31	A	1253.4921645871675	streaming
359.0746	0.0836485250038094	9	diastole	32	B	500.0	streaming
359.2384	0.0836485250038094	9	diastole	33	A	1253.4921645871675	streaming
359.6579	0.0836485250038094	9	diastole	34	A	1253.4921645871675	streaming
359.8229	0.0836485250038094	9	diastole	35	B	500.0	streaming
359.988	0.0836485250038094	9	diastole	36	A	1253.4921645871675	streaming
360.3451	0.0836485250038094	9	diastole	37	A	1253.4921645871675	streaming
360.5112	0.0836485250038094	9	diastole	38	B	500.0	streaming
360.6776	0.0836485250038094	9	diastole	39	A	1253.4921645871675	streaming
361.0051	0.0836485250038094	9	diastole	40	A	1253.4921645871675	streaming
361.1713	0.0836485250038094	9	diastole	41	B	500.0	streaming
361.3376	0.0836485250038094	9	diastole	42	A	1253.4921645871675	streaming
361.7221	0.0836485250038094	9	diastole	43	A	1253.4921645871675	streaming
361.8895	0.0836485250038094	9	diastole	44	B	500.0	streaming
362.057	0.0836485250038094	9	diastole	45	A	1253.4921645871675	streaming
365.7887	0.0849990500137209	10	diastole	1	A	2446.423693900757	streaming
365.9576	0.0849990500137209	10	diastole	2	B	500.0	streaming
366.1262	0.0849990500137209	10	diastole	3	A	2446.423693900757	streaming
366.4389	0.0849990500137209	10	diastole	4	A	2446.423693900757	streaming
366.6078	0.0849990500137209	10	diastole	5	B	500.0	streaming
366.7764	0.0849990500137209	10	diastole	6	A	2446.423693900757	streaming
367.0848	0.0849990500137209	10	diastole	7	A	2446.423693900757	streaming
367.2512	0.0849990500137209	10	diastole	8	B	500.0	streaming
367.4173	0.0849990500137209	10	diastole	9	A	2446.423693900757	streaming
367.7448	0.0849990500137209	10	diastole	10	A	2446.423693900757	streaming
367.9112	0.0849990500137209	10	diastole	11	B	500.0	streaming
368.0774	0.0849990500137209	10	diastole	12	A	2446.423693900757	streaming
368.3776	0.0849990500137209	10	diastole	13	A	2446.423693900757	streaming
368.5427	0.0849990500137209	10	diastole	14	B	500.0	streaming
368.7075	0.0849990500137209	10	diastole	15	A	2446.423693900757	streaming
369.0176	0.0849990500137209	10	diastole	16	A	2446.423693900757	streaming
369.1827	0.0849990500137209	10	diastole	17	B	500.0	streaming
369.3476	0.0849990500137209	10	diastole	18	A	2446.423693900757	streaming
369.6576	0.0849990500137209	10	diastole	19	A	2446.423693900757	streaming
369.8227	0.0849990500137209	10	diastole	20	B	500.0	streaming
369.9876	0.0849990500137209	10	diastole	21	A	2446.423693900757	streaming
370.2809	0.0849990500137209	10	diastole	22	A	2446.423693900757	streaming
370.4448	0.0849990500137209	10	diastole	23	B	500.0	streaming
370.6085	0.0849990500137209	10	diastole	24	A	2446.423693900757	streaming
370.9508	0.0849990500137209	10	diastole	25	A	2446.423693900757	streaming
371.1147	0.0849990500137209	10	diastole	26	B	500.0	streaming
371.2784	0.0849990500137209	10	diastole	27	A	2446.423693900757	streaming
371.5838	0.0849990500137209	10	diastole	28	A	2446.423693900757	streaming
371.7465	0.0849990500137209	10	diastole	29	B	500.0	streaming
371.9088	0.0849990500137209	10	diastole	30	A	2446.423693900757	streaming
372.1966	0.0849990500137209	10	diastole	31	A	2446.423693900757	streaming
372.358	0.0849990500137209	10	diastole	32	B	500.0	streaming
372.5191	0.0849990500137209	10	diastole	33	A	2446.423693900757	streaming
372.8466	0.0849990500137209	10	diastole	34	A	2446.423693900757	streaming
373.008	0.0849990500137209	10	diastole	35	B	500.0	streaming
373.1691	0.0849990500137209	10	diastole	36	A	2446.423693900757	streaming
373.5266	0.0849990500137209	10	diastole	37	A	2446.423693900757	streaming
373.688	0.0849990500137209	10	diastole	38	B	500.0	streaming
373.8491	0.0849990500137209	10	diastole	39	A	2446.423693900757	streaming
374.1567	0.0849990500137209	10	diastole	40	A	2446.423693900757	streaming
374.3181	0.0849990500137209	10	diastole	41	B	500.0	streaming
374.4792	0.0849990500137209	10	diastole	42	A	2446.423693900757	streaming
374.7867	0.0849990500137209	10	diastole	43	A	2446.423693900757	streaming
374.9482	0.0849990500137209	10	diastole	44	B	500.0	streaming
375.1092	0.0849990500137209	10	diastole	45	A	2446.423693900757	streaming
377.8132	0.0812504158820957	11	systole	1	A	1282.731510155574	coherent
377.977	0.0812504158820957	11	systole	2	B	500.0	coherent
378.1407	0.0812504158820957	11	systole	3	A	1282.731510155574	coherent
378.4532	0.0812504158820957	11	systole	4	A	1282.731510155574	coherent
378.617	0.0812504158820957	11	systole	5	B	500.0	coherent
378.7808	0.0812504158820957	11	systole	6	A	1282.731510155574	coherent
379.0933	0.0812504158820957	11	systole	7	A	1282.731510155574	coherent
379.257	0.0812504158820957	11	systole	8	B	500.0	coherent
379.4208	0.0812504158820957	11	systole	9	A	1282.731510155574	coherent
379.7187	0.0812504158820957	11	systole	10	A	1282.731510155574	coherent
379.8812	0.0812504158820957	11	systole	11	B	500.0	coherent
380.0437	0.0812504158820957	11	systole	12	A	1282.731510155574	coherent
380.3886	0.0812504158820957	11	systole	13	A	1282.731510155574	coherent
380.5511	0.0812504158820957	11	systole	14	B	500.0	coherent
380.7136	0.0812504158820957	11	systole	15	A	1282.731510155574	coherent
381.1433	0.0812504158820957	11	systole	16	A	1282.731510155574	coherent
381.307	0.0812504158820957	11	systole	17	B	500.0	coherent
381.4708	0.0812504158820957	11	systole	18	A	1282.731510155574	coherent
381.978	0.0812504158820957	11	systole	19	A	1282.731510155574	coherent
382.143	0.0812504158820957	11	systole	20	B	500.0	coherent
382.3081	0.0812504158820957	11	systole	21	A	1282.731510155574	coherent
382.7525	0.0812504158820957	11	systole	22	A	1282.731510155574	coherent
382.9187	0.0812504158820957	11	systole	23	B	500.0	coherent
383.085	0.0812504158820957	11	systole	24	A	1282.731510155574	coherent
383.4916	0.0812504158820957	11	systole	25	A	1282.731510155574	coherent
383.6603	0.0812504158820957	11	systole	26	B	500.0	coherent
383.829	0.0812504158820957	11	systole	27	A	1282.731510155574	coherent
384.2891	0.0812504158820957	11	systole	28	A	1282.731510155574	coherent
384.473	0.0812504158820957	11	systole	29	B	500.0	coherent
384.657	0.0812504158820957	11	systole	30	A	1282.731510155574	coherent
385.0308	0.0812504158820957	11	systole	31	A	1282.731510155574	coherent
385.2147	0.0812504158820957	11	systole	32	B	500.0	coherent
385.3987	0.0812504158820957	11	systole	33	A	1282.731510155574	coherent
385.7207	0.0812504158820957	11	systole	34	A	1282.731510155574	coherent
385.9047	0.0812504158820957	11	systole	35	B	500.0	coherent
386.0887	0.0812504158820957	11	systole	36	A	1282.731510155574	coherent
386.3908	0.0812504158820957	11	systole	37	A	1282.731510155574	coherent
386.5748	0.0812504158820957	11	systole	38	B	500.0	coherent
386.7588	0.0812504158820957	11	systole	39	A	1282.731510155574	coherent
387.0792	0.0812504158820957	11	systole	40	A	1282.731510155574	coherent
387.2631	0.0812504158820957	11	systole	41	B	500.0	coherent
387.4471	0.0812504158820957	11	systole	42	A	1282.731510155574	coherent
391.4779	0.0856242383597418	12	diastole	1	A	846.9957848672357	streaming
391.6475	0.0856242383597418	12	diastole	2	B	500.0	streaming
391.8183	0.0856242383597418	12	diastole	3	A	846.9957848672357	streaming
392.1279	0.0856242383597418	12	diastole	4	A	846.9957848672357	streaming
392.2975	0.0856242383597418	12	diastole	5	B	500.0	streaming
392.4683	0.0856242383597418	12	diastole	6	A	846.9957848672357	streaming
392.7969	0.0856242383597418	12	diastole	7	A	846.9957848672357	streaming
392.9662	0.0856242383597418	12	diastole	8	B	500.0	streaming
393.1368	0.0856242383597418	12	diastole	9	A	846.9957848672357	streaming
393.498	0.0856242383597418	12	diastole	10	A	846.9957848672357	streaming
393.6676	0.0856242383597418	12	diastole	11	B	500.0	streaming
393.8384	0.0856242383597418	12	diastole	12	A	846.9957848672357	streaming
394.1979	0.0856242383597418	12	diastole	13	A	846.9957848672357	streaming
394.3675	0.0856242383597418	12	diastole	14	B	500.0	streaming
394.5384	0.0856242383597418	12	diastole	15	A	846.9957848672357	streaming
394.8979	0.0856242383597418	12	diastole	16	A	846.9957848672357	streaming
395.0675	0.0856242383597418	12	diastole	17	B	500.0	streaming
395.2383	0.0856242383597418	12	diastole	18	A	846.9957848672357	streaming
395.5564	0.0856242383597418	12	diastole	19	A	846.9957848672357	streaming
395.7258	0.0856242383597418	12	diastole	20	B	500.0	streaming
395.8964	0.0856242383597418	12	diastole	21	A	846.9957848672357	streaming
396.2226	0.0856242383597418	12	diastole	22	A	846.9957848672357	streaming
396.3909	0.0856242383597418	12	diastole	23	B	500.0	streaming
396.5605	0.0856242383597418	12	diastole	24	A	846.9957848672357	streaming
396.8945	0.0856242383597418	12	diastole	25	A	846.9957848672357	streaming
397.0629	0.0856242383597418	12	diastole	26	B	500.0	streaming
397.2324	0.0856242383597418	12	diastole	27	A	846.9957848672357	streaming
397.6102	0.0856242383597418	12	diastole	28	A	846.9957848672357	streaming
397.7796	0.0856242383597418	12	diastole	29	B	500.0	streaming
397.9502	0.0856242383597418	12	diastole	30	A	846.9957848672357	streaming
398.2761	0.0856242383597418	12	diastole	31	A	846.9957848672357	streaming
398.4445	0.0856242383597418	12	diastole	32	B	500.0	streaming
398.614	0.0856242383597418	12	diastole	33	A	846.9957848672357	streaming
398.9477	0.0856242383597418	12	diastole	34	A	846.9957848672357	streaming
399.116	0.0856242383597418	12	diastole	35	B	500.0	streaming
399.2856	0.0856242383597418	12	diastole	36	A	846.9957848672357	streaming
399.642	0.0856242383597418	12	diastole	37	A	846.9957848672357	streaming
399.8114	0.0856242383597418	12	diastole	38	B	500.0	streaming
399.982	0.0856242383597418	12	diastole	39	A	846.9957848672357	streaming
400.3635	0.0856242383597418	12	diastole	40	A	846.9957848672357	streaming
400.5364	0.0856242383597418	12	diastole	41	B	500.0	streaming
400.7106	0.0856242383597418	12	diastole	42	A	846.9957848672357	streaming
404.0814	0.0856237986299675	13	systole	1	A	2561.886903957566	streaming
404.2503	0.0856237986299675	13	systole	2	B	500.0	streaming
404.4189	0.0856237986299675	13	systole	3	A	2561.886903957566	streaming
404.7413	0.0856237986299675	13	systole	4	A	2561.886903957566	streaming
404.9102	0.0856237986299675	13	systole	5	B	500.0	streaming
405.0788	0.0856237986299675	13	systole	6	A	2561.886903957566	streaming
405.3774	0.0856237986299675	13	systole	7	A	2561.886903957566	streaming
405.5426	0.0856237986299675	13	systole	8	B	500.0	streaming
405.7074	0.0856237986299675	13	systole	9	A	2561.886903957566	streaming
406.0375	0.0856237986299675	13	systole	10	A	2561.886903957566	streaming
406.2027	0.0856237986299675	13	systole	11	B	500.0	streaming
406.3675	0.0856237986299675	13	systole	12	A	2561.886903957566	streaming
406.7075	0.0856237986299675	13	systole	13	A	2561.886903957566	streaming
406.8727	0.0856237986299675	13	systole	14	B	500.0	streaming
407.0375	0.0856237986299675	13	systole	15	A	2561.886903957566	streaming
407.3775	0.0856237986299675	13	systole	16	A	2561.886903957566	streaming
407.5427	0.0856237986299675	13	systole	17	B	500.0	streaming
407.7075	0.0856237986299675	13	systole	18	A	2561.886903957566	streaming
408.0275	0.0856237986299675	13	systole	19	A	2561.886903957566	streaming
408.1927	0.0856237986299675	13	systole	20	B	500.0	streaming
408.3575	0.0856237986299675	13	systole	21	A	2561.886903957566	streaming
408.6775	0.0856237986299675	13	systole	22	A	2561.886903957566	streaming
408.8427	0.0856237986299675	13	systole	23	B	500.0	streaming
409.0075	0.0856237986299675	13	systole	24	A	2561.886903957566	streaming
409.313	0.0856237986299675	13	systole	25	A	2561.886903957566	streaming
409.4769	0.0856237986299675	13	systole	26	B	500.0	streaming
409.6404	0.0856237986299675	13	systole	27	A	2561.886903957566	streaming
409.9975	0.0856237986299675	13	systole	28	A	2561.886903957566	streaming
410.1627	0.0856237986299675	13	systole	29	B	500.0	streaming
410.3275	0.0856237986299675	13	systole	30	A	2561.886903957566	streaming
410.643	0.0856237986299675	13	systole	31	A	2561.886903957566	streaming
410.8069	0.0856237986299675	13	systole	32	B	500.0	streaming
410.9705	0.0856237986299675	13	systole	33	A	2561.886903957566	streaming
411.2784	0.0856237986299675	13	systole	34	A	2561.886903957566	streaming
411.4411	0.0856237986299675	13	systole	35	B	500.0	streaming
411.6034	0.0856237986299675	13	systole	36	A	2561.886903957566	streaming
411.9184	0.0856237986299675	13	systole	37	A	2561.886903957566	streaming
412.081	0.0856237986299675	13	systole	38	B	500.0	streaming
412.2434	0.0856237986299675	13	systole	39	A	2561.886903957566	streaming
412.5583	0.0856237986299675	13	systole	40	A	2561.886903957566	streaming
412.721	0.0856237986299675	13	systole	41	B	500.0	streaming
412.8833	0.0856237986299675	13	systole	42	A	2561.886903957566	streaming
413.1984	0.0856237986299675	13	systole	43	A	2561.886903957566	streaming
413.361	0.0856237986299675	13	systole	44	B	500.0	streaming
413.5233	0.0856237986299675	13	systole	45	A	2561.886903957566	streaming
416.9692	0.0799991749809123	14	systole	1	A	1812.791509567848	streaming
417.1295	0.0799991749809123	14	systole	2	B	500.0	streaming
417.2892	0.0799991749809123	14	systole	3	A	1812.791509567848	streaming
417.6092	0.0799991749809123	14	systole	4	A	1812.791509567848	streaming
417.7695	0.0799991749809123	14	systole	5	B	500.0	streaming
417.9292	0.0799991749809123	14	systole	6	A	1812.791509567848	streaming
418.2492	0.0799991749809123	14	systole	7	A	1812.791509567848	streaming
418.4095	0.0799991749809123	14	systole	8	B	500.0	streaming
418.5692	0.0799991749809123	14	systole	9	A	1812.791509567848	streaming
418.8892	0.0799991749809123	14	systole	10	A	1812.791509567848	streaming
419.0495	0.0799991749809123	14	systole	11	B	500.0	streaming
419.2092	0.0799991749809123	14	systole	12	A	1812.791509567848	streaming
419.5292	0.0799991749809123	14	systole	13	A	1812.791509567848	streaming
419.6895	0.0799991749809123	14	systole	14	B	500.0	streaming
419.8492	0.0799991749809123	14	systole	15	A	1812.791509567848	streaming
420.1693	0.0799991749809123	14	systole	16	A	1812.791509567848	streaming
420.3295	0.0799991749809123	14	systole	17	B	500.0	streaming
420.4893	0.0799991749809123	14	systole	18	A	1812.791509567848	streaming
420.7892	0.0799991749809123	14	systole	19	A	1812.791509567848	streaming
420.9495	0.0799991749809123	14	systole	20	B	500.0	streaming
421.1092	0.0799991749809123	14	systole	21	A	1812.791509567848	streaming
421.4593	0.0799991749809123	14	systole	22	A	1812.791509567848	streaming
421.6195	0.0799991749809123	14	systole	23	B	500.0	streaming
421.7793	0.0799991749809123	14	systole	24	A	1812.791509567848	streaming
422.1439	0.0799991749809123	14	systole	25	A	1812.791509567848	streaming
422.3054	0.0799991749809123	14	systole	26	B	500.0	streaming
422.4664	0.0799991749809123	14	systole	27	A	1812.791509567848	streaming
422.8239	0.0799991749809123	14	systole	28	A	1812.791509567848	streaming
422.9854	0.0799991749809123	14	systole	29	B	500.0	streaming
423.1464	0.0799991749809123	14	systole	30	A	1812.791509567848	streaming
423.4539	0.0799991749809123	14	systole	31	A	1812.791509567848	streaming
423.6154	0.0799991749809123	14	systole	32	B	500.0	streaming
423.7764	0.0799991749809123	14	systole	33	A	1812.791509567848	streaming
424.1185	0.0799991749809123	14	systole	34	A	1812.791509567848	streaming
424.2812	0.0799991749809123	14	systole	35	B	500.0	streaming
424.4435	0.0799991749809123	14	systole	36	A	1812.791509567848	streaming
424.8377	0.0799991749809123	14	systole	37	A	1812.791509567848	streaming
425.0029	0.0799991749809123	14	systole	38	B	500.0	streaming
425.1677	0.0799991749809123	14	systole	39	A	1812.791509567848	streaming
425.5476	0.0799991749809123	14	systole	40	A	1812.791509567848	streaming
425.7129	0.0799991749809123	14	systole	41	B	500.0	streaming
425.8776	0.0799991749809123	14	systole	42	A	1812.791509567848	streaming
426.2576	0.0799991749809123	14	systole	43	A	1812.791509567848	streaming
426.4229	0.0799991749809123	14	systole	44	B	500.0	streaming
426.5876	0.0799991749809123	14	systole	45	A	1812.791509567848	streaming
429.6657	0.0881221499294042	15	diastole	1	A	2282.9124430951747	streaming
429.8445	0.0881221499294042	15	diastole	2	B	500.0	streaming
430.0232	0.0881221499294042	15	diastole	3	A	2282.9124430951747	streaming
430.4157	0.0881221499294042	15	diastole	4	A	2282.9124430951747	streaming
430.5945	0.0881221499294042	15	diastole	5	B	500.0	streaming
430.7732	0.0881221499294042	15	diastole	6	A	2282.9124430951747	streaming
431.1257	0.0881221499294042	15	diastole	7	A	2282.9124430951747	streaming
431.3045	0.0881221499294042	15	diastole	8	B	500.0	streaming
431.4832	0.0881221499294042	15	diastole	9	A	2282.9124430951747	streaming
431.8157	0.0881221499294042	15	diastole	10	A	2282.9124430951747	streaming
431.9945	0.0881221499294042	15	diastole	11	B	500.0	streaming
432.1732	0.0881221499294042	15	diastole	12	A	2282.9124430951747	streaming
432.5057	0.0881221499294042	15	diastole	13	A	2282.9124430951747	streaming
432.6846	0.0881221499294042	15	diastole	14	B	500.0	streaming
432.8632	0.0881221499294042	15	diastole	15	A	2282.9124430951747	streaming
433.2114	0.0881221499294042	15	diastole	16	A	2282.9124430951747	streaming
433.3892	0.0881221499294042	15	diastole	17	B	500.0	streaming
433.5668	0.0881221499294042	15	diastole	18	A	2282.9124430951747	streaming
433.8732	0.0881221499294042	15	diastole	19	A	2282.9124430951747	streaming
434.0495	0.0881221499294042	15	diastole	20	B	500.0	streaming
434.2256	0.0881221499294042	15	diastole	21	A	2282.9124430951747	streaming
434.5431	0.0881221499294042	15	diastole	22	A	2282.9124430951747	streaming
434.7194	0.0881221499294042	15	diastole	23	B	500.0	streaming
434.8956	0.0881221499294042	15	diastole	24	A	2282.9124430951747	streaming
435.2331	0.0881221499294042	15	diastole	25	A	2282.9124430951747	streaming
435.4094	0.0881221499294042	15	diastole	26	B	500.0	streaming
435.5856	0.0881221499294042	15	diastole	27	A	2282.9124430951747	streaming
435.9998	0.0881221499294042	15	diastole	28	A	2282.9124430951747	streaming
436.1775	0.0881221499294042	15	diastole	29	B	500.0	streaming
436.3552	0.0881221499294042	15	diastole	30	A	2282.9124430951747	streaming
436.6629	0.0881221499294042	15	diastole	31	A	2282.9124430951747	streaming
436.838	0.0881221499294042	15	diastole	32	B	500.0	streaming
437.0129	0.0881221499294042	15	diastole	33	A	2282.9124430951747	streaming
437.3286	0.0881221499294042	15	diastole	34	A	2282.9124430951747	streaming
437.5012	0.0881221499294042	15	diastole	35	B	500.0	streaming
437.6736	0.0881221499294042	15	diastole	36	A	2282.9124430951747	streaming
438.0085	0.0881221499294042	15	diastole	37	A	2282.9124430951747	streaming
438.1811	0.0881221499294042	15	diastole	38	B	500.0	streaming
438.3535	0.0881221499294042	15	diastole	39	A	2282.9124430951747	streaming
440.7939	0.0868738107383251	16	diastole	1	A	2230.874377999246	streaming
440.9689	0.0868738107383251	16	diastole	2	B	500.0	streaming
441.1438	0.0868738107383251	16	diastole	3	A	2230.874377999246	streaming
441.4497	0.0868738107383251	16	diastole	4	A	2230.874377999246	streaming
441.6222	0.0868738107383251	16	diastole	5	B	500.0	streaming
441.7946	0.0868738107383251	16	diastole	6	A	2230.874377999246	streaming
442.1197	0.0868738107383251	16	diastole	7	A	2230.874377999246	streaming
442.2922	0.0868738107383251	16	diastole	8	B	500.0	streaming
442.4646	0.0868738107383251	16	diastole	9	A	2230.874377999246	streaming
442.7447	0.0868738107383251	16	diastole	10	A	2230.874377999246	streaming
442.9145	0.0868738107383251	16	diastole	11	B	500.0	streaming
443.0843	0.0868738107383251	16	diastole	12	A	2230.874377999246	streaming
443.3909	0.0868738107383251	16	diastole	13	A	2230.874377999246	streaming
443.5597	0.0868738107383251	16	diastole	14	B	500.0	streaming
443.7285	0.0868738107383251	16	diastole	15	A	2230.874377999246	streaming
444.0519	0.0868738107383251	16	diastole	16	A	2230.874377999246	streaming
444.2195	0.0868738107383251	16	diastole	17	B	500.0	streaming
444.387	0.0868738107383251	16	diastole	18	A	2230.874377999246	streaming
444.7199	0.0868738107383251	16	diastole	19	A	2230.874377999246	streaming
444.8875	0.0868738107383251	16	diastole	20	B	500.0	streaming
445.055	0.0868738107383251	16	diastole	21	A	2230.874377999246	streaming
445.3879	0.0868738107383251	16	diastole	22	A	2230.874377999246	streaming
445.5555	0.0868738107383251	16	diastole	23	B	500.0	streaming
445.723	0.0868738107383251	16	diastole	24	A	2230.874377999246	streaming
446.0888	0.0868738107383251	16	diastole	25	A	2230.874377999246	streaming
446.2566	0.0868738107383251	16	diastole	26	B	500.0	streaming
446.4242	0.0868738107383251	16	diastole	27	A	2230.874377999246	streaming
446.7888	0.0868738107383251	16	diastole	28	A	2230.874377999246	streaming
446.9566	0.0868738107383251	16	diastole	29	B	500.0	streaming
447.1242	0.0868738107383251	16	diastole	30	A	2230.874377999246	streaming
447.4868	0.0868738107383251	16	diastole	31	A	2230.874377999246	streaming
447.6546	0.0868738107383251	16	diastole	32	B	500.0	streaming
447.8223	0.0868738107383251	16	diastole	33	A	2230.874377999246	streaming
448.1575	0.0868738107383251	16	diastole	34	A	2230.874377999246	streaming
448.3249	0.0868738107383251	16	diastole	35	B	500.0	streaming
448.4924	0.0868738107383251	16	diastole	36	A	2230.874377999246	streaming
448.8295	0.0868738107383251	16	diastole	37	A	2230.874377999246	streaming
448.997	0.0868738107383251	16	diastole	38	B	500.0	streaming
449.1644	0.0868738107383251	16	diastole	39	A	2230.874377999246	streaming
449.5222	0.0868738107383251	16	diastole	40	A	2230.874377999246	streaming
449.6902	0.0868738107383251	16	diastole	41	B	500.0	streaming
449.8581	0.0868738107383251	16	diastole	42	A	2230.874377999246	streaming
450.2122	0.0868738107383251	16	diastole	43	A	2230.874377999246	streaming
450.3802	0.0868738107383251	16	diastole	44	B	500.0	streaming
450.5481	0.0868738107383251	16	diastole	45	A	2230.874377999246	streaming
453.5365	0.0861466061905957	17	diastole	1	A	2130.3297690552017	coherent
453.7065	0.0861466061905957	17	diastole	2	B	500.0	coherent
453.8766	0.0861466061905957	17	diastole	3	A	2130.3297690552017	coherent
454.2065	0.0861466061905957	17	diastole	4	A	2130.3297690552017	coherent
454.3765	0.0861466061905957	17	diastole	5	B	500.0	coherent
454.5466	0.0861466061905957	17	diastole	6	A	2130.3297690552017	coherent
454.8765	0.0861466061905957	17	diastole	7	A	2130.3297690552017	coherent
455.0466	0.0861466061905957	17	diastole	8	B	500.0	coherent
455.2166	0.0861466061905957	17	diastole	9	A	2130.3297690552017	coherent
455.5621	0.0861466061905957	17	diastole	10	A	2130.3297690552017	coherent
455.7332	0.0861466061905957	17	diastole	11	B	500.0	coherent
455.9042	0.0861466061905957	17	diastole	12	A	2130.3297690552017	coherent
456.2006	0.0861466061905957	17	diastole	13	A	2130.3297690552017	coherent
456.3696	0.0861466061905957	17	diastole	14	B	500.0	coherent
456.5386	0.0861466061905957	17	diastole	15	A	2130.3297690552017	coherent
456.886	0.0861466061905957	17	diastole	16	A	2130.3297690552017	coherent
457.0559	0.0861466061905957	17	diastole	17	B	500.0	coherent
457.2259	0.0861466061905957	17	diastole	18	A	2130.3297690552017	coherent
457.622	0.0861466061905957	17	diastole	19	A	2130.3297690552017	coherent
457.7931	0.0861466061905957	17	diastole	20	B	500.0	coherent
457.9641	0.0861466061905957	17	diastole	21	A	2130.3297690552017	coherent
458.3331	0.0861466061905957	17	diastole	22	A	2130.3297690552017	coherent
458.5044	0.0861466061905957	17	diastole	23	B	500.0	coherent
458.6756	0.0861466061905957	17	diastole	24	A	2130.3297690552017	coherent
459.0431	0.0861466061905957	17	diastole	25	A	2130.3297690552017	coherent
459.2143	0.0861466061905957	17	diastole	26	B	500.0	coherent
459.3856	0.0861466061905957	17	diastole	27	A	2130.3297690552017	coherent
459.7157	0.0861466061905957	17	diastole	28	A	2130.3297690552017	coherent
459.8857	0.0861466061905957	17	diastole	29	B	500.0	coherent
460.0557	0.0861466061905957	17	diastole	30	A	2130.3297690552017	coherent
460.4058	0.0861466061905957	17	diastole	31	A	2130.3297690552017	coherent
460.5758	0.0861466061905957	17	diastole	32	B	500.0	coherent
460.7457	0.0861466061905957	17	diastole	33	A	2130.3297690552017	coherent
461.0849	0.0861466061905957	17	diastole	34	A	2130.3297690552017	coherent
461.2561	0.0861466061905957	17	diastole	35	B	500.0	coherent
461.4274	0.0861466061905957	17	diastole	36	A	2130.3297690552017	coherent
461.7569	0.0861466061905957	17	diastole	37	A	2130.3297690552017	coherent
461.9281	0.0861466061905957	17	diastole	38	B	500.0	coherent
462.0994	0.0861466061905957	17	diastole	39	A	2130.3297690552017	coherent
462.4305	0.0861466061905957	17	diastole	40	A	2130.3297690552017	coherent
462.6005	0.0861466061905957	17	diastole	41	B	500.0	coherent
462.7705	0.0861466061905957	17	diastole	42	A	2130.3297690552017	coherent
473.0105	0.0824989472457673	18	diastole	1	A	3152.7331318609326	streaming
473.1743	0.0824989472457673	18	diastole	2	B	500.0	streaming
473.338	0.0824989472457673	18	diastole	3	A	3152.7331318609326	streaming
473.6776	0.0824989472457673	18	diastole	4	A	3152.7331318609326	streaming
473.8427	0.0824989472457673	18	diastole	5	B	500.0	streaming
474.0076	0.0824989472457673	18	diastole	6	A	3152.7331318609326	streaming
474.3376	0.0824989472457673	18	diastole	7	A	3152.7331318609326	streaming
474.5027	0.0824989472457673	18	diastole	8	B	500.0	streaming
474.6676	0.0824989472457673	18	diastole	9	A	3152.7331318609326	streaming
475.0376	0.0824989472457673	18	diastole	10	A	3152.7331318609326	streaming
475.2027	0.0824989472457673	18	diastole	11	B	500.0	streaming
475.3676	0.0824989472457673	18	diastole	12	A	3152.7331318609326	streaming
475.6976	0.0824989472457673	18	diastole	13	A	3152.7331318609326	streaming
475.8627	0.0824989472457673	18	diastole	14	B	500.0	streaming
476.0276	0.0824989472457673	18	diastole	15	A	3152.7331318609326	streaming
476.3576	0.0824989472457673	18	diastole	16	A	3152.7331318609326	streaming
476.5227	0.0824989472457673	18	diastole	17	B	500.0	streaming
476.6876	0.0824989472457673	18	diastole	18	A	3152.7331318609326	streaming
477.0448	0.0824989472457673	18	diastole	19	A	3152.7331318609326	streaming
477.2111	0.0824989472457673	18	diastole	20	B	500.0	streaming
477.3773	0.0824989472457673	18	diastole	21	A	3152.7331318609326	streaming
477.749	0.0824989472457673	18	diastole	22	A	3152.7331318609326	streaming
477.9178	0.0824989472457673	18	diastole	23	B	500.0	streaming
478.0865	0.0824989472457673	18	diastole	24	A	3152.7331318609326	streaming
478.439	0.0824989472457673	18	diastole	25	A	3152.7331318609326	streaming
478.6078	0.0824989472457673	18	diastole	26	B	500.0	streaming
478.7765	0.0824989472457673	18	diastole	27	A	3152.7331318609326	streaming
479.1261	0.0824989472457673	18	diastole	28	A	3152.7331318609326	streaming
479.2962	0.0824989472457673	18	diastole	29	B	500.0	streaming
479.4661	0.0824989472457673	18	diastole	30	A	3152.7331318609326	streaming
479.7589	0.0824989472457673	18	diastole	31	A	3152.7331318609326	streaming
479.9278	0.0824989472457673	18	diastole	32	B	500.0	streaming
480.0964	0.0824989472457673	18	diastole	33	A	3152.7331318609326	streaming
480.4019	0.0824989472457673	18	diastole	34	A	3152.7331318609326	streaming
480.5695	0.0824989472457673	18	diastole	35	B	500.0	streaming
480.7369	0.0824989472457673	18	diastole	36	A	3152.7331318609326	streaming
481.052	0.0824989472457673	18	diastole	37	A	3152.7331318609326	streaming
481.2195	0.0824989472457673	18	diastole	38	B	500.0	streaming
481.387	0.0824989472457673	18	diastole	39	A	3152.7331318609326	streaming
481.7119	0.0824989472457673	18	diastole	40	A	3152.7331318609326	streaming
481.8795	0.0824989472457673	18	diastole	41	B	500.0	streaming
482.0469	0.0824989472457673	18	diastole	42	A	3152.7331318609326	streaming
484.9708	0.0812552937422879	19	diastole	1	A	510.0000000000003	streaming
485.1346	0.0812552937422879	19	diastole	2	B	500.0	streaming
485.2983	0.0812552937422879	19	diastole	3	A	510.0000000000003	streaming
485.6408	0.0812552937422879	19	diastole	4	A	510.0000000000003	streaming
485.8046	0.0812552937422879	19	diastole	5	B	500.0	streaming
485.9683	0.0812552937422879	19	diastole	6	A	510.0000000000003	streaming
486.3179	0.0812552937422879	19	diastole	7	A	510.0000000000003	streaming
486.4829	0.0812552937422879	19	diastole	8	B	500.0	streaming
486.6479	0.0812552937422879	19	diastole	9	A	510.0000000000003	streaming
486.978	0.0812552937422879	19	diastole	10	A	510.0000000000003	streaming
487.143	0.0812552937422879	19	diastole	11	B	500.0	streaming
487.308	0.0812552937422879	19	diastole	12	A	510.0000000000003	streaming
487.638	0.0812552937422879	19	diastole	13	A	510.0000000000003	streaming
487.803	0.0812552937422879	19	diastole	14	B	500.0	streaming
487.968	0.0812552937422879	19	diastole	15	A	510.0000000000003	streaming
488.2876	0.0812552937422879	19	diastole	16	A	510.0000000000003	streaming
488.4526	0.0812552937422879	19	diastole	17	B	500.0	streaming
488.6176	0.0812552937422879	19	diastole	18	A	510.0000000000003	streaming
488.995	0.0812552937422879	19	diastole	19	A	510.0000000000003	streaming
489.1613	0.0812552937422879	19	diastole	20	B	500.0	streaming
489.3275	0.0812552937422879	19	diastole	21	A	510.0000000000003	streaming
489.7021	0.0812552937422879	19	diastole	22	A	510.0000000000003	streaming
489.8696	0.0812552937422879	19	diastole	23	B	500.0	streaming
490.0371	0.0812552937422879	19	diastole	24	A	510.0000000000003	streaming
490.3617	0.0812552937422879	19	diastole	25	A	510.0000000000003	streaming
490.5292	0.0812552937422879	19	diastole	26	B	500.0	streaming
490.6967	0.0812552937422879	19	diastole	27	A	510.0000000000003	streaming
491.0214	0.0812552937422879	19	diastole	28	A	510.0000000000003	streaming
491.1889	0.0812552937422879	19	diastole	29	B	500.0	streaming
491.3564	0.0812552937422879	19	diastole	30	A	510.0000000000003	streaming
491.6647	0.0812552937422879	19	diastole	31	A	510.0000000000003	streaming
491.831	0.0812552937422879	19	diastole	32	B	500.0	streaming
491.9972	0.0812552937422879	19	diastole	33	A	510.0000000000003	streaming
492.3342	0.0812552937422879	19	diastole	34	A	510.0000000000003	streaming
492.5004	0.0812552937422879	19	diastole	35	B	500.0	streaming
492.6666	0.0812552937422879	19	diastole	36	A	510.0000000000003	streaming
492.9502	0.0812552937422879	19	diastole	37	A	510.0000000000003	streaming
493.114	0.0812552937422879	19	diastole	38	B	500.0	streaming
493.2777	0.0812552937422879	19	diastole	39	A	510.0000000000003	streaming
493.5802	0.0812552937422879	19	diastole	40	A	510.0000000000003	streaming
493.744	0.0812552937422879	19	diastole	41	B	500.0	streaming
493.9077	0.0812552937422879	19	diastole	42	A	510.0000000000003	streaming
503.4303	0.0818494787381496	20	diastole	1	A	3080.8678562380856	streaming
503.594	0.0818494787381496	20	diastole	2	B	500.0	streaming
503.7577	0.0818494787381496	20	diastole	3	A	3080.8678562380856	streaming
504.0806	0.0818494787381496	20	diastole	4	A	3080.8678562380856	streaming
504.2444	0.0818494787381496	20	diastole	5	B	500.0	streaming
504.4081	0.0818494787381496	20	diastole	6	A	3080.8678562380856	streaming
504.7306	0.0818494787381496	20	diastole	7	A	3080.8678562380856	streaming
504.8944	0.0818494787381496	20	diastole	8	B	500.0	streaming
505.0581	0.0818494787381496	20	diastole	9	A	3080.8678562380856	streaming
505.4076	0.0818494787381496	20	diastole	10	A	3080.8678562380856	streaming
505.5727	0.0818494787381496	20	diastole	11	B	500.0	streaming
505.7376	0.0818494787381496	20	diastole	12	A	3080.8678562380856	streaming
506.0406	0.0818494787381496	20	diastole	13	A	3080.8678562380856	streaming
506.2044	0.0818494787381496	20	diastole	14	B	500.0	streaming
506.3681	0.0818494787381496	20	diastole	15	A	3080.8678562380856	streaming
506.6806	0.0818494787381496	20	diastole	16	A	3080.8678562380856	streaming
506.8444	0.0818494787381496	20	diastole	17	B	500.0	streaming
507.0081	0.0818494787381496	20	diastole	18	A	3080.8678562380856	streaming
507.3648	0.0818494787381496	20	diastole	19	A	3080.8678562380856	streaming
507.5311	0.0818494787381496	20	diastole	20	B	500.0	streaming
507.6973	0.0818494787381496	20	diastole	21	A	3080.8678562380856	streaming
508.0348	0.0818494787381496	20	diastole	22	A	3080.8678562380856	streaming
508.201	0.0818494787381496	20	diastole	23	B	500.0	streaming
508.3672	0.0818494787381496	20	diastole	24	A	3080.8678562380856	streaming
508.7348	0.0818494787381496	20	diastole	25	A	3080.8678562380856	streaming
508.9011	0.0818494787381496	20	diastole	26	B	500.0	streaming
509.0673	0.0818494787381496	20	diastole	27	A	3080.8678562380856	streaming
509.4248	0.0818494787381496	20	diastole	28	A	3080.8678562380856	streaming
509.5911	0.0818494787381496	20	diastole	29	B	500.0	streaming
509.7573	0.0818494787381496	20	diastole	30	A	3080.8678562380856	streaming
510.0506	0.0818494787381496	20	diastole	31	A	3080.8678562380856	streaming
510.2145	0.0818494787381496	20	diastole	32	B	500.0	streaming
510.3782	0.0818494787381496	20	diastole	33	A	3080.8678562380856	streaming
510.7177	0.0818494787381496	20	diastole	34	A	3080.8678562380856	streaming
510.8827	0.0818494787381496	20	diastole	35	B	500.0	streaming
511.0477	0.0818494787381496	20	diastole	36	A	3080.8678562380856	streaming
511.4048	0.0818494787381496	20	diastole	37	A	3080.8678562380856	streaming
511.5711	0.0818494787381496	20	diastole	38	B	500.0	streaming
511.7373	0.0818494787381496	20	diastole	39	A	3080.8678562380856	streaming
512.0648	0.0818494787381496	20	diastole	40	A	3080.8678562380856	streaming
512.2311	0.0818494787381496	20	diastole	41	B	500.0	streaming
512.3973	0.0818494787381496	20	diastole	42	A	3080.8678562380856	streaming
515.1598	0.0800292489293497	21	diastole	1	A	3010.640720484466	streaming
515.3198	0.0800292489293497	21	diastole	2	B	500.0	streaming
515.4799	0.0800292489293497	21	diastole	3	A	3010.640720484466	streaming
515.774	0.0800292489293497	21	diastole	4	A	3010.640720484466	streaming
515.9328	0.0800292489293497	21	diastole	5	B	500.0	streaming
516.0916	0.0800292489293497	21	diastole	6	A	3010.640720484466	streaming
516.414	0.0800292489293497	21	diastole	7	A	3010.640720484466	streaming
516.5728	0.0800292489293497	21	diastole	8	B	500.0	streaming
516.7315	0.0800292489293497	21	diastole	9	A	3010.640720484466	streaming
517.054	0.0800292489293497	21	diastole	10	A	3010.640720484466	streaming
517.2128	0.0800292489293497	21	diastole	11	B	500.0	streaming
517.3715	0.0800292489293497	21	diastole	12	A	3010.640720484466	streaming
517.694	0.0800292489293497	21	diastole	13	A	3010.640720484466	streaming
517.8528	0.0800292489293497	21	diastole	14	B	500.0	streaming
518.0115	0.0800292489293497	21	diastole	15	A	3010.640720484466	streaming
518.3053	0.0800292489293497	21	diastole	16	A	3010.640720484466	streaming
518.4629	0.0800292489293497	21	diastole	17	B	500.0	streaming
518.6204	0.0800292489293497	21	diastole	18	A	3010.640720484466	streaming
518.9238	0.0800292489293497	21	diastole	19	A	3010.640720484466	streaming
519.0813	0.0800292489293497	21	diastole	20	B	500.0	streaming
519.2388	0.0800292489293497	21	diastole	21	A	3010.640720484466	streaming
519.5737	0.0800292489293497	21	diastole	22	A	3010.640720484466	streaming
519.7312	0.0800292489293497	21	diastole	23	B	500.0	streaming
519.8887	0.0800292489293497	21	diastole	24	A	3010.640720484466	streaming
520.2208	0.0800292489293497	21	diastole	25	A	3010.640720484466	streaming
520.3796	0.0800292489293497	21	diastole	26	B	500.0	streaming
520.5383	0.0800292489293497	21	diastole	27	A	3010.640720484466	streaming
520.8609	0.0800292489293497	21	diastole	28	A	3010.640720484466	streaming
521.0196	0.0800292489293497	21	diastole	29	B	500.0	streaming
521.1784	0.0800292489293497	21	diastole	30	A	3010.640720484466	streaming
521.4839	0.0800292489293497	21	diastole	31	A	3010.640720484466	streaming
521.6414	0.0800292489293497	21	diastole	32	B	500.0	streaming
521.7989	0.0800292489293497	21	diastole	33	A	3010.640720484466	streaming
522.1138	0.0800292489293497	21	diastole	34	A	3010.640720484466	streaming
522.2714	0.0800292489293497	21	diastole	35	B	500.0	streaming
522.4288	0.0800292489293497	21	diastole	36	A	3010.640720484466	streaming
522.7339	0.0800292489293497	21	diastole	37	A	3010.640720484466	streaming
522.8914	0.0800292489293497	21	diastole	38	B	500.0	streaming
523.0489	0.0800292489293497	21	diastole	39	A	3010.640720484466	streaming
523.391	0.0800292489293497	21	diastole	40	A	3010.640720484466	streaming
523.5498	0.0800292489293497	21	diastole	41	B	500.0	streaming
523.7085	0.0800292489293497	21	diastole	42	A	3010.640720484466	streaming
523.9939	0.0800292489293497	21	diastole	43	A	3010.640720484466	streaming
524.1514	0.0800292489293497	21	diastole	44	B	500.0	streaming
524.3089	0.0800292489293497	21	diastole	45	A	3010.640720484466	streaming
526.9004	0.0787470312498044	22	systole	1	A	1253.4921645871675	coherent
527.0578	0.0787470312498044	22	systole	2	B	500.0	coherent
527.2154	0.0787470312498044	22	systole	3	A	1253.4921645871675	coherent
527.5604	0.0787470312498044	22	systole	4	A	1253.4921645871675	coherent
527.7179	0.0787470312498044	22	systole	5	B	500.0	coherent
527.8754	0.0787470312498044	22	systole	6	A	1253.4921645871675	coherent
528.2204	0.0787470312498044	22	systole	7	A	1253.4921645871675	coherent
528.3779	0.0787470312498044	22	systole	8	B	500.0	coherent
528.5354	0.0787470312498044	22	systole	9	A	1253.4921645871675	coherent
528.865	0.0787470312498044	22	systole	10	A	1253.4921645871675	coherent
529.0237	0.0787470312498044	22	systole	11	B	500.0	coherent
529.1825	0.0787470312498044	22	systole	12	A	1253.4921645871675	coherent
529.5196	0.0787470312498044	22	systole	13	A	1253.4921645871675	coherent
529.6795	0.0787470312498044	22	systole	14	B	500.0	coherent
529.8396	0.0787470312498044	22	systole	15	A	1253.4921645871675	coherent
530.1696	0.0787470312498044	22	systole	16	A	1253.4921645871675	coherent
530.3296	0.0787470312498044	22	systole	17	B	500.0	coherent
530.4896	0.0787470312498044	22	systole	18	A	1253.4921645871675	coherent
530.7996	0.0787470312498044	22	systole	19	A	1253.4921645871675	coherent
530.9595	0.0787470312498044	22	systole	20	B	500.0	coherent
531.1196	0.0787470312498044	22	systole	21	A	1253.4921645871675	coherent
531.4295	0.0787470312498044	22	systole	22	A	1253.4921645871675	coherent
531.5895	0.0787470312498044	22	systole	23	B	500.0	coherent
531.7495	0.0787470312498044	22	systole	24	A	1253.4921645871675	coherent
532.0695	0.0787470312498044	22	systole	25	A	1253.4921645871675	coherent
532.2295	0.0787470312498044	22	systole	26	B	500.0	coherent
532.3895	0.0787470312498044	22	systole	27	A	1253.4921645871675	coherent
532.7738	0.0787470312498044	22	systole	28	A	1253.4921645871675	coherent
532.9351	0.0787470312498044	22	systole	29	B	500.0	coherent
533.0964	0.0787470312498044	22	systole	30	A	1253.4921645871675	coherent
533.4735	0.0787470312498044	22	systole	31	A	1253.4921645871675	coherent
533.6347	0.0787470312498044	22	systole	32	B	500.0	coherent
533.7961	0.0787470312498044	22	systole	33	A	1253.4921645871675	coherent
534.104	0.0787470312498044	22	systole	34	A	1253.4921645871675	coherent
534.2651	0.0787470312498044	22	systole	35	B	500.0	coherent
534.4265	0.0787470312498044	22	systole	36	A	1253.4921645871675	coherent
534.7344	0.0787470312498044	22	systole	37	A	1253.4921645871675	coherent
534.8956	0.0787470312498044	22	systole	38	B	500.0	coherent
535.0569	0.0787470312498044	22	systole	39	A	1253.4921645871675	coherent
535.4251	0.0787470312498044	22	systole	40	A	1253.4921645871675	coherent
535.5888	0.0787470312498044	22	systole	41	B	500.0	coherent
535.7526	0.0787470312498044	22	systole	42	A	1253.4921645871675	coherent
536.0935	0.0787470312498044	22	systole	43	A	1253.4921645871675	coherent
536.2594	0.0787470312498044	22	systole	44	B	500.0	coherent
536.4255	0.0787470312498044	22	systole	45	A	1253.4921645871675	coherent
539.6893	0.0825231152412016	23	diastole	1	A	3010.640720484466	streaming
539.8543	0.0825231152412016	23	diastole	2	B	500.0	streaming
540.0193	0.0825231152412016	23	diastole	3	A	3010.640720484466	streaming
540.3294	0.0825231152412016	23	diastole	4	A	3010.640720484466	streaming
540.4944	0.0825231152412016	23	diastole	5	B	500.0	streaming
540.6593	0.0825231152412016	23	diastole	6	A	3010.640720484466	streaming
540.9635	0.0825231152412016	23	diastole	7	A	3010.640720484466	streaming
541.1274	0.0825231152412016	23	diastole	8	B	500.0	streaming
541.2913	0.0825231152412016	23	diastole	9	A	3010.640720484466	streaming
541.5894	0.0825231152412016	23	diastole	10	A	3010.640720484466	streaming
541.7508	0.0825231152412016	23	diastole	11	B	500.0	streaming
541.9123	0.0825231152412016	23	diastole	12	A	3010.640720484466	streaming
542.2294	0.0825231152412016	23	diastole	13	A	3010.640720484466	streaming
542.3908	0.0825231152412016	23	diastole	14	B	500.0	streaming
542.5523	0.0825231152412016	23	diastole	15	A	3010.640720484466	streaming
542.8694	0.0825231152412016	23	diastole	16	A	3010.640720484466	streaming
543.0309	0.0825231152412016	23	diastole	17	B	500.0	streaming
543.1923	0.0825231152412016	23	diastole	18	A	3010.640720484466	streaming
543.5012	0.0825231152412016	23	diastole	19	A	3010.640720484466	streaming
543.6612	0.0825231152412016	23	diastole	20	B	500.0	streaming
543.8212	0.0825231152412016	23	diastole	21	A	3010.640720484466	streaming
544.1512	0.0825231152412016	23	diastole	22	A	3010.640720484466	streaming
544.3112	0.0825231152412016	23	diastole	23	B	500.0	streaming
544.4712	0.0825231152412016	23	diastole	24	A	3010.640720484466	streaming
544.8112	0.0825231152412016	23	diastole	25	A	3010.640720484466	streaming
544.9712	0.0825231152412016	23	diastole	26	B	500.0	streaming
545.1312	0.0825231152412016	23	diastole	27	A	3010.640720484466	streaming
545.4712	0.0825231152412016	23	diastole	28	A	3010.640720484466	streaming
545.6312	0.0825231152412016	23	diastole	29	B	500.0	streaming
545.7912	0.0825231152412016	23	diastole	30	A	3010.640720484466	streaming
546.1312	0.0825231152412016	23	diastole	31	A	3010.640720484466	streaming
546.2912	0.0825231152412016	23	diastole	32	B	500.0	streaming
546.4512	0.0825231152412016	23	diastole	33	A	3010.640720484466	streaming
546.8423	0.0825231152412016	23	diastole	34	A	3010.640720484466	streaming
547.0061	0.0825231152412016	23	diastole	35	B	500.0	streaming
547.1698	0.0825231152412016	23	diastole	36	A	3010.640720484466	streaming
547.4924	0.0825231152412016	23	diastole	37	A	3010.640720484466	streaming
547.6562	0.0825231152412016	23	diastole	38	B	500.0	streaming
547.8199	0.0825231152412016	23	diastole	39	A	3010.640720484466	streaming
548.1425	0.0825231152412016	23	diastole	40	A	3010.640720484466	streaming
548.3063	0.0825231152412016	23	diastole	41	B	500.0	streaming
548.47	0.0825231152412016	23	diastole	42	A	3010.640720484466	streaming
552.7677	0.0830246749974321	24	diastole	1	A	2942.014383864825	streaming
552.9327	0.0830246749974321	24	diastole	2	B	500.0	streaming
553.0977	0.0830246749974321	24	diastole	3	A	2942.014383864825	streaming
553.3908	0.0830246749974321	24	diastole	4	A	2942.014383864825	streaming
553.5545	0.0830246749974321	24	diastole	5	B	500.0	streaming
553.7183	0.0830246749974321	24	diastole	6	A	2942.014383864825	streaming
554.0209	0.0830246749974321	24	diastole	7	A	2942.014383864825	streaming
554.1846	0.0830246749974321	24	diastole	8	B	500.0	streaming
554.3484	0.0830246749974321	24	diastole	9	A	2942.014383864825	streaming
554.6508	0.0830246749974321	24	diastole	10	A	2942.014383864825	streaming
554.8146	0.0830246749974321	24	diastole	11	B	500.0	streaming
554.9783	0.0830246749974321	24	diastole	12	A	2942.014383864825	streaming
555.3278	0.0830246749974321	24	diastole	13	A	2942.014383864825	streaming
555.4928	0.0830246749974321	24	diastole	14	B	500.0	streaming
555.6578	0.0830246749974321	24	diastole	15	A	2942.014383864825	streaming
556.0038	0.0830246749974321	24	diastole	16	A	2942.014383864825	streaming
556.1699	0.0830246749974321	24	diastole	17	B	500.0	streaming
556.3359	0.0830246749974321	24	diastole	18	A	2942.014383864825	streaming
556.675	0.0830246749974321	24	diastole	19	A	2942.014383864825	streaming
556.8412	0.0830246749974321	24	diastole	20	B	500.0	streaming
557.0075	0.0830246749974321	24	diastole	21	A	2942.014383864825	streaming
557.3721	0.0830246749974321	24	diastole	22	A	2942.014383864825	streaming
557.5396	0.0830246749974321	24	diastole	23	B	500.0	streaming
557.7071	0.0830246749974321	24	diastole	24	A	2942.014383864825	streaming
558.062	0.0830246749974321	24	diastole	25	A	2942.014383864825	streaming
558.2295	0.0830246749974321	24	diastole	26	B	500.0	streaming
558.397	0.0830246749974321	24	diastole	27	A	2942.014383864825	streaming
558.8122	0.0830246749974321	24	diastole	28	A	2942.014383864825	streaming
558.9797	0.0830246749974321	24	diastole	29	B	500.0	streaming
559.1472	0.0830246749974321	24	diastole	30	A	2942.014383864825	streaming
559.546	0.0830246749974321	24	diastole	31	A	2942.014383864825	streaming
559.716	0.0830246749974321	24	diastole	32	B	500.0	streaming
559.886	0.0830246749974321	24	diastole	33	A	2942.014383864825	streaming
560.2657	0.0830246749974321	24	diastole	34	A	2942.014383864825	streaming
560.4357	0.0830246749974321	24	diastole	35	B	500.0	streaming
560.6057	0.0830246749974321	24	diastole	36	A	2942.014383864825	streaming
560.9854	0.0830246749974321	24	diastole	37	A	2942.014383864825	streaming
561.1554	0.0830246749974321	24	diastole	38	B	500.0	streaming
561.3254	0.0830246749974321	24	diastole	39	A	2942.014383864825	streaming
561.7466	0.0830246749974321	24	diastole	40	A	2942.014383864825	streaming
561.9203	0.0830246749974321	24	diastole	41	B	500.0	streaming
562.0941	0.0830246749974321	24	diastole	42	A	2942.014383864825	streaming
631.597	0.0868587998847942	25	diastole	1	A	2874.952356810848	coherent
631.7707	0.0868587998847942	25	diastole	2	B	500.0	coherent
631.9444	0.0868587998847942	25	diastole	3	A	2874.952356810848	coherent
632.3843	0.0868587998847942	25	diastole	4	A	2874.952356810848	coherent
632.5593	0.0868587998847942	25	diastole	5	B	500.0	coherent
632.7343	0.0868587998847942	25	diastole	6	A	2874.952356810848	coherent
633.1997	0.0868587998847942	25	diastole	7	A	2874.952356810848	coherent
633.3809	0.0868587998847942	25	diastole	8	B	500.0	coherent
633.5622	0.0868587998847942	25	diastole	9	A	2874.952356810848	coherent
633.9368	0.0868587998847942	25	diastole	10	A	2874.952356810848	coherent
634.1192	0.0868587998847942	25	diastole	11	B	500.0	coherent
634.3018	0.0868587998847942	25	diastole	12	A	2874.952356810848	coherent
634.6667	0.0868587998847942	25	diastole	13	A	2874.952356810848	coherent
634.8492	0.0868587998847942	25	diastole	14	B	500.0	coherent
635.0317	0.0868587998847942	25	diastole	15	A	2874.952356810848	coherent
635.3967	0.0868587998847942	25	diastole	16	A	2874.952356810848	coherent
635.5791	0.0868587998847942	25	diastole	17	B	500.0	coherent
635.7617	0.0868587998847942	25	diastole	18	A	2874.952356810848	coherent
636.1266	0.0868587998847942	25	diastole	19	A	2874.952356810848	coherent
636.3091	0.0868587998847942	25	diastole	20	B	500.0	coherent
636.4916	0.0868587998847942	25	diastole	21	A	2874.952356810848	coherent
636.8566	0.0868587998847942	25	diastole	22	A	2874.952356810848	coherent
637.0391	0.0868587998847942	25	diastole	23	B	500.0	coherent
637.2216	0.0868587998847942	25	diastole	24	A	2874.952356810848	coherent
637.6341	0.0868587998847942	25	diastole	25	A	2874.952356810848	coherent
637.8178	0.0868587998847942	25	diastole	26	B	500.0	coherent
638.0016	0.0868587998847942	25	diastole	27	A	2874.952356810848	coherent
638.3466	0.0868587998847942	25	diastole	28	A	2874.952356810848	coherent
638.5291	0.0868587998847942	25	diastole	29	B	500.0	coherent
638.7116	0.0868587998847942	25	diastole	30	A	2874.952356810848	coherent
639.0266	0.0868587998847942	25	diastole	31	A	2874.952356810848	coherent
639.2091	0.0868587998847942	25	diastole	32	B	500.0	coherent
639.3916	0.0868587998847942	25	diastole	33	A	2874.952356810848	coherent
639.7927	0.0868587998847942	25	diastole	34	A	2874.952356810848	coherent
639.9777	0.0868587998847942	25	diastole	35	B	500.0	coherent
640.1628	0.0868587998847942	25	diastole	36	A	2874.952356810848	coherent
640.5065	0.0868587998847942	25	diastole	37	A	2874.952356810848	coherent
640.689	0.0868587998847942	25	diastole	38	B	500.0	coherent
640.8716	0.0868587998847942	25	diastole	39	A	2874.952356810848	coherent
642.9666	0.091771363891894	26	systole	1	A	2130.3297690552017	streaming
643.1476	0.091771363891894	26	systole	2	B	500.0	streaming
643.3287	0.091771363891894	26	systole	3	A	2130.3297690552017	streaming
643.6265	0.091771363891894	26	systole	4	A	2130.3297690552017	streaming
643.8076	0.091771363891894	26	systole	5	B	500.0	streaming
643.9886	0.091771363891894	26	systole	6	A	2130.3297690552017	streaming
644.3066	0.091771363891894	26	systole	7	A	2130.3297690552017	streaming
644.4876	0.091771363891894	26	systole	8	B	500.0	streaming
644.6687	0.091771363891894	26	systole	9	A	2130.3297690552017	streaming
644.9866	0.091771363891894	26	systole	10	A	2130.3297690552017	streaming
645.1676	0.091771363891894	26	systole	11	B	500.0	streaming
645.3487	0.091771363891894	26	systole	12	A	2130.3297690552017	streaming
645.7027	0.091771363891894	26	systole	13	A	2130.3297690552017	streaming
645.8827	0.091771363891894	26	systole	14	B	500.0	streaming
646.0627	0.091771363891894	26	systole	15	A	2130.3297690552017	streaming
646.3361	0.091771363891894	26	systole	16	A	2130.3297690552017	streaming
646.5061	0.091771363891894	26	systole	17	B	500.0	streaming
646.6761	0.091771363891894	26	systole	18	A	2130.3297690552017	streaming
647.0306	0.091771363891894	26	systole	19	A	2130.3297690552017	streaming
647.2019	0.091771363891894	26	systole	20	B	500.0	streaming
647.3731	0.091771363891894	26	systole	21	A	2130.3297690552017	streaming
647.7206	0.091771363891894	26	systole	22	A	2130.3297690552017	streaming
647.8919	0.091771363891894	26	systole	23	B	500.0	streaming
648.0631	0.091771363891894	26	systole	24	A	2130.3297690552017	streaming
648.4106	0.091771363891894	26	systole	25	A	2130.3297690552017	streaming
648.5819	0.091771363891894	26	systole	26	B	500.0	streaming
648.7531	0.091771363891894	26	systole	27	A	2130.3297690552017	streaming
649.0661	0.091771363891894	26	systole	28	A	2130.3297690552017	streaming
649.2361	0.091771363891894	26	systole	29	B	500.0	streaming
649.4061	0.091771363891894	26	systole	30	A	2130.3297690552017	streaming
649.7606	0.091771363891894	26	systole	31	A	2130.3297690552017	streaming
649.9318	0.091771363891894	26	systole	32	B	500.0	streaming
650.1031	0.091771363891894	26	systole	33	A	2130.3297690552017	streaming
650.4652	0.091771363891894	26	systole	34	A	2130.3297690552017	streaming
650.6377	0.091771363891894	26	systole	35	B	500.0	streaming
650.8102	0.091771363891894	26	systole	36	A	2130.3297690552017	streaming
651.1652	0.091771363891894	26	systole	37	A	2130.3297690552017	streaming
651.3377	0.091771363891894	26	systole	38	B	500.0	streaming
651.5102	0.091771363891894	26	systole	39	A	2130.3297690552017	streaming
651.8152	0.091771363891894	26	systole	40	A	2130.3297690552017	streaming
651.9877	0.091771363891894	26	systole	41	B	500.0	streaming
652.1602	0.091771363891894	26	systole	42	A	2130.3297690552017	streaming
652.4752	0.091771363891894	26	systole	43	A	2130.3297690552017	streaming
652.6477	0.091771363891894	26	systole	44	B	500.0	streaming
652.8202	0.091771363891894	26	systole	45	A	2130.3297690552017	streaming
656.1214	0.0831277437100652	27	diastole	1	A	3538.000656405778	streaming
656.289	0.0831277437100652	27	diastole	2	B	500.0	streaming
656.4563	0.0831277437100652	27	diastole	3	A	3538.000656405778	streaming
656.791	0.0831277437100652	27	diastole	4	A	3538.000656405778	streaming
656.9587	0.0831277437100652	27	diastole	5	B	500.0	streaming
657.126	0.0831277437100652	27	diastole	6	A	3538.000656405778	streaming
657.5811	0.0831277437100652	27	diastole	7	A	3538.000656405778	streaming
657.7487	0.0831277437100652	27	diastole	8	B	500.0	streaming
657.916	0.0831277437100652	27	diastole	9	A	3538.000656405778	streaming
658.2711	0.0831277437100652	27	diastole	10	A	3538.000656405778	streaming
658.4387	0.0831277437100652	27	diastole	11	B	500.0	streaming
658.606	0.0831277437100652	27	diastole	12	A	3538.000656405778	streaming
658.9611	0.0831277437100652	27	diastole	13	A	3538.000656405778	streaming
659.1287	0.0831277437100652	27	diastole	14	B	500.0	streaming
659.296	0.0831277437100652	27	diastole	15	A	3538.000656405778	streaming
659.6884	0.0831277437100652	27	diastole	16	A	3538.000656405778	streaming
659.8573	0.0831277437100652	27	diastole	17	B	500.0	streaming
660.0259	0.0831277437100652	27	diastole	18	A	3538.000656405778	streaming
660.4083	0.0831277437100652	27	diastole	19	A	3538.000656405778	streaming
660.5772	0.0831277437100652	27	diastole	20	B	500.0	streaming
660.7458	0.0831277437100652	27	diastole	21	A	3538.000656405778	streaming
661.2025	0.0831277437100652	27	diastole	22	A	3538.000656405778	streaming
661.374	0.0831277437100652	27	diastole	23	B	500.0	streaming
661.545	0.0831277437100652	27	diastole	24	A	3538.000656405778	streaming
661.9556	0.0831277437100652	27	diastole	25	A	3538.000656405778	streaming
662.1345	0.0831277437100652	27	diastole	26	B	500.0	streaming
662.3131	0.0831277437100652	27	diastole	27	A	3538.000656405778	streaming
662.6824	0.0831277437100652	27	diastole	28	A	3538.000656405778	streaming
662.8625	0.0831277437100652	27	diastole	29	B	500.0	streaming
663.0423	0.0831277437100652	27	diastole	30	A	3538.000656405778	streaming
663.4023	0.0831277437100652	27	diastole	31	A	3538.000656405778	streaming
663.5825	0.0831277437100652	27	diastole	32	B	500.0	streaming
663.7623	0.0831277437100652	27	diastole	33	A	3538.000656405778	streaming
664.1223	0.0831277437100652	27	diastole	34	A	3538.000656405778	streaming
664.3024	0.0831277437100652	27	diastole	35	B	500.0	streaming
664.4823	0.0831277437100652	27	diastole	36	A	3538.000656405778	streaming
664.8422	0.0831277437100652	27	diastole	37	A	3538.000656405778	streaming
665.0224	0.0831277437100652	27	diastole	38	B	500.0	streaming
665.2022	0.0831277437100652	27	diastole	39	A	3538.000656405778	streaming
665.5325	0.0831277437100652	27	diastole	40	A	3538.000656405778	streaming
665.7127	0.0831277437100652	27	diastole	41	B	500.0	streaming
665.8925	0.0831277437100652	27	diastole	42	A	3538.000656405778	streaming
667.9502	0.0881232930696569	28	systole	1	A	1374.6058324966025	coherent
668.124	0.0881232930696569	28	systole	2	B	500.0	coherent
668.2978	0.0881232930696569	28	systole	3	A	1374.6058324966025	coherent
668.6055	0.0881232930696569	28	systole	4	A	1374.6058324966025	coherent
668.7781	0.0881232930696569	28	systole	5	B	500.0	coherent
668.9506	0.0881232930696569	28	systole	6	A	1374.6058324966025	coherent
669.2449	0.0881232930696569	28	systole	7	A	1374.6058324966025	coherent
669.4175	0.0881232930696569	28	systole	8	B	500.0	coherent
669.5899	0.0881232930696569	28	systole	9	A	1374.6058324966025	coherent
669.9204	0.0881232930696569	28	systole	10	A	1374.6058324966025	coherent
670.0917	0.0881232930696569	28	systole	11	B	500.0	coherent
670.2629	0.0881232930696569	28	systole	12	A	1374.6058324966025	coherent
670.5959	0.0881232930696569	28	systole	13	A	1374.6058324966025	coherent
670.7659	0.0881232930696569	28	systole	14	B	500.0	coherent
670.9359	0.0881232930696569	28	systole	15	A	1374.6058324966025	coherent
671.2759	0.0881232930696569	28	systole	16	A	1374.6058324966025	coherent
671.446	0.0881232930696569	28	systole	17	B	500.0	coherent
671.6159	0.0881232930696569	28	systole	18	A	1374.6058324966025	coherent
671.9559	0.0881232930696569	28	systole	19	A	1374.6058324966025	coherent
672.126	0.0881232930696569	28	systole	20	B	500.0	coherent
672.2959	0.0881232930696569	28	systole	21	A	1374.6058324966025	coherent
672.6213	0.0881232930696569	28	systole	22	A	1374.6058324966025	coherent
672.7901	0.0881232930696569	28	systole	23	B	500.0	coherent
672.9588	0.0881232930696569	28	systole	24	A	1374.6058324966025	coherent
673.3013	0.0881232930696569	28	systole	25	A	1374.6058324966025	coherent
673.4701	0.0881232930696569	28	systole	26	B	500.0	coherent
673.6388	0.0881232930696569	28	systole	27	A	1374.6058324966025	coherent
673.9814	0.0881232930696569	28	systole	28	A	1374.6058324966025	coherent
674.1501	0.0881232930696569	28	systole	29	B	500.0	coherent
674.3189	0.0881232930696569	28	systole	30	A	1374.6058324966025	coherent
674.6859	0.0881232930696569	28	systole	31	A	1374.6058324966025	coherent
674.8559	0.0881232930696569	28	systole	32	B	500.0	coherent
675.0259	0.0881232930696569	28	systole	33	A	1374.6058324966025	coherent
675.3761	0.0881232930696569	28	systole	34	A	1374.6058324966025	coherent
675.5461	0.0881232930696569	28	systole	35	B	500.0	coherent
675.7161	0.0881232930696569	28	systole	36	A	1374.6058324966025	coherent
676.046	0.0881232930696569	28	systole	37	A	1374.6058324966025	coherent
676.2161	0.0881232930696569	28	systole	38	B	500.0	coherent
676.386	0.0881232930696569	28	systole	39	A	1374.6058324966025	coherent
676.706	0.0881232930696569	28	systole	40	A	1374.6058324966025	coherent
676.8761	0.0881232930696569	28	systole	41	B	500.0	coherent
677.0461	0.0881232930696569	28	systole	42	A	1374.6058324966025	coherent
677.3962	0.0881232930696569	28	systole	43	A	1374.6058324966025	coherent
677.5663	0.0881232930696569	28	systole	44	B	500.0	coherent
677.7362	0.0881232930696569	28	systole	45	A	1374.6058324966025	coherent
679.5053	0.0856360374891664	29	systole	1	A	1855.0772444844133	streaming
679.6781	0.0856360374891664	29	systole	2	B	500.0	streaming
679.8504	0.0856360374891664	29	systole	3	A	1855.0772444844133	streaming
680.2053	0.0856360374891664	29	systole	4	A	1855.0772444844133	streaming
680.3781	0.0856360374891664	29	systole	5	B	500.0	streaming
680.5504	0.0856360374891664	29	systole	6	A	1855.0772444844133	streaming
680.9053	0.0856360374891664	29	systole	7	A	1855.0772444844133	streaming
681.0781	0.0856360374891664	29	systole	8	B	500.0	streaming
681.2504	0.0856360374891664	29	systole	9	A	1855.0772444844133	streaming
681.5568	0.0856360374891664	29	systole	10	A	1855.0772444844133	streaming
681.7245	0.0856360374891664	29	systole	11	B	500.0	streaming
681.8918	0.0856360374891664	29	systole	12	A	1855.0772444844133	streaming
682.2268	0.0856360374891664	29	systole	13	A	1855.0772444844133	streaming
682.3945	0.0856360374891664	29	systole	14	B	500.0	streaming
682.5617	0.0856360374891664	29	systole	15	A	1855.0772444844133	streaming
682.8968	0.0856360374891664	29	systole	16	A	1855.0772444844133	streaming
683.0645	0.0856360374891664	29	systole	17	B	500.0	streaming
683.2318	0.0856360374891664	29	systole	18	A	1855.0772444844133	streaming
683.5668	0.0856360374891664	29	systole	19	A	1855.0772444844133	streaming
683.7346	0.0856360374891664	29	systole	20	B	500.0	streaming
683.9018	0.0856360374891664	29	systole	21	A	1855.0772444844133	streaming
684.2367	0.0856360374891664	29	systole	22	A	1855.0772444844133	streaming
684.4045	0.0856360374891664	29	systole	23	B	500.0	streaming
684.5717	0.0856360374891664	29	systole	24	A	1855.0772444844133	streaming
684.9364	0.0856360374891664	29	systole	25	A	1855.0772444844133	streaming
685.1042	0.0856360374891664	29	systole	26	B	500.0	streaming
685.2714	0.0856360374891664	29	systole	27	A	1855.0772444844133	streaming
685.6168	0.0856360374891664	29	systole	28	A	1855.0772444844133	streaming
685.7846	0.0856360374891664	29	systole	29	B	500.0	streaming
685.9518	0.0856360374891664	29	systole	30	A	1855.0772444844133	streaming
686.2765	0.0856360374891664	29	systole	31	A	1855.0772444844133	streaming
686.4442	0.0856360374891664	29	systole	32	B	500.0	streaming
686.6115	0.0856360374891664	29	systole	33	A	1855.0772444844133	streaming
686.9362	0.0856360374891664	29	systole	34	A	1855.0772444844133	streaming
687.1039	0.0856360374891664	29	systole	35	B	500.0	streaming
687.2712	0.0856360374891664	29	systole	36	A	1855.0772444844133	streaming
687.5959	0.0856360374891664	29	systole	37	A	1855.0772444844133	streaming
687.7636	0.0856360374891664	29	systole	38	B	500.0	streaming
687.9309	0.0856360374891664	29	systole	39	A	1855.0772444844133	streaming
688.2505	0.0856360374891664	29	systole	40	A	1855.0772444844133	streaming
688.4195	0.0856360374891664	29	systole	41	B	500.0	streaming
688.588	0.0856360374891664	29	systole	42	A	1855.0772444844133	streaming
688.8906	0.0856360374891664	29	systole	43	A	1855.0772444844133	streaming
689.0597	0.0856360374891664	29	systole	44	B	500.0	streaming
689.2281	0.0856360374891664	29	systole	45	A	1855.0772444844133	streaming
692.6685	0.084377500868868	30	diastole	1	A	3538.000656405778	streaming
692.8375	0.084377500868868	30	diastole	2	B	500.0	streaming
693.006	0.084377500868868	30	diastole	3	A	3538.000656405778	streaming
693.3584	0.084377500868868	30	diastole	4	A	3538.000656405778	streaming
693.5274	0.084377500868868	30	diastole	5	B	500.0	streaming
693.6959	0.084377500868868	30	diastole	6	A	3538.000656405778	streaming
694.0826	0.084377500868868	30	diastole	7	A	3538.000656405778	streaming
694.254	0.084377500868868	30	diastole	8	B	500.0	streaming
694.4251	0.084377500868868	30	diastole	9	A	3538.000656405778	streaming
694.85	0.084377500868868	30	diastole	10	A	3538.000656405778	streaming
695.0227	0.084377500868868	30	diastole	11	B	500.0	streaming
695.195	0.084377500868868	30	diastole	12	A	3538.000656405778	streaming
695.6103	0.084377500868868	30	diastole	13	A	3538.000656405778	streaming
695.783	0.084377500868868	30	diastole	14	B	500.0	streaming
695.9553	0.084377500868868	30	diastole	15	A	3538.000656405778	streaming
696.2908	0.084377500868868	30	diastole	16	A	3538.000656405778	streaming
696.4635	0.084377500868868	30	diastole	17	B	500.0	streaming
696.6358	0.084377500868868	30	diastole	18	A	3538.000656405778	streaming
696.9977	0.084377500868868	30	diastole	19	A	3538.000656405778	streaming
697.1716	0.084377500868868	30	diastole	20	B	500.0	streaming
697.3451	0.084377500868868	30	diastole	21	A	3538.000656405778	streaming
697.6877	0.084377500868868	30	diastole	22	A	3538.000656405778	streaming
697.8616	0.084377500868868	30	diastole	23	B	500.0	streaming
698.0351	0.084377500868868	30	diastole	24	A	3538.000656405778	streaming
698.3676	0.084377500868868	30	diastole	25	A	3538.000656405778	streaming
698.5415	0.084377500868868	30	diastole	26	B	500.0	streaming
698.715	0.084377500868868	30	diastole	27	A	3538.000656405778	streaming
699.0107	0.084377500868868	30	diastole	28	A	3538.000656405778	streaming
699.1834	0.084377500868868	30	diastole	29	B	500.0	streaming
699.3557	0.084377500868868	30	diastole	30	A	3538.000656405778	streaming
699.6607	0.084377500868868	30	diastole	31	A	3538.000656405778	streaming
699.8334	0.084377500868868	30	diastole	32	B	500.0	streaming
700.0057	0.084377500868868	30	diastole	33	A	3538.000656405778	streaming
700.3505	0.084377500868868	30	diastole	34	A	3538.000656405778	streaming
700.5232	0.084377500868868	30	diastole	35	B	500.0	streaming
700.6955	0.084377500868868	30	diastole	36	A	3538.000656405778	streaming
701.0774	0.084377500868868	30	diastole	37	A	3538.000656405778	streaming
701.2513	0.084377500868868	30	diastole	38	B	500.0	streaming
701.4248	0.084377500868868	30	diastole	39	A	3538.000656405778	streaming
701.7974	0.084377500868868	30	diastole	40	A	3538.000656405778	streaming
701.9713	0.084377500868868	30	diastole	41	B	500.0	streaming
702.1448	0.084377500868868	30	diastole	42	A	3538.000656405778	streaming
706.0447	0.0875143004523124	31	diastole	1	A	510.0000000000003	streaming
706.2198	0.0875143004523124	31	diastole	2	B	500.0	streaming
706.3948	0.0875143004523124	31	diastole	3	A	510.0000000000003	streaming
706.7247	0.0875143004523124	31	diastole	4	A	510.0000000000003	streaming
706.8997	0.0875143004523124	31	diastole	5	B	500.0	streaming
707.0748	0.0875143004523124	31	diastole	6	A	510.0000000000003	streaming
707.4047	0.0875143004523124	31	diastole	7	A	510.0000000000003	streaming
707.5797	0.0875143004523124	31	diastole	8	B	500.0	streaming
707.7547	0.0875143004523124	31	diastole	9	A	510.0000000000003	streaming
708.0445	0.0875143004523124	31	diastole	10	A	510.0000000000003	streaming
708.2195	0.0875143004523124	31	diastole	11	B	500.0	streaming
708.3945	0.0875143004523124	31	diastole	12	A	510.0000000000003	streaming
708.6908	0.0875143004523124	31	diastole	13	A	510.0000000000003	streaming
708.8633	0.0875143004523124	31	diastole	14	B	500.0	streaming
709.0358	0.0875143004523124	31	diastole	15	A	510.0000000000003	streaming
709.3462	0.0875143004523124	31	diastole	16	A	510.0000000000003	streaming
709.5162	0.0875143004523124	31	diastole	17	B	500.0	streaming
709.6862	0.0875143004523124	31	diastole	18	A	510.0000000000003	streaming
709.9988	0.0875143004523124	31	diastole	19	A	510.0000000000003	streaming
710.1676	0.0875143004523124	31	diastole	20	B	500.0	streaming
710.3362	0.0875143004523124	31	diastole	21	A	510.0000000000003	streaming
710.6416	0.0875143004523124	31	diastole	22	A	510.0000000000003	streaming
710.809	0.0875143004523124	31	diastole	23	B	500.0	streaming
710.9764	0.0875143004523124	31	diastole	24	A	510.0000000000003	streaming
711.3116	0.0875143004523124	31	diastole	25	A	510.0000000000003	streaming
711.479	0.0875143004523124	31	diastole	26	B	500.0	streaming
711.6464	0.0875143004523124	31	diastole	27	A	510.0000000000003	streaming
712.0116	0.0875143004523124	31	diastole	28	A	510.0000000000003	streaming
712.179	0.0875143004523124	31	diastole	29	B	500.0	streaming
712.3464	0.0875143004523124	31	diastole	30	A	510.0000000000003	streaming
712.7116	0.0875143004523124	31	diastole	31	A	510.0000000000003	streaming
712.879	0.0875143004523124	31	diastole	32	B	500.0	streaming
713.0464	0.0875143004523124	31	diastole	33	A	510.0000000000003	streaming
713.4116	0.0875143004523124	31	diastole	34	A	510.0000000000003	streaming
713.579	0.0875143004523124	31	diastole	35	B	500.0	streaming
713.7464	0.0875143004523124	31	diastole	36	A	510.0000000000003	streaming
714.1016	0.0875143004523124	31	diastole	37	A	510.0000000000003	streaming
714.269	0.0875143004523124	31	diastole	38	B	500.0	streaming
714.4364	0.0875143004523124	31	diastole	39	A	510.0000000000003	streaming
714.7918	0.0875143004523124	31	diastole	40	A	510.0000000000003	streaming
714.9593	0.0875143004523124	31	diastole	41	B	500.0	streaming
715.1267	0.0875143004523124	31	diastole	42	A	510.0000000000003	streaming
715.4963	0.0875143004523124	31	diastole	43	A	510.0000000000003	streaming
715.6663	0.0875143004523124	31	diastole	44	B	500.0	streaming
715.8362	0.0875143004523124	31	diastole	45	A	510.0000000000003	streaming
724.0578	0.0831269437039736	32	diastole	1	A	3538.000656405778	streaming
724.2231	0.0831269437039736	32	diastole	2	B	500.0	streaming
724.3879	0.0831269437039736	32	diastole	3	A	3538.000656405778	streaming
724.7078	0.0831269437039736	32	diastole	4	A	3538.000656405778	streaming
724.873	0.0831269437039736	32	diastole	5	B	500.0	streaming
725.0379	0.0831269437039736	32	diastole	6	A	3538.000656405778	streaming
725.3578	0.0831269437039736	32	diastole	7	A	3538.000656405778	streaming
725.523	0.0831269437039736	32	diastole	8	B	500.0	streaming
725.6879	0.0831269437039736	32	diastole	9	A	3538.000656405778	streaming
726.0587	0.0831269437039736	32	diastole	10	A	3538.000656405778	streaming
726.2277	0.0831269437039736	32	diastole	11	B	500.0	streaming
726.3962	0.0831269437039736	32	diastole	12	A	3538.000656405778	streaming
726.6988	0.0831269437039736	32	diastole	13	A	3538.000656405778	streaming
726.8677	0.0831269437039736	32	diastole	14	B	500.0	streaming
727.0362	0.0831269437039736	32	diastole	15	A	3538.000656405778	streaming
727.3688	0.0831269437039736	32	diastole	16	A	3538.000656405778	streaming
727.5378	0.0831269437039736	32	diastole	17	B	500.0	streaming
727.7063	0.0831269437039736	32	diastole	18	A	3538.000656405778	streaming
728.0389	0.0831269437039736	32	diastole	19	A	3538.000656405778	streaming
728.2078	0.0831269437039736	32	diastole	20	B	500.0	streaming
728.3764	0.0831269437039736	32	diastole	21	A	3538.000656405778	streaming
728.7259	0.0831269437039736	32	diastole	22	A	3538.000656405778	streaming
728.8961	0.0831269437039736	32	diastole	23	B	500.0	streaming
729.0659	0.0831269437039736	32	diastole	24	A	3538.000656405778	streaming
729.3448	0.0831269437039736	32	diastole	25	A	3538.000656405778	streaming
729.5112	0.0831269437039736	32	diastole	26	B	500.0	streaming
729.6773	0.0831269437039736	32	diastole	27	A	3538.000656405778	streaming
729.9808	0.0831269437039736	32	diastole	28	A	3538.000656405778	streaming
730.1447	0.0831269437039736	32	diastole	29	B	500.0	streaming
730.3083	0.0831269437039736	32	diastole	30	A	3538.000656405778	streaming
730.6309	0.0831269437039736	32	diastole	31	A	3538.000656405778	streaming
730.7948	0.0831269437039736	32	diastole	32	B	500.0	streaming
730.9584	0.0831269437039736	32	diastole	33	A	3538.000656405778	streaming
731.3446	0.0831269437039736	32	diastole	34	A	3538.000656405778	streaming
731.5111	0.0831269437039736	32	diastole	35	B	500.0	streaming
731.6772	0.0831269437039736	32	diastole	36	A	3538.000656405778	streaming
732.0047	0.0831269437039736	32	diastole	37	A	3538.000656405778	streaming
732.1711	0.0831269437039736	32	diastole	38	B	500.0	streaming
732.3372	0.0831269437039736	32	diastole	39	A	3538.000656405778	streaming
732.6647	0.0831269437039736	32	diastole	40	A	3538.000656405778	streaming
732.8312	0.0831269437039736	32	diastole	41	B	500.0	streaming
732.9972	0.0831269437039736	32	diastole	42	A	3538.000656405778	streaming
735.8305	0.085627305903472	33	systole	1	A	1542.5842068661057	coherent
736.0018	0.085627305903472	33	systole	2	B	500.0	coherent
736.173	0.085627305903472	33	systole	3	A	1542.5842068661057	coherent
736.5104	0.085627305903472	33	systole	4	A	1542.5842068661057	coherent
736.6818	0.085627305903472	33	systole	5	B	500.0	coherent
736.8529	0.085627305903472	33	systole	6	A	1542.5842068661057	coherent
737.1504	0.085627305903472	33	systole	7	A	1542.5842068661057	coherent
737.3218	0.085627305903472	33	systole	8	B	500.0	coherent
737.4929	0.085627305903472	33	systole	9	A	1542.5842068661057	coherent
737.7858	0.085627305903472	33	systole	10	A	1542.5842068661057	coherent
737.956	0.085627305903472	33	systole	11	B	500.0	coherent
738.1258	0.085627305903472	33	systole	12	A	1542.5842068661057	coherent
738.4166	0.085627305903472	33	systole	13	A	1542.5842068661057	coherent
738.5843	0.085627305903472	33	systole	14	B	500.0	coherent
738.7516	0.085627305903472	33	systole	15	A	1542.5842068661057	coherent
739.0566	0.085627305903472	33	systole	16	A	1542.5842068661057	coherent
739.2243	0.085627305903472	33	systole	17	B	500.0	coherent
739.3916	0.085627305903472	33	systole	18	A	1542.5842068661057	coherent
739.6783	0.085627305903472	33	systole	19	A	1542.5842068661057	coherent
739.8409	0.085627305903472	33	systole	20	B	500.0	coherent
740.0033	0.085627305903472	33	systole	21	A	1542.5842068661057	coherent
740.3137	0.085627305903472	33	systole	22	A	1542.5842068661057	coherent
740.4751	0.085627305903472	33	systole	23	B	500.0	coherent
740.6362	0.085627305903472	33	systole	24	A	1542.5842068661057	coherent
740.9491	0.085627305903472	33	systole	25	A	1542.5842068661057	coherent
741.1093	0.085627305903472	33	systole	26	B	500.0	coherent
741.2692	0.085627305903472	33	systole	27	A	1542.5842068661057	coherent
741.5892	0.085627305903472	33	systole	28	A	1542.5842068661057	coherent
741.7493	0.085627305903472	33	systole	29	B	500.0	coherent
741.9092	0.085627305903472	33	systole	30	A	1542.5842068661057	coherent
742.2495	0.085627305903472	33	systole	31	A	1542.5842068661057	coherent
742.4096	0.085627305903472	33	systole	32	B	500.0	coherent
742.5694	0.085627305903472	33	systole	33	A	1542.5842068661057	coherent
742.9097	0.085627305903472	33	systole	34	A	1542.5842068661057	coherent
743.0699	0.085627305903472	33	systole	35	B	500.0	coherent
743.2297	0.085627305903472	33	systole	36	A	1542.5842068661057	coherent
743.5959	0.085627305903472	33	systole	37	A	1542.5842068661057	coherent
743.7573	0.085627305903472	33	systole	38	B	500.0	coherent
743.9184	0.085627305903472	33	systole	39	A	1542.5842068661057	coherent
744.335	0.085627305903472	33	systole	40	A	1542.5842068661057	coherent
744.4989	0.085627305903472	33	systole	41	B	500.0	coherent
744.6625	0.085627305903472	33	systole	42	A	1542.5842068661057	coherent
745.065	0.085627305903472	33	systole	43	A	1542.5842068661057	coherent
745.2289	0.085627305903472	33	systole	44	B	500.0	coherent
745.3925	0.085627305903472	33	systole	45	A	1542.5842068661057	coherent
748.7999	0.0851020092959515	34	diastole	1	A	3457.353363503972	streaming
748.969	0.0851020092959515	34	diastole	2	B	500.0	streaming
749.1378	0.0851020092959515	34	diastole	3	A	3457.353363503972	streaming
749.4399	0.0851020092959515	34	diastole	4	A	3457.353363503972	streaming
749.609	0.0851020092959515	34	diastole	5	B	500.0	streaming
749.7778	0.0851020092959515	34	diastole	6	A	3457.353363503972	streaming
750.0799	0.0851020092959515	34	diastole	7	A	3457.353363503972	streaming
750.249	0.0851020092959515	34	diastole	8	B	500.0	streaming
750.4178	0.0851020092959515	34	diastole	9	A	3457.353363503972	streaming
750.7198	0.0851020092959515	34	diastole	10	A	3457.353363503972	streaming
750.889	0.0851020092959515	34	diastole	11	B	500.0	streaming
751.0577	0.0851020092959515	34	diastole	12	A	3457.353363503972	streaming
751.3598	0.0851020092959515	34	diastole	13	A	3457.353363503972	streaming
751.5289	0.0851020092959515	34	diastole	14	B	500.0	streaming
751.6977	0.0851020092959515	34	diastole	15	A	3457.353363503972	streaming
751.9998	0.0851020092959515	34	diastole	16	A	3457.353363503972	streaming
752.1689	0.0851020092959515	34	diastole	17	B	500.0	streaming
752.3377	0.0851020092959515	34	diastole	18	A	3457.353363503972	streaming
752.6713	0.0851020092959515	34	diastole	19	A	3457.353363503972	streaming
752.8389	0.0851020092959515	34	diastole	20	B	500.0	streaming
753.0063	0.0851020092959515	34	diastole	21	A	3457.353363503972	streaming
753.3987	0.0851020092959515	34	diastole	22	A	3457.353363503972	streaming
753.5675	0.0851020092959515	34	diastole	23	B	500.0	streaming
753.7361	0.0851020092959515	34	diastole	24	A	3457.353363503972	streaming
754.1191	0.0851020092959515	34	diastole	25	A	3457.353363503972	streaming
754.288	0.0851020092959515	34	diastole	26	B	500.0	streaming
754.4565	0.0851020092959515	34	diastole	27	A	3457.353363503972	streaming
754.7821	0.0851020092959515	34	diastole	28	A	3457.353363503972	streaming
754.9497	0.0851020092959515	34	diastole	29	B	500.0	streaming
755.1171	0.0851020092959515	34	diastole	30	A	3457.353363503972	streaming
755.469	0.0851020092959515	34	diastole	31	A	3457.353363503972	streaming
755.6379	0.0851020092959515	34	diastole	32	B	500.0	streaming
755.8065	0.0851020092959515	34	diastole	33	A	3457.353363503972	streaming
756.1762	0.0851020092959515	34	diastole	34	A	3457.353363503972	streaming
756.3464	0.0851020092959515	34	diastole	35	B	500.0	streaming
756.5162	0.0851020092959515	34	diastole	36	A	3457.353363503972	streaming
