onset	duration	trial_num	trial_type	tone_num	tone_type	frequency	response
158.858	0.0868649356998503	1	systole	1	A	1578.5670027440333	coherent
159.0356	0.0868649356998503	1	systole	2	B	500.0	coherent
159.213	0.0868649356998503	1	systole	3	A	1578.5670027440333	coherent
159.6424	0.0868649356998503	1	systole	4	A	1578.5670027440333	coherent
159.8214	0.0868649356998503	1	systole	5	B	500.0	coherent
159.9999	0.0868649356998503	1	systole	6	A	1578.5670027440333	coherent
160.4223	0.0868649356998503	1	systole	7	A	1578.5670027440333	coherent
160.6012	0.0868649356998503	1	systole	8	B	500.0	coherent
160.7798	0.0868649356998503	1	systole	9	A	1578.5670027440333	coherent
161.3015	0.0868649356998503	1	systole	10	A	1578.5670027440333	coherent
161.4829	0.0868649356998503	1	systole	11	B	500.0	coherent
161.6639	0.0868649356998503	1	systole	12	A	1578.5670027440333	coherent
162.1196	0.0868649356998503	1	systole	13	A	1578.5670027440333	coherent
162.306	0.0868649356998503	1	systole	14	B	500.0	coherent
162.4921	0.0868649356998503	1	systole	15	A	1578.5670027440333	coherent
162.9193	0.0868649356998503	1	systole	16	A	1578.5670027440333	coherent
163.1057	0.0868649356998503	1	systole	17	B	500.0	coherent
163.2918	0.0868649356998503	1	systole	18	A	1578.5670027440333	coherent
163.7658	0.0868649356998503	1	systole	19	A	1578.5670027440333	coherent
163.9622	0.0868649356998503	1	systole	20	B	500.0	coherent
164.1583	0.0868649356998503	1	systole	21	A	1578.5670027440333	coherent
164.6149	0.0868649356998503	1	systole	22	A	1578.5670027440333	coherent
164.8138	0.0868649356998503	1	systole	23	B	500.0	coherent
165.0124	0.0868649356998503	1	systole	24	A	1578.5670027440333	coherent
165.3749	0.0868649356998503	1	systole	25	A	1578.5670027440333	coherent
165.5738	0.0868649356998503	1	systole	26	B	500.0	coherent
165.7723	0.0868649356998503	1	systole	27	A	1578.5670027440333	coherent
166.1249	0.0868649356998503	1	systole	28	A	1578.5670027440333	coherent
166.3238	0.0868649356998503	1	systole	29	B	500.0	coherent
166.5224	0.0868649356998503	1	systole	30	A	1578.5670027440333	coherent
166.8749	0.0868649356998503	1	systole	31	A	1578.5670027440333	coherent
167.0738	0.0868649356998503	1	systole	32	B	500.0	coherent
167.2724	0.0868649356998503	1	systole	33	A	1578.5670027440333	coherent
167.704	0.0868649356998503	1	systole	34	A	1578.5670027440333	coherent
167.9054	0.0868649356998503	1	systole	35	B	500.0	coherent
168.1065	0.0868649356998503	1	systole	36	A	1578.5670027440333	coherent
175.2035	0.1018534916511271	2	systole	1	A	2180.0224995339627	coherent
175.4098	0.1018534916511271	2	systole	2	B	500.0	coherent
175.616	0.1018534916511271	2	systole	3	A	2180.0224995339627	coherent
175.9988	0.1018534916511271	2	systole	4	A	2180.0224995339627	coherent
176.2038	0.1018534916511271	2	systole	5	B	500.0	coherent
176.4088	0.1018534916511271	2	systole	6	A	2180.0224995339627	coherent
176.7986	0.1018534916511271	2	systole	7	A	2180.0224995339627	coherent
177.0036	0.1018534916511271	2	systole	8	B	500.0	coherent
177.2086	0.1018534916511271	2	systole	9	A	2180.0224995339627	coherent
177.623	0.1018534916511271	2	systole	10	A	2180.0224995339627	coherent
177.8292	0.1018534916511271	2	systole	11	B	500.0	coherent
178.0354	0.1018534916511271	2	systole	12	A	2180.0224995339627	coherent
178.4428	0.1018534916511271	2	systole	13	A	2180.0224995339627	coherent
178.6491	0.1018534916511271	2	systole	14	B	500.0	coherent
178.8553	0.1018534916511271	2	systole	15	A	2180.0224995339627	coherent
179.2876	0.1018534916511271	2	systole	16	A	2180.0224995339627	coherent
179.4951	0.1018534916511271	2	systole	17	B	500.0	coherent
179.7026	0.1018534916511271	2	systole	18	A	2180.0224995339627	coherent
180.1276	0.1018534916511271	2	systole	19	A	2180.0224995339627	coherent
180.3352	0.1018534916511271	2	systole	20	B	500.0	coherent
180.5427	0.1018534916511271	2	systole	21	A	2180.0224995339627	coherent
180.9228	0.1018534916511271	2	systole	22	A	2180.0224995339627	coherent
181.1291	0.1018534916511271	2	systole	23	B	500.0	coherent
181.3353	0.1018534916511271	2	systole	24	A	2180.0224995339627	coherent
181.7227	0.1018534916511271	2	systole	25	A	2180.0224995339627	coherent
181.929	0.1018534916511271	2	systole	26	B	500.0	coherent
182.1352	0.1018534916511271	2	systole	27	A	2180.0224995339627	coherent
182.5728	0.1018534916511271	2	systole	28	A	2180.0224995339627	coherent
182.7791	0.1018534916511271	2	systole	29	B	500.0	coherent
182.9852	0.1018534916511271	2	systole	30	A	2180.0224995339627	coherent
183.3927	0.1018534916511271	2	systole	31	A	2180.0224995339627	coherent
183.599	0.1018534916511271	2	systole	32	B	500.0	coherent
183.8052	0.1018534916511271	2	systole	33	A	2180.0224995339627	coherent
184.0892	0.1018534916511271	2	systole	34	A	2180.0224995339627	coherent
184.2917	0.1018534916511271	2	systole	35	B	500.0	coherent
184.4942	0.1018534916511271	2	systole	36	A	2180.0224995339627	coherent
192.612	0.1024871719710063	3	diastole	1	A	1578.5670027440333	coherent
192.8194	0.1024871719710063	3	diastole	2	B	500.0	coherent
193.0265	0.1024871719710063	3	diastole	3	A	1578.5670027440333	coherent
193.3721	0.1024871719710063	3	diastole	4	A	1578.5670027440333	coherent
193.5795	0.1024871719710063	3	diastole	5	B	500.0	coherent
193.7866	0.1024871719710063	3	diastole	6	A	1578.5670027440333	coherent
194.1321	0.1024871719710063	3	diastole	7	A	1578.5670027440333	coherent
194.3396	0.1024871719710063	3	diastole	8	B	500.0	coherent
194.5467	0.1024871719710063	3	diastole	9	A	1578.5670027440333	coherent
194.9416	0.1024871719710063	3	diastole	10	A	1578.5670027440333	coherent
195.1491	0.1024871719710063	3	diastole	11	B	500.0	coherent
195.3562	0.1024871719710063	3	diastole	12	A	1578.5670027440333	coherent
195.7916	0.1024871719710063	3	diastole	13	A	1578.5670027440333	coherent
195.999	0.1024871719710063	3	diastole	14	B	500.0	coherent
196.2061	0.1024871719710063	3	diastole	15	A	1578.5670027440333	coherent
196.6038	0.1024871719710063	3	diastole	16	A	1578.5670027440333	coherent
196.8099	0.1024871719710063	3	diastole	17	B	500.0	coherent
197.0157	0.1024871719710063	3	diastole	18	A	1578.5670027440333	coherent
197.3739	0.1024871719710063	3	diastole	19	A	1578.5670027440333	coherent
197.5801	0.1024871719710063	3	diastole	20	B	500.0	coherent
197.7859	0.1024871719710063	3	diastole	21	A	1578.5670027440333	coherent
198.2212	0.1024871719710063	3	diastole	22	A	1578.5670027440333	coherent
198.4287	0.1024871719710063	3	diastole	23	B	500.0	coherent
198.6358	0.1024871719710063	3	diastole	24	A	1578.5670027440333	coherent
199.0882	0.1024871719710063	3	diastole	25	A	1578.5670027440333	coherent
199.2969	0.1024871719710063	3	diastole	26	B	500.0	coherent
199.5052	0.1024871719710063	3	diastole	27	A	1578.5670027440333	coherent
199.9282	0.1024871719710063	3	diastole	28	A	1578.5670027440333	coherent
200.1369	0.1024871719710063	3	diastole	29	B	500.0	coherent
200.3452	0.1024871719710063	3	diastole	30	A	1578.5670027440333	coherent
200.712	0.1024871719710063	3	diastole	31	A	1578.5670027440333	coherent
200.9196	0.1024871719710063	3	diastole	32	B	500.0	coherent
201.1269	0.1024871719710063	3	diastole	33	A	1578.5670027440333	coherent
203.5942	0.1024945687095169	4	systole	1	A	1987.9452401467304	streaming
203.7979	0.1024945687095169	4	systole	2	B	500.0	streaming
204.0017	0.1024945687095169	4	systole	3	A	1987.9452401467304	streaming
204.3397	0.1024945687095169	4	systole	4	A	1987.9452401467304	streaming
204.5421	0.1024945687095169	4	systole	5	B	500.0	streaming
204.7446	0.1024945687095169	4	systole	6	A	1987.9452401467304	streaming
205.0897	0.1024945687095169	4	systole	7	A	1987.9452401467304	streaming
205.2922	0.1024945687095169	4	systole	8	B	500.0	streaming
205.4947	0.1024945687095169	4	systole	9	A	1987.9452401467304	streaming
205.9145	0.1024945687095169	4	systole	10	A	1987.9452401467304	streaming
206.1183	0.1024945687095169	4	systole	11	B	500.0	streaming
206.3221	0.1024945687095169	4	systole	12	A	1987.9452401467304	streaming
206.7345	0.1024945687095169	4	systole	13	A	1987.9452401467304	streaming
206.9383	0.1024945687095169	4	systole	14	B	500.0	streaming
207.1421	0.1024945687095169	4	systole	15	A	1987.9452401467304	streaming
207.5645	0.1024945687095169	4	systole	16	A	1987.9452401467304	streaming
207.7682	0.1024945687095169	4	systole	17	B	500.0	streaming
207.972	0.1024945687095169	4	systole	18	A	1987.9452401467304	streaming
208.3944	0.1024945687095169	4	systole	19	A	1987.9452401467304	streaming
208.5981	0.1024945687095169	4	systole	20	B	500.0	streaming
208.802	0.1024945687095169	4	systole	21	A	1987.9452401467304	streaming
209.1696	0.1024945687095169	4	systole	22	A	1987.9452401467304	streaming
209.372	0.1024945687095169	4	systole	23	B	500.0	streaming
209.5745	0.1024945687095169	4	systole	24	A	1987.9452401467304	streaming
209.9495	0.1024945687095169	4	systole	25	A	1987.9452401467304	streaming
210.152	0.1024945687095169	4	systole	26	B	500.0	streaming
210.3545	0.1024945687095169	4	systole	27	A	1987.9452401467304	streaming
210.8143	0.1024945687095169	4	systole	28	A	1987.9452401467304	streaming
211.018	0.1024945687095169	4	systole	29	B	500.0	streaming
211.2219	0.1024945687095169	4	systole	30	A	1987.9452401467304	streaming
211.6833	0.1024945687095169	4	systole	31	A	1987.9452401467304	streaming
211.8894	0.1024945687095169	4	systole	32	B	500.0	streaming
212.0957	0.1024945687095169	4	systole	33	A	1987.9452401467304	streaming
212.528	0.1024945687095169	4	systole	34	A	1987.9452401467304	streaming
212.7354	0.1024945687095169	4	systole	35	B	500.0	streaming
212.943	0.1024945687095169	4	systole	36	A	1987.9452401467304	streaming
217.2374	0.0987589189317077	5	systole	1	A	1143.0495706741503	coherent
217.4335	0.0987589189317077	5	systole	2	B	500.0	coherent
217.63	0.0987589189317077	5	systole	3	A	1143.0495706741503	coherent
218.0276	0.0987589189317077	5	systole	4	A	1143.0495706741503	coherent
218.2238	0.0987589189317077	5	systole	5	B	500.0	coherent
218.4202	0.0987589189317077	5	systole	6	A	1143.0495706741503	coherent
218.7813	0.0987589189317077	5	systole	7	A	1143.0495706741503	coherent
218.9761	0.0987589189317077	5	systole	8	B	500.0	coherent
219.1713	0.0987589189317077	5	systole	9	A	1143.0495706741503	coherent
219.5397	0.0987589189317077	5	systole	10	A	1143.0495706741503	coherent
219.7345	0.0987589189317077	5	systole	11	B	500.0	coherent
219.9297	0.0987589189317077	5	systole	12	A	1143.0495706741503	coherent
220.2981	0.0987589189317077	5	systole	13	A	1143.0495706741503	coherent
220.4929	0.0987589189317077	5	systole	14	B	500.0	coherent
220.6881	0.0987589189317077	5	systole	15	A	1143.0495706741503	coherent
221.0843	0.0987589189317077	5	systole	16	A	1143.0495706741503	coherent
221.2781	0.0987589189317077	5	systole	17	B	500.0	coherent
221.4722	0.0987589189317077	5	systole	18	A	1143.0495706741503	coherent
221.8636	0.0987589189317077	5	systole	19	A	1143.0495706741503	coherent
222.0573	0.0987589189317077	5	systole	20	B	500.0	coherent
222.2511	0.0987589189317077	5	systole	21	A	1143.0495706741503	coherent
222.6435	0.0987589189317077	5	systole	22	A	1143.0495706741503	coherent
222.8371	0.0987589189317077	5	systole	23	B	500.0	coherent
223.031	0.0987589189317077	5	systole	24	A	1143.0495706741503	coherent
223.4234	0.0987589189317077	5	systole	25	A	1143.0495706741503	coherent
223.617	0.0987589189317077	5	systole	26	B	500.0	coherent
223.8109	0.0987589189317077	5	systole	27	A	1143.0495706741503	coherent
224.1435	0.0987589189317077	5	systole	28	A	1143.0495706741503	coherent
224.3371	0.0987589189317077	5	systole	29	B	500.0	coherent
224.531	0.0987589189317077	5	systole	30	A	1143.0495706741503	coherent
224.8934	0.0987589189317077	5	systole	31	A	1143.0495706741503	coherent
225.087	0.0987589189317077	5	systole	32	B	500.0	coherent
225.2809	0.0987589189317077	5	systole	33	A	1143.0495706741503	coherent
225.628	0.0987589189317077	5	systole	34	A	1143.0495706741503	coherent
225.8202	0.0987589189317077	5	systole	35	B	500.0	coherent
226.0126	0.0987589189317077	5	systole	36	A	1143.0495706741503	coherent
228.7042	0.0949937812110874	6	systole	1	A	1169.7126981694591	streaming
228.894	0.0949937812110874	6	systole	2	B	500.0	streaming
229.0842	0.0949937812110874	6	systole	3	A	1169.7126981694591	streaming
229.4448	0.0949937812110874	6	systole	4	A	1169.7126981694591	streaming
229.6322	0.0949937812110874	6	systole	5	B	500.0	streaming
229.8198	0.0949937812110874	6	systole	6	A	1169.7126981694591	streaming
230.1947	0.0949937812110874	6	systole	7	A	1169.7126981694591	streaming
230.3821	0.0949937812110874	6	systole	8	B	500.0	streaming
230.5697	0.0949937812110874	6	systole	9	A	1169.7126981694591	streaming
230.9741	0.0949937812110874	6	systole	10	A	1169.7126981694591	streaming
231.164	0.0949937812110874	6	systole	11	B	500.0	streaming
231.3541	0.0949937812110874	6	systole	12	A	1169.7126981694591	streaming
231.7632	0.0949937812110874	6	systole	13	A	1169.7126981694591	streaming
231.9556	0.0949937812110874	6	systole	14	B	500.0	streaming
232.1482	0.0949937812110874	6	systole	15	A	1169.7126981694591	streaming
232.5432	0.0949937812110874	6	systole	16	A	1169.7126981694591	streaming
232.7356	0.0949937812110874	6	systole	17	B	500.0	streaming
232.9282	0.0949937812110874	6	systole	18	A	1169.7126981694591	streaming
233.3231	0.0949937812110874	6	systole	19	A	1169.7126981694591	streaming
233.5155	0.0949937812110874	6	systole	20	B	500.0	streaming
233.7081	0.0949937812110874	6	systole	21	A	1169.7126981694591	streaming
234.103	0.0949937812110874	6	systole	22	A	1169.7126981694591	streaming
234.2954	0.0949937812110874	6	systole	23	B	500.0	streaming
234.488	0.0949937812110874	6	systole	24	A	1169.7126981694591	streaming
234.8329	0.0949937812110874	6	systole	25	A	1169.7126981694591	streaming
235.0253	0.0949937812110874	6	systole	26	B	500.0	streaming
235.218	0.0949937812110874	6	systole	27	A	1169.7126981694591	streaming
235.6183	0.0949937812110874	6	systole	28	A	1169.7126981694591	streaming
235.8094	0.0949937812110874	6	systole	29	B	500.0	streaming
236.0008	0.0949937812110874	6	systole	30	A	1169.7126981694591	streaming
236.4082	0.0949937812110874	6	systole	31	A	1169.7126981694591	streaming
236.5994	0.0949937812110874	6	systole	32	B	500.0	streaming
236.7907	0.0949937812110874	6	systole	33	A	1169.7126981694591	streaming
237.1336	0.0949937812110874	6	systole	34	A	1169.7126981694591	streaming
237.3235	0.0949937812110874	6	systole	35	B	500.0	streaming
237.5136	0.0949937812110874	6	systole	36	A	1169.7126981694591	streaming
237.8636	0.0949937812110874	6	systole	37	A	1169.7126981694591	streaming
238.0535	0.0949937812110874	6	systole	38	B	500.0	streaming
238.2437	0.0949937812110874	6	systole	39	A	1169.7126981694591	streaming
240.8647	0.0950014000118244	7	systole	1	A	808.8220262698977	coherent
241.054	0.0950014000118244	7	systole	2	B	500.0	coherent
241.2447	0.0950014000118244	7	systole	3	A	808.8220262698977	coherent
241.6592	0.0950014000118244	7	systole	4	A	808.8220262698977	coherent
241.8498	0.0950014000118244	7	systole	5	B	500.0	coherent
242.0417	0.0950014000118244	7	systole	6	A	808.8220262698977	coherent
242.4483	0.0950014000118244	7	systole	7	A	808.8220262698977	coherent
242.6414	0.0950014000118244	7	systole	8	B	500.0	coherent
242.8358	0.0950014000118244	7	systole	9	A	808.8220262698977	coherent
243.2283	0.0950014000118244	7	systole	10	A	808.8220262698977	coherent
243.4214	0.0950014000118244	7	systole	11	B	500.0	coherent
243.6158	0.0950014000118244	7	systole	12	A	808.8220262698977	coherent
243.9492	0.0950014000118244	7	systole	13	A	808.8220262698977	coherent
244.1398	0.0950014000118244	7	systole	14	B	500.0	coherent
244.3317	0.0950014000118244	7	systole	15	A	808.8220262698977	coherent
244.6945	0.0950014000118244	7	systole	16	A	808.8220262698977	coherent
244.8839	0.0950014000118244	7	systole	17	B	500.0	coherent
245.0745	0.0950014000118244	7	systole	18	A	808.8220262698977	coherent
245.4836	0.0950014000118244	7	systole	19	A	808.8220262698977	coherent
245.6755	0.0950014000118244	7	systole	20	B	500.0	coherent
245.8687	0.0950014000118244	7	systole	21	A	808.8220262698977	coherent
246.2682	0.0950014000118244	7	systole	22	A	808.8220262698977	coherent
246.4613	0.0950014000118244	7	systole	23	B	500.0	coherent
246.6557	0.0950014000118244	7	systole	24	A	808.8220262698977	coherent
247.0482	0.0950014000118244	7	systole	25	A	808.8220262698977	coherent
247.2413	0.0950014000118244	7	systole	26	B	500.0	coherent
247.4357	0.0950014000118244	7	systole	27	A	808.8220262698977	coherent
247.8138	0.0950014000118244	7	systole	28	A	808.8220262698977	coherent
248.0057	0.0950014000118244	7	systole	29	B	500.0	coherent
248.1989	0.0950014000118244	7	systole	30	A	808.8220262698977	coherent
248.5982	0.0950014000118244	7	systole	31	A	808.8220262698977	coherent
248.7913	0.0950014000118244	7	systole	32	B	500.0	coherent
248.9857	0.0950014000118244	7	systole	33	A	808.8220262698977	coherent
249.3781	0.0950014000118244	7	systole	34	A	808.8220262698977	coherent
249.5713	0.0950014000118244	7	systole	35	B	500.0	coherent
249.7657	0.0950014000118244	7	systole	36	A	808.8220262698977	coherent
250.0841	0.0950014000118244	7	systole	37	A	808.8220262698977	coherent
250.2734	0.0950014000118244	7	systole	38	B	500.0	coherent
250.4641	0.0950014000118244	7	systole	39	A	808.8220262698977	coherent
253.1747	0.0925060563895385	8	diastole	1	A	2180.0224995339627	streaming
253.356	0.0925060563895385	8	diastole	2	B	500.0	streaming
253.5373	0.0925060563895385	8	diastole	3	A	2180.0224995339627	streaming
253.8573	0.0925060563895385	8	diastole	4	A	2180.0224995339627	streaming
254.0374	0.0925060563895385	8	diastole	5	B	500.0	streaming
254.2174	0.0925060563895385	8	diastole	6	A	2180.0224995339627	streaming
254.5777	0.0925060563895385	8	diastole	7	A	2180.0224995339627	streaming
254.7578	0.0925060563895385	8	diastole	8	B	500.0	streaming
254.9378	0.0925060563895385	8	diastole	9	A	2180.0224995339627	streaming
255.2981	0.0925060563895385	8	diastole	10	A	2180.0224995339627	streaming
255.4782	0.0925060563895385	8	diastole	11	B	500.0	streaming
255.6582	0.0925060563895385	8	diastole	12	A	2180.0224995339627	streaming
256.0185	0.0925060563895385	8	diastole	13	A	2180.0224995339627	streaming
256.1986	0.0925060563895385	8	diastole	14	B	500.0	streaming
256.3786	0.0925060563895385	8	diastole	15	A	2180.0224995339627	streaming
256.7481	0.0925060563895385	8	diastole	16	A	2180.0224995339627	streaming
256.9282	0.0925060563895385	8	diastole	17	B	500.0	streaming
257.1082	0.0925060563895385	8	diastole	18	A	2180.0224995339627	streaming
257.4882	0.0925060563895385	8	diastole	19	A	2180.0224995339627	streaming
257.6683	0.0925060563895385	8	diastole	20	B	500.0	streaming
257.8483	0.0925060563895385	8	diastole	21	A	2180.0224995339627	streaming
258.2682	0.0925060563895385	8	diastole	22	A	2180.0224995339627	streaming
258.4483	0.0925060563895385	8	diastole	23	B	500.0	streaming
258.6283	0.0925060563895385	8	diastole	24	A	2180.0224995339627	streaming
259.0483	0.0925060563895385	8	diastole	25	A	2180.0224995339627	streaming
259.2284	0.0925060563895385	8	diastole	26	B	500.0	streaming
259.4084	0.0925060563895385	8	diastole	27	A	2180.0224995339627	streaming
259.8351	0.0925060563895385	8	diastole	28	A	2180.0224995339627	streaming
260.0164	0.0925060563895385	8	diastole	29	B	500.0	streaming
260.1976	0.0925060563895385	8	diastole	30	A	2180.0224995339627	streaming
260.5722	0.0925060563895385	8	diastole	31	A	2180.0224995339627	streaming
260.7547	0.0925060563895385	8	diastole	32	B	500.0	streaming
260.9372	0.0925060563895385	8	diastole	33	A	2180.0224995339627	streaming
261.3022	0.0925060563895385	8	diastole	34	A	2180.0224995339627	streaming
261.4847	0.0925060563895385	8	diastole	35	B	500.0	streaming
261.6671	0.0925060563895385	8	diastole	36	A	2180.0224995339627	streaming
262.0292	0.0925060563895385	8	diastole	37	A	2180.0224995339627	streaming
262.213	0.0925060563895385	8	diastole	38	B	500.0	streaming
262.3967	0.0925060563895385	8	diastole	39	A	2180.0224995339627	streaming
265.276	0.0906180282181594	9	diastole	1	A	1253.4921645871675	coherent
265.4522	0.0906180282181594	9	diastole	2	B	500.0	coherent
265.6285	0.0906180282181594	9	diastole	3	A	1253.4921645871675	coherent
265.9157	0.0906180282181594	9	diastole	4	A	1253.4921645871675	coherent
266.092	0.0906180282181594	9	diastole	5	B	500.0	coherent
266.2683	0.0906180282181594	9	diastole	6	A	1253.4921645871675	coherent
266.5177	0.0906180282181594	9	diastole	7	A	1253.4921645871675	coherent
266.6889	0.0906180282181594	9	diastole	8	B	500.0	coherent
266.8603	0.0906180282181594	9	diastole	9	A	1253.4921645871675	coherent
267.1478	0.0906180282181594	9	diastole	10	A	1253.4921645871675	coherent
267.3191	0.0906180282181594	9	diastole	11	B	500.0	coherent
267.4904	0.0906180282181594	9	diastole	12	A	1253.4921645871675	coherent
267.7779	0.0906180282181594	9	diastole	13	A	1253.4921645871675	coherent
267.9492	0.0906180282181594	9	diastole	14	B	500.0	coherent
268.1205	0.0906180282181594	9	diastole	15	A	1253.4921645871675	coherent
268.3955	0.0906180282181594	9	diastole	16	A	1253.4921645871675	coherent
268.5592	0.0906180282181594	9	diastole	17	B	500.0	coherent
268.723	0.0906180282181594	9	diastole	18	A	1253.4921645871675	coherent
269.0855	0.0906180282181594	9	diastole	19	A	1253.4921645871675	coherent
269.2492	0.0906180282181594	9	diastole	20	B	500.0	coherent
269.413	0.0906180282181594	9	diastole	21	A	1253.4921645871675	coherent
269.7755	0.0906180282181594	9	diastole	22	A	1253.4921645871675	coherent
269.9392	0.0906180282181594	9	diastole	23	B	500.0	coherent
270.103	0.0906180282181594	9	diastole	24	A	1253.4921645871675	coherent
270.5249	0.0906180282181594	9	diastole	25	A	1253.4921645871675	coherent
270.6887	0.0906180282181594	9	diastole	26	B	500.0	coherent
270.8525	0.0906180282181594	9	diastole	27	A	1253.4921645871675	coherent
271.2745	0.0906180282181594	9	diastole	28	A	1253.4921645871675	coherent
271.4382	0.0906180282181594	9	diastole	29	B	500.0	coherent
271.602	0.0906180282181594	9	diastole	30	A	1253.4921645871675	coherent
272.0818	0.0906180282181594	9	diastole	31	A	1253.4921645871675	coherent
272.2468	0.0906180282181594	9	diastole	32	B	500.0	coherent
272.4118	0.0906180282181594	9	diastole	33	A	1253.4921645871675	coherent
272.8931	0.0906180282181594	9	diastole	34	A	1253.4921645871675	coherent
273.0618	0.0906180282181594	9	diastole	35	B	500.0	coherent
273.2306	0.0906180282181594	9	diastole	36	A	1253.4921645871675	coherent
273.7198	0.0906180282181594	9	diastole	37	A	1253.4921645871675	coherent
273.8985	0.0906180282181594	9	diastole	38	B	500.0	coherent
274.0773	0.0906180282181594	9	diastole	39	A	1253.4921645871675	coherent
274.4898	0.0906180282181594	9	diastole	40	A	1253.4921645871675	coherent
274.6685	0.0906180282181594	9	diastole	41	B	500.0	coherent
274.8473	0.0906180282181594	9	diastole	42	A	1253.4921645871675	coherent
277.5868	0.0949611639953218	10	diastole	1	A	2621.646269519023	streaming
277.7755	0.0949611639953218	10	diastole	2	B	500.0	streaming
277.9643	0.0949611639953218	10	diastole	3	A	2621.646269519023	streaming
278.3068	0.0949611639953218	10	diastole	4	A	2621.646269519023	streaming
278.4954	0.0949611639953218	10	diastole	5	B	500.0	streaming
278.6843	0.0949611639953218	10	diastole	6	A	2621.646269519023	streaming
278.9374	0.0949611639953218	10	diastole	7	A	2621.646269519023	streaming
279.1173	0.0949611639953218	10	diastole	8	B	500.0	streaming
279.2974	0.0949611639953218	10	diastole	9	A	2621.646269519023	streaming
279.6174	0.0949611639953218	10	diastole	10	A	2621.646269519023	streaming
279.7973	0.0949611639953218	10	diastole	11	B	500.0	streaming
279.9774	0.0949611639953218	10	diastole	12	A	2621.646269519023	streaming
280.2974	0.0949611639953218	10	diastole	13	A	2621.646269519023	streaming
280.4773	0.0949611639953218	10	diastole	14	B	500.0	streaming
280.6574	0.0949611639953218	10	diastole	15	A	2621.646269519023	streaming
281.0172	0.0949611639953218	10	diastole	16	A	2621.646269519023	streaming
281.1971	0.0949611639953218	10	diastole	17	B	500.0	streaming
281.3772	0.0949611639953218	10	diastole	18	A	2621.646269519023	streaming
281.7372	0.0949611639953218	10	diastole	19	A	2621.646269519023	streaming
281.9171	0.0949611639953218	10	diastole	20	B	500.0	streaming
282.0971	0.0949611639953218	10	diastole	21	A	2621.646269519023	streaming
282.4332	0.0949611639953218	10	diastole	22	A	2621.646269519023	streaming
282.6106	0.0949611639953218	10	diastole	23	B	500.0	streaming
282.7882	0.0949611639953218	10	diastole	24	A	2621.646269519023	streaming
283.1433	0.0949611639953218	10	diastole	25	A	2621.646269519023	streaming
283.3207	0.0949611639953218	10	diastole	26	B	500.0	streaming
283.4983	0.0949611639953218	10	diastole	27	A	2621.646269519023	streaming
283.8901	0.0949611639953218	10	diastole	28	A	2621.646269519023	streaming
284.0688	0.0949611639953218	10	diastole	29	B	500.0	streaming
284.2476	0.0949611639953218	10	diastole	30	A	2621.646269519023	streaming
284.6299	0.0949611639953218	10	diastole	31	A	2621.646269519023	streaming
284.8085	0.0949611639953218	10	diastole	32	B	500.0	streaming
284.9874	0.0949611639953218	10	diastole	33	A	2621.646269519023	streaming
285.3697	0.0949611639953218	10	diastole	34	A	2621.646269519023	streaming
285.5483	0.0949611639953218	10	diastole	35	B	500.0	streaming
285.7272	0.0949611639953218	10	diastole	36	A	2621.646269519023	streaming
286.1597	0.0949611639953218	10	diastole	37	A	2621.646269519023	streaming
286.3383	0.0949611639953218	10	diastole	38	B	500.0	streaming
286.5172	0.0949611639953218	10	diastole	39	A	2621.646269519023	streaming
288.5525	0.0918642106407787	11	diastole	1	A	1196.9977780158051	coherent
288.7386	0.0918642106407787	11	diastole	2	B	500.0	coherent
288.9249	0.0918642106407787	11	diastole	3	A	1196.9977780158051	coherent
289.2826	0.0918642106407787	11	diastole	4	A	1196.9977780158051	coherent
289.4687	0.0918642106407787	11	diastole	5	B	500.0	coherent
289.655	0.0918642106407787	11	diastole	6	A	1196.9977780158051	coherent
290.0126	0.0918642106407787	11	diastole	7	A	1196.9977780158051	coherent
290.1987	0.0918642106407787	11	diastole	8	B	500.0	coherent
290.385	0.0918642106407787	11	diastole	9	A	1196.9977780158051	coherent
290.8283	0.0918642106407787	11	diastole	10	A	1196.9977780158051	coherent
291.0207	0.0918642106407787	11	diastole	11	B	500.0	coherent
291.2133	0.0918642106407787	11	diastole	12	A	1196.9977780158051	coherent
291.6353	0.0918642106407787	11	diastole	13	A	1196.9977780158051	coherent
291.829	0.0918642106407787	11	diastole	14	B	500.0	coherent
292.0228	0.0918642106407787	11	diastole	15	A	1196.9977780158051	coherent
292.3882	0.0918642106407787	11	diastole	16	A	1196.9977780158051	coherent
292.5807	0.0918642106407787	11	diastole	17	B	500.0	coherent
292.7733	0.0918642106407787	11	diastole	18	A	1196.9977780158051	coherent
293.1482	0.0918642106407787	11	diastole	19	A	1196.9977780158051	coherent
293.3406	0.0918642106407787	11	diastole	20	B	500.0	coherent
293.5332	0.0918642106407787	11	diastole	21	A	1196.9977780158051	coherent
294.0123	0.0918642106407787	11	diastole	22	A	1196.9977780158051	coherent
294.2072	0.0918642106407787	11	diastole	23	B	500.0	coherent
294.4023	0.0918642106407787	11	diastole	24	A	1196.9977780158051	coherent
294.8622	0.0918642106407787	11	diastole	25	A	1196.9977780158051	coherent
295.0571	0.0918642106407787	11	diastole	26	B	500.0	coherent
295.2522	0.0918642106407787	11	diastole	27	A	1196.9977780158051	coherent
295.6322	0.0918642106407787	11	diastole	28	A	1196.9977780158051	coherent
295.8271	0.0918642106407787	11	diastole	29	B	500.0	coherent
296.0222	0.0918642106407787	11	diastole	30	A	1196.9977780158051	coherent
296.4022	0.0918642106407787	11	diastole	31	A	1196.9977780158051	coherent
296.5972	0.0918642106407787	11	diastole	32	B	500.0	coherent
296.7923	0.0918642106407787	11	diastole	33	A	1196.9977780158051	coherent
297.2294	0.0918642106407787	11	diastole	34	A	1196.9977780158051	coherent
297.4256	0.0918642106407787	11	diastole	35	B	500.0	coherent
297.6219	0.0918642106407787	11	diastole	36	A	1196.9977780158051	coherent
298.0435	0.0918642106407787	11	diastole	37	A	1196.9977780158051	coherent
298.2422	0.0918642106407787	11	diastole	38	B	500.0	coherent
298.441	0.0918642106407787	11	diastole	39	A	1196.9977780158051	coherent
301.1422	0.0981219847453758	12	diastole	1	A	2682.7996005075997	streaming
301.3371	0.0981219847453758	12	diastole	2	B	500.0	streaming
301.5322	0.0981219847453758	12	diastole	3	A	2682.7996005075997	streaming
301.9222	0.0981219847453758	12	diastole	4	A	2682.7996005075997	streaming
302.1171	0.0981219847453758	12	diastole	5	B	500.0	streaming
302.3122	0.0981219847453758	12	diastole	6	A	2682.7996005075997	streaming
302.6181	0.0981219847453758	12	diastole	7	A	2682.7996005075997	streaming
302.8106	0.0981219847453758	12	diastole	8	B	500.0	streaming
303.0032	0.0981219847453758	12	diastole	9	A	2682.7996005075997	streaming
303.3282	0.0981219847453758	12	diastole	10	A	2682.7996005075997	streaming
303.5206	0.0981219847453758	12	diastole	11	B	500.0	streaming
303.7132	0.0981219847453758	12	diastole	12	A	2682.7996005075997	streaming
304.0382	0.0981219847453758	12	diastole	13	A	2682.7996005075997	streaming
304.2307	0.0981219847453758	12	diastole	14	B	500.0	streaming
304.4232	0.0981219847453758	12	diastole	15	A	2682.7996005075997	streaming
304.7483	0.0981219847453758	12	diastole	16	A	2682.7996005075997	streaming
304.9407	0.0981219847453758	12	diastole	17	B	500.0	streaming
305.1333	0.0981219847453758	12	diastole	18	A	2682.7996005075997	streaming
305.5311	0.0981219847453758	12	diastole	19	A	2682.7996005075997	streaming
305.7223	0.0981219847453758	12	diastole	20	B	500.0	streaming
305.9136	0.0981219847453758	12	diastole	21	A	2682.7996005075997	streaming
306.3112	0.0981219847453758	12	diastole	22	A	2682.7996005075997	streaming
306.5023	0.0981219847453758	12	diastole	23	B	500.0	streaming
306.6936	0.0981219847453758	12	diastole	24	A	2682.7996005075997	streaming
307.0471	0.0981219847453758	12	diastole	25	A	2682.7996005075997	streaming
307.2358	0.0981219847453758	12	diastole	26	B	500.0	streaming
307.4246	0.0981219847453758	12	diastole	27	A	2682.7996005075997	streaming
307.8654	0.0981219847453758	12	diastole	28	A	2682.7996005075997	streaming
308.0591	0.0981219847453758	12	diastole	29	B	500.0	streaming
308.2529	0.0981219847453758	12	diastole	30	A	2682.7996005075997	streaming
308.6554	0.0981219847453758	12	diastole	31	A	2682.7996005075997	streaming
308.8491	0.0981219847453758	12	diastole	32	B	500.0	streaming
309.0429	0.0981219847453758	12	diastole	33	A	2682.7996005075997	streaming
309.4825	0.0981219847453758	12	diastole	34	A	2682.7996005075997	streaming
309.6774	0.0981219847453758	12	diastole	35	B	500.0	streaming
309.8725	0.0981219847453758	12	diastole	36	A	2682.7996005075997	streaming
312.4213	0.0987469183746725	13	systole	1	A	3970.34830453257	streaming
312.6189	0.0987469183746725	13	systole	2	B	500.0	streaming
312.8163	0.0987469183746725	13	systole	3	A	3970.34830453257	streaming
313.2359	0.0987469183746725	13	systole	4	A	3970.34830453257	streaming
313.4347	0.0987469183746725	13	systole	5	B	500.0	streaming
313.6334	0.0987469183746725	13	systole	6	A	3970.34830453257	streaming
314.0458	0.0987469183746725	13	systole	7	A	3970.34830453257	streaming
314.2447	0.0987469183746725	13	systole	8	B	500.0	streaming
314.4433	0.0987469183746725	13	systole	9	A	3970.34830453257	streaming
314.8558	0.0987469183746725	13	systole	10	A	3970.34830453257	streaming
315.0546	0.0987469183746725	13	systole	11	B	500.0	streaming
315.2533	0.0987469183746725	13	systole	12	A	3970.34830453257	streaming
315.6657	0.0987469183746725	13	systole	13	A	3970.34830453257	streaming
315.8646	0.0987469183746725	13	systole	14	B	500.0	streaming
316.0633	0.0987469183746725	13	systole	15	A	3970.34830453257	streaming
316.5149	0.0987469183746725	13	systole	16	A	3970.34830453257	streaming
316.7162	0.0987469183746725	13	systole	17	B	500.0	streaming
316.9174	0.0987469183746725	13	systole	18	A	3970.34830453257	streaming
317.3549	0.0987469183746725	13	systole	19	A	3970.34830453257	streaming
317.5562	0.0987469183746725	13	systole	20	B	500.0	streaming
317.7574	0.0987469183746725	13	systole	21	A	3970.34830453257	streaming
318.1249	0.0987469183746725	13	systole	22	A	3970.34830453257	streaming
318.3262	0.0987469183746725	13	systole	23	B	500.0	streaming
318.5274	0.0987469183746725	13	systole	24	A	3970.34830453257	streaming
318.8958	0.0987469183746725	13	systole	25	A	3970.34830453257	streaming
319.0946	0.0987469183746725	13	systole	26	B	500.0	streaming
319.2933	0.0987469183746725	13	systole	27	A	3970.34830453257	streaming
319.7003	0.0987469183746725	13	systole	28	A	3970.34830453257	streaming
319.9003	0.0987469183746725	13	systole	29	B	500.0	streaming
320.1003	0.0987469183746725	13	systole	30	A	3970.34830453257	streaming
320.5002	0.0987469183746725	13	systole	31	A	3970.34830453257	streaming
320.7003	0.0987469183746725	13	systole	32	B	500.0	streaming
320.9002	0.0987469183746725	13	systole	33	A	3970.34830453257	streaming
321.2556	0.0987469183746725	13	systole	34	A	3970.34830453257	streaming
321.4544	0.0987469183746725	13	systole	35	B	500.0	streaming
321.653	0.0987469183746725	13	systole	36	A	3970.34830453257	streaming
324.5698	0.1018715256650466	14	systole	1	A	772.3687435845811	coherent
324.7741	0.1018715256650466	14	systole	2	B	500.0	coherent
324.9798	0.1018715256650466	14	systole	3	A	772.3687435845811	coherent
325.3451	0.1018715256650466	14	systole	4	A	772.3687435845811	coherent
325.5481	0.1018715256650466	14	systole	5	B	500.0	coherent
325.7526	0.1018715256650466	14	systole	6	A	772.3687435845811	coherent
326.1148	0.1018715256650466	14	systole	7	A	772.3687435845811	coherent
326.3178	0.1018715256650466	14	systole	8	B	500.0	coherent
326.5223	0.1018715256650466	14	systole	9	A	772.3687435845811	coherent
326.9254	0.1018715256650466	14	systole	10	A	772.3687435845811	coherent
327.1284	0.1018715256650466	14	systole	11	B	500.0	coherent
327.333	0.1018715256650466	14	systole	12	A	772.3687435845811	coherent
327.7054	0.1018715256650466	14	systole	13	A	772.3687435845811	coherent
327.9084	0.1018715256650466	14	systole	14	B	500.0	coherent
328.113	0.1018715256650466	14	systole	15	A	772.3687435845811	coherent
328.4854	0.1018715256650466	14	systole	16	A	772.3687435845811	coherent
328.6884	0.1018715256650466	14	systole	17	B	500.0	coherent
328.8929	0.1018715256650466	14	systole	18	A	772.3687435845811	coherent
329.2367	0.1018715256650466	14	systole	19	A	772.3687435845811	coherent
329.4347	0.1018715256650466	14	systole	20	B	500.0	coherent
329.6342	0.1018715256650466	14	systole	21	A	772.3687435845811	coherent
330.0063	0.1018715256650466	14	systole	22	A	772.3687435845811	coherent
330.2043	0.1018715256650466	14	systole	23	B	500.0	coherent
330.4039	0.1018715256650466	14	systole	24	A	772.3687435845811	coherent
330.7327	0.1018715256650466	14	systole	25	A	772.3687435845811	coherent
330.927	0.1018715256650466	14	systole	26	B	500.0	coherent
331.1227	0.1018715256650466	14	systole	27	A	772.3687435845811	coherent
331.5127	0.1018715256650466	14	systole	28	A	772.3687435845811	coherent
331.707	0.1018715256650466	14	systole	29	B	500.0	coherent
331.9027	0.1018715256650466	14	systole	30	A	772.3687435845811	coherent
332.2923	0.1018715256650466	14	systole	31	A	772.3687435845811	coherent
332.4866	0.1018715256650466	14	systole	32	B	500.0	coherent
332.6823	0.1018715256650466	14	systole	33	A	772.3687435845811	coherent
333.0827	0.1018715256650466	14	systole	34	A	772.3687435845811	coherent
333.277	0.1018715256650466	14	systole	35	B	500.0	coherent
333.4727	0.1018715256650466	14	systole	36	A	772.3687435845811	coherent
346.9257	0.093650631228229	16	systole	1	A	4062.961875947593	streaming
347.1081	0.093650631228229	16	systole	2	B	500.0	streaming
347.2903	0.093650631228229	16	systole	3	A	4062.961875947593	streaming
347.6357	0.093650631228229	16	systole	4	A	4062.961875947593	streaming
347.8181	0.093650631228229	16	systole	5	B	500.0	streaming
348.0003	0.093650631228229	16	systole	6	A	4062.961875947593	streaming
348.414	0.093650631228229	16	systole	7	A	4062.961875947593	streaming
348.6014	0.093650631228229	16	systole	8	B	500.0	streaming
348.7886	0.093650631228229	16	systole	9	A	4062.961875947593	streaming
349.1992	0.093650631228229	16	systole	10	A	4062.961875947593	streaming
349.3881	0.093650631228229	16	systole	11	B	500.0	streaming
349.5767	0.093650631228229	16	systole	12	A	4062.961875947593	streaming
349.983	0.093650631228229	16	systole	13	A	4062.961875947593	streaming
350.1756	0.093650631228229	16	systole	14	B	500.0	streaming
350.3679	0.093650631228229	16	systole	15	A	4062.961875947593	streaming
350.7329	0.093650631228229	16	systole	16	A	4062.961875947593	streaming
350.9255	0.093650631228229	16	systole	17	B	500.0	streaming
351.1179	0.093650631228229	16	systole	18	A	4062.961875947593	streaming
351.4788	0.093650631228229	16	systole	19	A	4062.961875947593	streaming
351.6701	0.093650631228229	16	systole	20	B	500.0	streaming
351.8613	0.093650631228229	16	systole	21	A	4062.961875947593	streaming
352.2198	0.093650631228229	16	systole	22	A	4062.961875947593	streaming
352.4087	0.093650631228229	16	systole	23	B	500.0	streaming
352.5974	0.093650631228229	16	systole	24	A	4062.961875947593	streaming
352.9698	0.093650631228229	16	systole	25	A	4062.961875947593	streaming
353.1587	0.093650631228229	16	systole	26	B	500.0	streaming
353.3474	0.093650631228229	16	systole	27	A	4062.961875947593	streaming
353.7293	0.093650631228229	16	systole	28	A	4062.961875947593	streaming
353.9181	0.093650631228229	16	systole	29	B	500.0	streaming
354.1068	0.093650631228229	16	systole	30	A	4062.961875947593	streaming
354.4389	0.093650631228229	16	systole	31	A	4062.961875947593	streaming
354.6278	0.093650631228229	16	systole	32	B	500.0	streaming
354.8164	0.093650631228229	16	systole	33	A	4062.961875947593	streaming
355.1765	0.093650631228229	16	systole	34	A	4062.961875947593	streaming
355.3642	0.093650631228229	16	systole	35	B	500.0	streaming
355.5516	0.093650631228229	16	systole	36	A	4062.961875947593	streaming
355.9344	0.093650631228229	16	systole	37	A	4062.961875947593	streaming
356.1221	0.093650631228229	16	systole	38	B	500.0	streaming
356.3096	0.093650631228229	16	systole	39	A	4062.961875947593	streaming
356.6643	0.093650631228229	16	systole	40	A	4062.961875947593	streaming
356.8518	0.093650631228229	16	systole	41	B	500.0	streaming
357.0392	0.093650631228229	16	systole	42	A	4062.961875947593	streaming
359.309	0.0926454988366458	17	diastole	1	A	1282.731510155574	coherent
359.4942	0.0926454988366458	17	diastole	2	B	500.0	coherent
359.6796	0.0926454988366458	17	diastole	3	A	1282.731510155574	coherent
360.061	0.0926454988366458	17	diastole	4	A	1282.731510155574	coherent
360.2462	0.0926454988366458	17	diastole	5	B	500.0	coherent
360.4315	0.0926454988366458	17	diastole	6	A	1282.731510155574	coherent
360.819	0.0926454988366458	17	diastole	7	A	1282.731510155574	coherent
361.0042	0.0926454988366458	17	diastole	8	B	500.0	coherent
361.1895	0.0926454988366458	17	diastole	9	A	1282.731510155574	coherent
361.589	0.0926454988366458	17	diastole	10	A	1282.731510155574	coherent
361.7743	0.0926454988366458	17	diastole	11	B	500.0	coherent
361.9596	0.0926454988366458	17	diastole	12	A	1282.731510155574	coherent
362.3119	0.0926454988366458	17	diastole	13	A	1282.731510155574	coherent
362.496	0.0926454988366458	17	diastole	14	B	500.0	coherent
362.68	0.0926454988366458	17	diastole	15	A	1282.731510155574	coherent
363.0419	0.0926454988366458	17	diastole	16	A	1282.731510155574	coherent
363.226	0.0926454988366458	17	diastole	17	B	500.0	coherent
363.41	0.0926454988366458	17	diastole	18	A	1282.731510155574	coherent
363.8195	0.0926454988366458	17	diastole	19	A	1282.731510155574	coherent
364.0048	0.0926454988366458	17	diastole	20	B	500.0	coherent
364.1901	0.0926454988366458	17	diastole	21	A	1282.731510155574	coherent
364.5899	0.0926454988366458	17	diastole	22	A	1282.731510155574	coherent
364.7752	0.0926454988366458	17	diastole	23	B	500.0	coherent
364.9605	0.0926454988366458	17	diastole	24	A	1282.731510155574	coherent
365.3169	0.0926454988366458	17	diastole	25	A	1282.731510155574	coherent
365.5033	0.0926454988366458	17	diastole	26	B	500.0	coherent
365.6898	0.0926454988366458	17	diastole	27	A	1282.731510155574	coherent
366.0373	0.0926454988366458	17	diastole	28	A	1282.731510155574	coherent
366.2237	0.0926454988366458	17	diastole	29	B	500.0	coherent
366.4102	0.0926454988366458	17	diastole	30	A	1282.731510155574	coherent
366.7673	0.0926454988366458	17	diastole	31	A	1282.731510155574	coherent
366.9537	0.0926454988366458	17	diastole	32	B	500.0	coherent
367.1402	0.0926454988366458	17	diastole	33	A	1282.731510155574	coherent
367.482	0.0926454988366458	17	diastole	34	A	1282.731510155574	coherent
367.6657	0.0926454988366458	17	diastole	35	B	500.0	coherent
367.8495	0.0926454988366458	17	diastole	36	A	1282.731510155574	coherent
368.1948	0.0926454988366458	17	diastole	37	A	1282.731510155574	coherent
368.3774	0.0926454988366458	17	diastole	38	B	500.0	coherent
368.5599	0.0926454988366458	17	diastole	39	A	1282.731510155574	coherent
371.0076	0.0906511312641669	18	diastole	1	A	2561.886903957566	streaming
371.1875	0.0906511312641669	18	diastole	2	B	500.0	streaming
371.3677	0.0906511312641669	18	diastole	3	A	2561.886903957566	streaming
371.7076	0.0906511312641669	18	diastole	4	A	2561.886903957566	streaming
371.8875	0.0906511312641669	18	diastole	5	B	500.0	streaming
372.0677	0.0906511312641669	18	diastole	6	A	2561.886903957566	streaming
372.437	0.0906511312641669	18	diastole	7	A	2561.886903957566	streaming
372.6169	0.0906511312641669	18	diastole	8	B	500.0	streaming
372.797	0.0906511312641669	18	diastole	9	A	2561.886903957566	streaming
373.1571	0.0906511312641669	18	diastole	10	A	2561.886903957566	streaming
373.3369	0.0906511312641669	18	diastole	11	B	500.0	streaming
373.517	0.0906511312641669	18	diastole	12	A	2561.886903957566	streaming
373.8871	0.0906511312641669	18	diastole	13	A	2561.886903957566	streaming
374.0669	0.0906511312641669	18	diastole	14	B	500.0	streaming
374.247	0.0906511312641669	18	diastole	15	A	2561.886903957566	streaming
374.5801	0.0906511312641669	18	diastole	16	A	2561.886903957566	streaming
374.7587	0.0906511312641669	18	diastole	17	B	500.0	streaming
374.9376	0.0906511312641669	18	diastole	18	A	2561.886903957566	streaming
375.2801	0.0906511312641669	18	diastole	19	A	2561.886903957566	streaming
375.4587	0.0906511312641669	18	diastole	20	B	500.0	streaming
375.6376	0.0906511312641669	18	diastole	21	A	2561.886903957566	streaming
376.0172	0.0906511312641669	18	diastole	22	A	2561.886903957566	streaming
376.197	0.0906511312641669	18	diastole	23	B	500.0	streaming
376.3772	0.0906511312641669	18	diastole	24	A	2561.886903957566	streaming
376.7471	0.0906511312641669	18	diastole	25	A	2561.886903957566	streaming
376.927	0.0906511312641669	18	diastole	26	B	500.0	streaming
377.1072	0.0906511312641669	18	diastole	27	A	2561.886903957566	streaming
377.4842	0.0906511312641669	18	diastole	28	A	2561.886903957566	streaming
377.6653	0.0906511312641669	18	diastole	29	B	500.0	streaming
377.8467	0.0906511312641669	18	diastole	30	A	2561.886903957566	streaming
378.1772	0.0906511312641669	18	diastole	31	A	2561.886903957566	streaming
378.357	0.0906511312641669	18	diastole	32	B	500.0	streaming
378.5372	0.0906511312641669	18	diastole	33	A	2561.886903957566	streaming
378.9142	0.0906511312641669	18	diastole	34	A	2561.886903957566	streaming
379.0953	0.0906511312641669	18	diastole	35	B	500.0	streaming
379.2767	0.0906511312641669	18	diastole	36	A	2561.886903957566	streaming
379.6913	0.0906511312641669	18	diastole	37	A	2561.886903957566	streaming
379.8736	0.0906511312641669	18	diastole	38	B	500.0	streaming
380.0563	0.0906511312641669	18	diastole	39	A	2561.886903957566	streaming
381.9716	0.0912485804292373	19	diastole	1	A	1812.791509567848	streaming
382.1539	0.0912485804292373	19	diastole	2	B	500.0	streaming
382.3366	0.0912485804292373	19	diastole	3	A	1812.791509567848	streaming
382.7586	0.0912485804292373	19	diastole	4	A	1812.791509567848	streaming
382.9422	0.0912485804292373	19	diastole	5	B	500.0	streaming
383.1261	0.0912485804292373	19	diastole	6	A	1812.791509567848	streaming
383.5385	0.0912485804292373	19	diastole	7	A	1812.791509567848	streaming
383.7221	0.0912485804292373	19	diastole	8	B	500.0	streaming
383.906	0.0912485804292373	19	diastole	9	A	1812.791509567848	streaming
384.32	0.0912485804292373	19	diastole	10	A	1812.791509567848	streaming
384.5073	0.0912485804292373	19	diastole	11	B	500.0	streaming
384.695	0.0912485804292373	19	diastole	12	A	1812.791509567848	streaming
385.08	0.0912485804292373	19	diastole	13	A	1812.791509567848	streaming
385.2674	0.0912485804292373	19	diastole	14	B	500.0	streaming
385.4551	0.0912485804292373	19	diastole	15	A	1812.791509567848	streaming
385.8711	0.0912485804292373	19	diastole	16	A	1812.791509567848	streaming
386.0622	0.0912485804292373	19	diastole	17	B	500.0	streaming
386.2536	0.0912485804292373	19	diastole	18	A	1812.791509567848	streaming
386.6682	0.0912485804292373	19	diastole	19	A	1812.791509567848	streaming
386.8605	0.0912485804292373	19	diastole	20	B	500.0	streaming
387.0532	0.0912485804292373	19	diastole	21	A	1812.791509567848	streaming
387.4383	0.0912485804292373	19	diastole	22	A	1812.791509567848	streaming
387.6307	0.0912485804292373	19	diastole	23	B	500.0	streaming
387.8233	0.0912485804292373	19	diastole	24	A	1812.791509567848	streaming
388.1612	0.0912485804292373	19	diastole	25	A	1812.791509567848	streaming
388.3523	0.0912485804292373	19	diastole	26	B	500.0	streaming
388.5437	0.0912485804292373	19	diastole	27	A	1812.791509567848	streaming
388.8912	0.0912485804292373	19	diastole	28	A	1812.791509567848	streaming
389.0823	0.0912485804292373	19	diastole	29	B	500.0	streaming
389.2737	0.0912485804292373	19	diastole	30	A	1812.791509567848	streaming
389.6308	0.0912485804292373	19	diastole	31	A	1812.791509567848	streaming
389.8219	0.0912485804292373	19	diastole	32	B	500.0	streaming
390.0133	0.0912485804292373	19	diastole	33	A	1812.791509567848	streaming
390.381	0.0912485804292373	19	diastole	34	A	1812.791509567848	streaming
390.572	0.0912485804292373	19	diastole	35	B	500.0	streaming
390.7635	0.0912485804292373	19	diastole	36	A	1812.791509567848	streaming
391.131	0.0912485804292373	19	diastole	37	A	1812.791509567848	streaming
391.3221	0.0912485804292373	19	diastole	38	B	500.0	streaming
391.5135	0.0912485804292373	19	diastole	39	A	1812.791509567848	streaming
393.9755	0.0931259562203195	20	diastole	1	A	1253.4921645871675	coherent
394.1604	0.0931259562203195	20	diastole	2	B	500.0	coherent
394.3455	0.0931259562203195	20	diastole	3	A	1253.4921645871675	coherent
394.6852	0.0931259562203195	20	diastole	4	A	1253.4921645871675	coherent
394.8701	0.0931259562203195	20	diastole	5	B	500.0	coherent
395.0551	0.0931259562203195	20	diastole	6	A	1253.4921645871675	coherent
395.3951	0.0931259562203195	20	diastole	7	A	1253.4921645871675	coherent
395.5801	0.0931259562203195	20	diastole	8	B	500.0	coherent
395.765	0.0931259562203195	20	diastole	9	A	1253.4921645871675	coherent
396.1084	0.0931259562203195	20	diastole	10	A	1253.4921645871675	coherent
396.2921	0.0931259562203195	20	diastole	11	B	500.0	coherent
396.4759	0.0931259562203195	20	diastole	12	A	1253.4921645871675	coherent
396.8284	0.0931259562203195	20	diastole	13	A	1253.4921645871675	coherent
397.0121	0.0931259562203195	20	diastole	14	B	500.0	coherent
397.1959	0.0931259562203195	20	diastole	15	A	1253.4921645871675	coherent
397.5484	0.0931259562203195	20	diastole	16	A	1253.4921645871675	coherent
397.7321	0.0931259562203195	20	diastole	17	B	500.0	coherent
397.9159	0.0931259562203195	20	diastole	18	A	1253.4921645871675	coherent
398.2884	0.0931259562203195	20	diastole	19	A	1253.4921645871675	coherent
398.4721	0.0931259562203195	20	diastole	20	B	500.0	coherent
398.6558	0.0931259562203195	20	diastole	21	A	1253.4921645871675	coherent
399.0283	0.0931259562203195	20	diastole	22	A	1253.4921645871675	coherent
399.212	0.0931259562203195	20	diastole	23	B	500.0	coherent
399.3958	0.0931259562203195	20	diastole	24	A	1253.4921645871675	coherent
399.7142	0.0931259562203195	20	diastole	25	A	1253.4921645871675	coherent
399.8954	0.0931259562203195	20	diastole	26	B	500.0	coherent
400.0767	0.0931259562203195	20	diastole	27	A	1253.4921645871675	coherent
400.41	0.0931259562203195	20	diastole	28	A	1253.4921645871675	coherent
400.5887	0.0931259562203195	20	diastole	29	B	500.0	coherent
400.7675	0.0931259562203195	20	diastole	30	A	1253.4921645871675	coherent
401.12	0.0931259562203195	20	diastole	31	A	1253.4921645871675	coherent
401.2987	0.0931259562203195	20	diastole	32	B	500.0	coherent
401.4775	0.0931259562203195	20	diastole	33	A	1253.4921645871675	coherent
401.8128	0.0931259562203195	20	diastole	34	A	1253.4921645871675	coherent
401.9902	0.0931259562203195	20	diastole	35	B	500.0	coherent
402.1678	0.0931259562203195	20	diastole	36	A	1253.4921645871675	coherent
402.5799	0.0931259562203195	20	diastole	37	A	1253.4921645871675	coherent
402.7586	0.0931259562203195	20	diastole	38	B	500.0	coherent
402.9374	0.0931259562203195	20	diastole	39	A	1253.4921645871675	coherent
405.6285	0.0906279253831598	21	diastole	1	A	2130.3297690552017	streaming
405.8123	0.0906279253831598	21	diastole	2	B	500.0	streaming
405.9961	0.0906279253831598	21	diastole	3	A	2130.3297690552017	streaming
406.4085	0.0906279253831598	21	diastole	4	A	2130.3297690552017	streaming
406.5924	0.0906279253831598	21	diastole	5	B	500.0	streaming
406.7761	0.0906279253831598	21	diastole	6	A	2130.3297690552017	streaming
407.2263	0.0906279253831598	21	diastole	7	A	2130.3297690552017	streaming
407.415	0.0906279253831598	21	diastole	8	B	500.0	streaming
407.6037	0.0906279253831598	21	diastole	9	A	2130.3297690552017	streaming
408.0163	0.0906279253831598	21	diastole	10	A	2130.3297690552017	streaming
408.2051	0.0906279253831598	21	diastole	11	B	500.0	streaming
408.3937	0.0906279253831598	21	diastole	12	A	2130.3297690552017	streaming
408.7935	0.0906279253831598	21	diastole	13	A	2130.3297690552017	streaming
408.9834	0.0906279253831598	21	diastole	14	B	500.0	streaming
409.1734	0.0906279253831598	21	diastole	15	A	2130.3297690552017	streaming
409.5435	0.0906279253831598	21	diastole	16	A	2130.3297690552017	streaming
409.7334	0.0906279253831598	21	diastole	17	B	500.0	streaming
409.9234	0.0906279253831598	21	diastole	18	A	2130.3297690552017	streaming
410.2564	0.0906279253831598	21	diastole	19	A	2130.3297690552017	streaming
410.4451	0.0906279253831598	21	diastole	20	B	500.0	streaming
410.6338	0.0906279253831598	21	diastole	21	A	2130.3297690552017	streaming
410.9764	0.0906279253831598	21	diastole	22	A	2130.3297690552017	streaming
411.1651	0.0906279253831598	21	diastole	23	B	500.0	streaming
411.3538	0.0906279253831598	21	diastole	24	A	2130.3297690552017	streaming
411.6964	0.0906279253831598	21	diastole	25	A	2130.3297690552017	streaming
411.8851	0.0906279253831598	21	diastole	26	B	500.0	streaming
412.0738	0.0906279253831598	21	diastole	27	A	2130.3297690552017	streaming
412.4365	0.0906279253831598	21	diastole	28	A	2130.3297690552017	streaming
412.6252	0.0906279253831598	21	diastole	29	B	500.0	streaming
412.8139	0.0906279253831598	21	diastole	30	A	2130.3297690552017	streaming
413.1426	0.0906279253831598	21	diastole	31	A	2130.3297690552017	streaming
413.3289	0.0906279253831598	21	diastole	32	B	500.0	streaming
413.5152	0.0906279253831598	21	diastole	33	A	2130.3297690552017	streaming
413.8755	0.0906279253831598	21	diastole	34	A	2130.3297690552017	streaming
414.0606	0.0906279253831598	21	diastole	35	B	500.0	streaming
414.2455	0.0906279253831598	21	diastole	36	A	2130.3297690552017	streaming
416.3777	0.090003102493938	22	systole	1	A	754.7629107028698	coherent
416.5569	0.090003102493938	22	systole	2	B	500.0	coherent
416.7377	0.090003102493938	22	systole	3	A	754.7629107028698	coherent
417.078	0.090003102493938	22	systole	4	A	754.7629107028698	coherent
417.2573	0.090003102493938	22	systole	5	B	500.0	coherent
417.4381	0.090003102493938	22	systole	6	A	754.7629107028698	coherent
417.7784	0.090003102493938	22	systole	7	A	754.7629107028698	coherent
417.9576	0.090003102493938	22	systole	8	B	500.0	coherent
418.1384	0.090003102493938	22	systole	9	A	754.7629107028698	coherent
418.4837	0.090003102493938	22	systole	10	A	754.7629107028698	coherent
418.6617	0.090003102493938	22	systole	11	B	500.0	coherent
418.8412	0.090003102493938	22	systole	12	A	754.7629107028698	coherent
419.1935	0.090003102493938	22	systole	13	A	754.7629107028698	coherent
419.3715	0.090003102493938	22	systole	14	B	500.0	coherent
419.551	0.090003102493938	22	systole	15	A	754.7629107028698	coherent
419.9336	0.090003102493938	22	systole	16	A	754.7629107028698	coherent
420.1115	0.090003102493938	22	systole	17	B	500.0	coherent
420.2911	0.090003102493938	22	systole	18	A	754.7629107028698	coherent
420.6535	0.090003102493938	22	systole	19	A	754.7629107028698	coherent
420.8315	0.090003102493938	22	systole	20	B	500.0	coherent
421.011	0.090003102493938	22	systole	21	A	754.7629107028698	coherent
421.359	0.090003102493938	22	systole	22	A	754.7629107028698	coherent
421.5357	0.090003102493938	22	systole	23	B	500.0	coherent
421.714	0.090003102493938	22	systole	24	A	754.7629107028698	coherent
422.0836	0.090003102493938	22	systole	25	A	754.7629107028698	coherent
422.2615	0.090003102493938	22	systole	26	B	500.0	coherent
422.4411	0.090003102493938	22	systole	27	A	754.7629107028698	coherent
422.8281	0.090003102493938	22	systole	28	A	754.7629107028698	coherent
423.0073	0.090003102493938	22	systole	29	B	500.0	coherent
423.1881	0.090003102493938	22	systole	30	A	754.7629107028698	coherent
423.5681	0.090003102493938	22	systole	31	A	754.7629107028698	coherent
423.7473	0.090003102493938	22	systole	32	B	500.0	coherent
423.9281	0.090003102493938	22	systole	33	A	754.7629107028698	coherent
424.3081	0.090003102493938	22	systole	34	A	754.7629107028698	coherent
424.4873	0.090003102493938	22	systole	35	B	500.0	coherent
424.6681	0.090003102493938	22	systole	36	A	754.7629107028698	coherent
425.0482	0.090003102493938	22	systole	37	A	754.7629107028698	coherent
425.2274	0.090003102493938	22	systole	38	B	500.0	coherent
425.4082	0.090003102493938	22	systole	39	A	754.7629107028698	coherent
425.7682	0.090003102493938	22	systole	40	A	754.7629107028698	coherent
425.9474	0.090003102493938	22	systole	41	B	500.0	coherent
426.1281	0.090003102493938	22	systole	42	A	754.7629107028698	coherent
428.8655	0.0925016062392387	23	systole	1	A	3970.34830453257	streaming
429.0506	0.0925016062392387	23	systole	2	B	500.0	streaming
429.2355	0.0925016062392387	23	systole	3	A	3970.34830453257	streaming
429.6847	0.0925016062392387	23	systole	4	A	3970.34830453257	streaming
429.8723	0.0925016062392387	23	systole	5	B	500.0	streaming
430.0597	0.0925016062392387	23	systole	6	A	3970.34830453257	streaming
430.4947	0.0925016062392387	23	systole	7	A	3970.34830453257	streaming
430.6823	0.0925016062392387	23	systole	8	B	500.0	streaming
430.8698	0.0925016062392387	23	systole	9	A	3970.34830453257	streaming
431.283	0.0925016062392387	23	systole	10	A	3970.34830453257	streaming
431.4756	0.0925016062392387	23	systole	11	B	500.0	streaming
431.668	0.0925016062392387	23	systole	12	A	3970.34830453257	streaming
432.0531	0.0925016062392387	23	systole	13	A	3970.34830453257	streaming
432.2457	0.0925016062392387	23	systole	14	B	500.0	streaming
432.4381	0.0925016062392387	23	systole	15	A	3970.34830453257	streaming
432.8732	0.0925016062392387	23	systole	16	A	3970.34830453257	streaming
433.0658	0.0925016062392387	23	systole	17	B	500.0	streaming
433.2582	0.0925016062392387	23	systole	18	A	3970.34830453257	streaming
433.6477	0.0925016062392387	23	systole	19	A	3970.34830453257	streaming
433.8416	0.0925016062392387	23	systole	20	B	500.0	streaming
434.0352	0.0925016062392387	23	systole	21	A	3970.34830453257	streaming
434.4177	0.0925016062392387	23	systole	22	A	3970.34830453257	streaming
434.6116	0.0925016062392387	23	systole	23	B	500.0	streaming
434.8052	0.0925016062392387	23	systole	24	A	3970.34830453257	streaming
435.2414	0.0925016062392387	23	systole	25	A	3970.34830453257	streaming
435.439	0.0925016062392387	23	systole	26	B	500.0	streaming
435.6364	0.0925016062392387	23	systole	27	A	3970.34830453257	streaming
436.0514	0.0925016062392387	23	systole	28	A	3970.34830453257	streaming
436.249	0.0925016062392387	23	systole	29	B	500.0	streaming
436.4464	0.0925016062392387	23	systole	30	A	3970.34830453257	streaming
436.846	0.0925016062392387	23	systole	31	A	3970.34830453257	streaming
437.0449	0.0925016062392387	23	systole	32	B	500.0	streaming
437.2435	0.0925016062392387	23	systole	33	A	3970.34830453257	streaming
437.6316	0.0925016062392387	23	systole	34	A	3970.34830453257	streaming
437.8292	0.0925016062392387	23	systole	35	B	500.0	streaming
438.0266	0.0925016062392387	23	systole	36	A	3970.34830453257	streaming
440.0167	0.0993794500245712	24	systole	1	A	790.3852555644094	coherent
440.2147	0.0993794500245712	24	systole	2	B	500.0	coherent
440.4142	0.0993794500245712	24	systole	3	A	790.3852555644094	coherent
440.7721	0.0993794500245712	24	systole	4	A	790.3852555644094	coherent
440.9689	0.0993794500245712	24	systole	5	B	500.0	coherent
441.1671	0.0993794500245712	24	systole	6	A	790.3852555644094	coherent
441.5421	0.0993794500245712	24	systole	7	A	790.3852555644094	coherent
441.7389	0.0993794500245712	24	systole	8	B	500.0	coherent
441.9371	0.0993794500245712	24	systole	9	A	790.3852555644094	coherent
442.3122	0.0993794500245712	24	systole	10	A	790.3852555644094	coherent
442.509	0.0993794500245712	24	systole	11	B	500.0	coherent
442.7072	0.0993794500245712	24	systole	12	A	790.3852555644094	coherent
443.0823	0.0993794500245712	24	systole	13	A	790.3852555644094	coherent
443.2791	0.0993794500245712	24	systole	14	B	500.0	coherent
443.4773	0.0993794500245712	24	systole	15	A	790.3852555644094	coherent
443.8523	0.0993794500245712	24	systole	16	A	790.3852555644094	coherent
444.0491	0.0993794500245712	24	systole	17	B	500.0	coherent
444.2473	0.0993794500245712	24	systole	18	A	790.3852555644094	coherent
444.6421	0.0993794500245712	24	systole	19	A	790.3852555644094	coherent
444.8389	0.0993794500245712	24	systole	20	B	500.0	coherent
445.0371	0.0993794500245712	24	systole	21	A	790.3852555644094	coherent
445.3828	0.0993794500245712	24	systole	22	A	790.3852555644094	coherent
445.5771	0.0993794500245712	24	systole	23	B	500.0	coherent
445.7728	0.0993794500245712	24	systole	24	A	790.3852555644094	coherent
446.1328	0.0993794500245712	24	systole	25	A	790.3852555644094	coherent
446.3271	0.0993794500245712	24	systole	26	B	500.0	coherent
446.5227	0.0993794500245712	24	systole	27	A	790.3852555644094	coherent
446.9174	0.0993794500245712	24	systole	28	A	790.3852555644094	coherent
447.113	0.0993794500245712	24	systole	29	B	500.0	coherent
447.3099	0.0993794500245712	24	systole	30	A	790.3852555644094	coherent
447.6483	0.0993794500245712	24	systole	31	A	790.3852555644094	coherent
447.8414	0.0993794500245712	24	systole	32	B	500.0	coherent
448.0358	0.0993794500245712	24	systole	33	A	790.3852555644094	coherent
448.3882	0.0993794500245712	24	systole	34	A	790.3852555644094	coherent
448.5813	0.0993794500245712	24	systole	35	B	500.0	coherent
448.7757	0.0993794500245712	24	systole	36	A	790.3852555644094	coherent
449.1281	0.0993794500245712	24	systole	37	A	790.3852555644094	coherent
449.3212	0.0993794500245712	24	systole	38	B	500.0	coherent
449.5156	0.0993794500245712	24	systole	39	A	790.3852555644094	coherent
454.0452	0.0925299094524234	25	diastole	1	A	1374.6058324966025	streaming
454.2303	0.0925299094524234	25	diastole	2	B	500.0	streaming
454.4152	0.0925299094524234	25	diastole	3	A	1374.6058324966025	streaming
454.7352	0.0925299094524234	25	diastole	4	A	1374.6058324966025	streaming
454.9202	0.0925299094524234	25	diastole	5	B	500.0	streaming
455.1052	0.0925299094524234	25	diastole	6	A	1374.6058324966025	streaming
455.6456	0.0925299094524234	25	diastole	7	A	1374.6058324966025	streaming
455.8307	0.0925299094524234	25	diastole	8	B	500.0	streaming
456.0157	0.0925299094524234	25	diastole	9	A	1374.6058324966025	streaming
456.4589	0.0925299094524234	25	diastole	10	A	1374.6058324966025	streaming
456.6478	0.0925299094524234	25	diastole	11	B	500.0	streaming
456.8365	0.0925299094524234	25	diastole	12	A	1374.6058324966025	streaming
457.2509	0.0925299094524234	25	diastole	13	A	1374.6058324966025	streaming
457.4398	0.0925299094524234	25	diastole	14	B	500.0	streaming
457.6285	0.0925299094524234	25	diastole	15	A	1374.6058324966025	streaming
458.0429	0.0925299094524234	25	diastole	16	A	1374.6058324966025	streaming
458.2317	0.0925299094524234	25	diastole	17	B	500.0	streaming
458.4205	0.0925299094524234	25	diastole	18	A	1374.6058324966025	streaming
458.8348	0.0925299094524234	25	diastole	19	A	1374.6058324966025	streaming
459.0237	0.0925299094524234	25	diastole	20	B	500.0	streaming
459.2125	0.0925299094524234	25	diastole	21	A	1374.6058324966025	streaming
459.6268	0.0925299094524234	25	diastole	22	A	1374.6058324966025	streaming
459.8157	0.0925299094524234	25	diastole	23	B	500.0	streaming
460.0044	0.0925299094524234	25	diastole	24	A	1374.6058324966025	streaming
460.4078	0.0925299094524234	25	diastole	25	A	1374.6058324966025	streaming
460.6003	0.0925299094524234	25	diastole	26	B	500.0	streaming
460.7928	0.0925299094524234	25	diastole	27	A	1374.6058324966025	streaming
461.1658	0.0925299094524234	25	diastole	28	A	1374.6058324966025	streaming
461.3583	0.0925299094524234	25	diastole	29	B	500.0	streaming
461.5508	0.0925299094524234	25	diastole	30	A	1374.6058324966025	streaming
461.9238	0.0925299094524234	25	diastole	31	A	1374.6058324966025	streaming
462.1163	0.0925299094524234	25	diastole	32	B	500.0	streaming
462.3088	0.0925299094524234	25	diastole	33	A	1374.6058324966025	streaming
462.627	0.0925299094524234	25	diastole	34	A	1374.6058324966025	streaming
462.8183	0.0925299094524234	25	diastole	35	B	500.0	streaming
463.0095	0.0925299094524234	25	diastole	36	A	1374.6058324966025	streaming
464.5633	0.0881292675039731	26	systole	1	A	3704.9827347719142	streaming
464.7395	0.0881292675039731	26	systole	2	B	500.0	streaming
464.9158	0.0881292675039731	26	systole	3	A	3704.9827347719142	streaming
465.3133	0.0881292675039731	26	systole	4	A	3704.9827347719142	streaming
465.4896	0.0881292675039731	26	systole	5	B	500.0	streaming
465.6658	0.0881292675039731	26	systole	6	A	3704.9827347719142	streaming
466.0633	0.0881292675039731	26	systole	7	A	3704.9827347719142	streaming
466.2396	0.0881292675039731	26	systole	8	B	500.0	streaming
466.4158	0.0881292675039731	26	systole	9	A	3704.9827347719142	streaming
466.8024	0.0881292675039731	26	systole	10	A	3704.9827347719142	streaming
466.9812	0.0881292675039731	26	systole	11	B	500.0	streaming
467.1599	0.0881292675039731	26	systole	12	A	3704.9827347719142	streaming
467.5324	0.0881292675039731	26	systole	13	A	3704.9827347719142	streaming
467.7112	0.0881292675039731	26	systole	14	B	500.0	streaming
467.8899	0.0881292675039731	26	systole	15	A	3704.9827347719142	streaming
468.2624	0.0881292675039731	26	systole	16	A	3704.9827347719142	streaming
468.4412	0.0881292675039731	26	systole	17	B	500.0	streaming
468.6199	0.0881292675039731	26	systole	18	A	3704.9827347719142	streaming
469.0116	0.0881292675039731	26	systole	19	A	3704.9827347719142	streaming
469.1929	0.0881292675039731	26	systole	20	B	500.0	streaming
469.3741	0.0881292675039731	26	systole	21	A	3704.9827347719142	streaming
469.7517	0.0881292675039731	26	systole	22	A	3704.9827347719142	streaming
469.9329	0.0881292675039731	26	systole	23	B	500.0	streaming
470.1142	0.0881292675039731	26	systole	24	A	3704.9827347719142	streaming
470.5599	0.0881292675039731	26	systole	25	A	3704.9827347719142	streaming
470.7462	0.0881292675039731	26	systole	26	B	500.0	streaming
470.9324	0.0881292675039731	26	systole	27	A	3704.9827347719142	streaming
471.3445	0.0881292675039731	26	systole	28	A	3704.9827347719142	streaming
471.532	0.0881292675039731	26	systole	29	B	500.0	streaming
471.7195	0.0881292675039731	26	systole	30	A	3704.9827347719142	streaming
472.1491	0.0881292675039731	26	systole	31	A	3704.9827347719142	streaming
472.3379	0.0881292675039731	26	systole	32	B	500.0	streaming
472.5266	0.0881292675039731	26	systole	33	A	3704.9827347719142	streaming
472.8992	0.0881292675039731	26	systole	34	A	3704.9827347719142	streaming
473.0879	0.0881292675039731	26	systole	35	B	500.0	streaming
473.2767	0.0881292675039731	26	systole	36	A	3704.9827347719142	streaming
473.6492	0.0881292675039731	26	systole	37	A	3704.9827347719142	streaming
473.838	0.0881292675039731	26	systole	38	B	500.0	streaming
474.0268	0.0881292675039731	26	systole	39	A	3704.9827347719142	streaming
474.483	0.0881292675039731	26	systole	40	A	3704.9827347719142	streaming
474.6755	0.0881292675039731	26	systole	41	B	500.0	streaming
474.868	0.0881292675039731	26	systole	42	A	3704.9827347719142	streaming
476.918	0.0981251850607805	27	systole	1	A	846.9957848672357	coherent
477.1112	0.0981251850607805	27	systole	2	B	500.0	coherent
477.3055	0.0981251850607805	27	systole	3	A	846.9957848672357	coherent
477.6861	0.0981251850607805	27	systole	4	A	846.9957848672357	coherent
477.8782	0.0981251850607805	27	systole	5	B	500.0	coherent
478.0715	0.0981251850607805	27	systole	6	A	846.9957848672357	coherent
478.4579	0.0981251850607805	27	systole	7	A	846.9957848672357	coherent
478.65	0.0981251850607805	27	systole	8	B	500.0	coherent
478.8433	0.0981251850607805	27	systole	9	A	846.9957848672357	coherent
479.1925	0.0981251850607805	27	systole	10	A	846.9957848672357	coherent
479.3832	0.0981251850607805	27	systole	11	B	500.0	coherent
479.575	0.0981251850607805	27	systole	12	A	846.9957848672357	coherent
479.9326	0.0981251850607805	27	systole	13	A	846.9957848672357	coherent
480.1233	0.0981251850607805	27	systole	14	B	500.0	coherent
480.3151	0.0981251850607805	27	systole	15	A	846.9957848672357	coherent
480.7024	0.0981251850607805	27	systole	16	A	846.9957848672357	coherent
480.8931	0.0981251850607805	27	systole	17	B	500.0	coherent
481.0849	0.0981251850607805	27	systole	18	A	846.9957848672357	coherent
481.4725	0.0981251850607805	27	systole	19	A	846.9957848672357	coherent
481.6631	0.0981251850607805	27	systole	20	B	500.0	coherent
481.8549	0.0981251850607805	27	systole	21	A	846.9957848672357	coherent
482.1933	0.0981251850607805	27	systole	22	A	846.9957848672357	coherent
482.3815	0.0981251850607805	27	systole	23	B	500.0	coherent
482.5708	0.0981251850607805	27	systole	24	A	846.9957848672357	coherent
482.9433	0.0981251850607805	27	systole	25	A	846.9957848672357	coherent
483.1315	0.0981251850607805	27	systole	26	B	500.0	coherent
483.3208	0.0981251850607805	27	systole	27	A	846.9957848672357	coherent
483.6933	0.0981251850607805	27	systole	28	A	846.9957848672357	coherent
483.8815	0.0981251850607805	27	systole	29	B	500.0	coherent
484.0708	0.0981251850607805	27	systole	30	A	846.9957848672357	coherent
484.4578	0.0981251850607805	27	systole	31	A	846.9957848672357	coherent
484.6472	0.0981251850607805	27	systole	32	B	500.0	coherent
484.8378	0.0981251850607805	27	systole	33	A	846.9957848672357	coherent
485.1932	0.0981251850607805	27	systole	34	A	846.9957848672357	coherent
485.3813	0.0981251850607805	27	systole	35	B	500.0	coherent
485.5706	0.0981251850607805	27	systole	36	A	846.9957848672357	coherent
485.904	0.0981251850607805	27	systole	37	A	846.9957848672357	coherent
486.0897	0.0981251850607805	27	systole	38	B	500.0	coherent
486.2765	0.0981251850607805	27	systole	39	A	846.9957848672357	coherent
488.2293	0.0949983195459935	28	systole	1	A	3457.353363503972	streaming
488.418	0.0949983195459935	28	systole	2	B	500.0	streaming
488.6068	0.0949983195459935	28	systole	3	A	3457.353363503972	streaming
488.9693	0.0949983195459935	28	systole	4	A	3457.353363503972	streaming
489.1579	0.0949983195459935	28	systole	5	B	500.0	streaming
489.3467	0.0949983195459935	28	systole	6	A	3457.353363503972	streaming
489.7539	0.0949983195459935	28	systole	7	A	3457.353363503972	streaming
489.9438	0.0949983195459935	28	systole	8	B	500.0	streaming
490.1339	0.0949983195459935	28	systole	9	A	3457.353363503972	streaming
490.534	0.0949983195459935	28	systole	10	A	3457.353363503972	streaming
490.7239	0.0949983195459935	28	systole	11	B	500.0	streaming
490.914	0.0949983195459935	28	systole	12	A	3457.353363503972	streaming
491.3103	0.0949983195459935	28	systole	13	A	3457.353363503972	streaming
491.5014	0.0949983195459935	28	systole	14	B	500.0	streaming
491.6928	0.0949983195459935	28	systole	15	A	3457.353363503972	streaming
492.0886	0.0949983195459935	28	systole	16	A	3457.353363503972	streaming
492.2798	0.0949983195459935	28	systole	17	B	500.0	streaming
492.4711	0.0949983195459935	28	systole	18	A	3457.353363503972	streaming
492.867	0.0949983195459935	28	systole	19	A	3457.353363503972	streaming
493.0581	0.0949983195459935	28	systole	20	B	500.0	streaming
493.2495	0.0949983195459935	28	systole	21	A	3457.353363503972	streaming
493.597	0.0949983195459935	28	systole	22	A	3457.353363503972	streaming
493.7882	0.0949983195459935	28	systole	23	B	500.0	streaming
493.9796	0.0949983195459935	28	systole	24	A	3457.353363503972	streaming
494.3271	0.0949983195459935	28	systole	25	A	3457.353363503972	streaming
494.5183	0.0949983195459935	28	systole	26	B	500.0	streaming
494.7097	0.0949983195459935	28	systole	27	A	3457.353363503972	streaming
495.1017	0.0949983195459935	28	systole	28	A	3457.353363503972	streaming
495.2941	0.0949983195459935	28	systole	29	B	500.0	streaming
495.4867	0.0949983195459935	28	systole	30	A	3457.353363503972	streaming
495.8716	0.0949983195459935	28	systole	31	A	3457.353363503972	streaming
496.0641	0.0949983195459935	28	systole	32	B	500.0	streaming
496.2566	0.0949983195459935	28	systole	33	A	3457.353363503972	streaming
496.6623	0.0949983195459935	28	systole	34	A	3457.353363503972	streaming
496.855	0.0949983195459935	28	systole	35	B	500.0	streaming
497.0477	0.0949983195459935	28	systole	36	A	3457.353363503972	streaming
497.4023	0.0949983195459935	28	systole	37	A	3457.353363503972	streaming
497.5949	0.0949983195459935	28	systole	38	B	500.0	streaming
497.7877	0.0949983195459935	28	systole	39	A	3457.353363503972	streaming
500.4082	0.0956274687487166	29	systole	1	A	3226.274759109801	streaming
500.5995	0.0956274687487166	29	systole	2	B	500.0	streaming
500.7907	0.0956274687487166	29	systole	3	A	3226.274759109801	streaming
501.1581	0.0956274687487166	29	systole	4	A	3226.274759109801	streaming
501.3495	0.0956274687487166	29	systole	5	B	500.0	streaming
501.5406	0.0956274687487166	29	systole	6	A	3226.274759109801	streaming
501.9081	0.0956274687487166	29	systole	7	A	3226.274759109801	streaming
502.0995	0.0956274687487166	29	systole	8	B	500.0	streaming
502.2906	0.0956274687487166	29	systole	9	A	3226.274759109801	streaming
502.6581	0.0956274687487166	29	systole	10	A	3226.274759109801	streaming
502.8494	0.0956274687487166	29	systole	11	B	500.0	streaming
503.0406	0.0956274687487166	29	systole	12	A	3226.274759109801	streaming
503.3497	0.0956274687487166	29	systole	13	A	3226.274759109801	streaming
503.5361	0.0956274687487166	29	systole	14	B	500.0	streaming
503.7222	0.0956274687487166	29	systole	15	A	3226.274759109801	streaming
504.0606	0.0956274687487166	29	systole	16	A	3226.274759109801	streaming
504.2445	0.0956274687487166	29	systole	17	B	500.0	streaming
504.4281	0.0956274687487166	29	systole	18	A	3226.274759109801	streaming
504.7806	0.0956274687487166	29	systole	19	A	3226.274759109801	streaming
504.9645	0.0956274687487166	29	systole	20	B	500.0	streaming
505.1482	0.0956274687487166	29	systole	21	A	3226.274759109801	streaming
505.5206	0.0956274687487166	29	systole	22	A	3226.274759109801	streaming
505.7045	0.0956274687487166	29	systole	23	B	500.0	streaming
505.8881	0.0956274687487166	29	systole	24	A	3226.274759109801	streaming
506.2168	0.0956274687487166	29	systole	25	A	3226.274759109801	streaming
506.397	0.0956274687487166	29	systole	26	B	500.0	streaming
506.5768	0.0956274687487166	29	systole	27	A	3226.274759109801	streaming
506.9814	0.0956274687487166	29	systole	28	A	3226.274759109801	streaming
507.1628	0.0956274687487166	29	systole	29	B	500.0	streaming
507.3439	0.0956274687487166	29	systole	30	A	3226.274759109801	streaming
507.7414	0.0956274687487166	29	systole	31	A	3226.274759109801	streaming
507.9228	0.0956274687487166	29	systole	32	B	500.0	streaming
508.1039	0.0956274687487166	29	systole	33	A	3226.274759109801	streaming
508.5014	0.0956274687487166	29	systole	34	A	3226.274759109801	streaming
508.6828	0.0956274687487166	29	systole	35	B	500.0	streaming
508.8639	0.0956274687487166	29	systole	36	A	3226.274759109801	streaming
509.2313	0.0956274687487166	29	systole	37	A	3226.274759109801	streaming
509.4127	0.0956274687487166	29	systole	38	B	500.0	streaming
509.5938	0.0956274687487166	29	systole	39	A	3226.274759109801	streaming
512.1705	0.093129014596343	30	systole	1	A	950.4996196948616	coherent
512.3564	0.093129014596343	30	systole	2	B	500.0	coherent
512.543	0.093129014596343	30	systole	3	A	950.4996196948616	coherent
512.9452	0.093129014596343	30	systole	4	A	950.4996196948616	coherent
513.1323	0.093129014596343	30	systole	5	B	500.0	coherent
513.3202	0.093129014596343	30	systole	6	A	950.4996196948616	coherent
513.7152	0.093129014596343	30	systole	7	A	950.4996196948616	coherent
513.9023	0.093129014596343	30	systole	8	B	500.0	coherent
514.0902	0.093129014596343	30	systole	9	A	950.4996196948616	coherent
514.5098	0.093129014596343	30	systole	10	A	950.4996196948616	coherent
514.6982	0.093129014596343	30	systole	11	B	500.0	coherent
514.8873	0.093129014596343	30	systole	12	A	950.4996196948616	coherent
515.2452	0.093129014596343	30	systole	13	A	950.4996196948616	coherent
515.4323	0.093129014596343	30	systole	14	B	500.0	coherent
515.6202	0.093129014596343	30	systole	15	A	950.4996196948616	coherent
515.9707	0.093129014596343	30	systole	16	A	950.4996196948616	coherent
516.1566	0.093129014596343	30	systole	17	B	500.0	coherent
516.3432	0.093129014596343	30	systole	18	A	950.4996196948616	coherent
516.7398	0.093129014596343	30	systole	19	A	950.4996196948616	coherent
516.9281	0.093129014596343	30	systole	20	B	500.0	coherent
517.1173	0.093129014596343	30	systole	21	A	950.4996196948616	coherent
517.4751	0.093129014596343	30	systole	22	A	950.4996196948616	coherent
517.6622	0.093129014596343	30	systole	23	B	500.0	coherent
517.8501	0.093129014596343	30	systole	24	A	950.4996196948616	coherent
518.186	0.093129014596343	30	systole	25	A	950.4996196948616	coherent
518.3706	0.093129014596343	30	systole	26	B	500.0	coherent
518.556	0.093129014596343	30	systole	27	A	950.4996196948616	coherent
518.906	0.093129014596343	30	systole	28	A	950.4996196948616	coherent
519.0906	0.093129014596343	30	systole	29	B	500.0	coherent
519.276	0.093129014596343	30	systole	30	A	950.4996196948616	coherent
519.6159	0.093129014596343	30	systole	31	A	950.4996196948616	coherent
519.8005	0.093129014596343	30	systole	32	B	500.0	coherent
519.9859	0.093129014596343	30	systole	33	A	950.4996196948616	coherent
520.3706	0.093129014596343	30	systole	34	A	950.4996196948616	coherent
520.5565	0.093129014596343	30	systole	35	B	500.0	coherent
520.7432	0.093129014596343	30	systole	36	A	950.4996196948616	coherent
521.1207	0.093129014596343	30	systole	37	A	950.4996196948616	coherent
521.3066	0.093129014596343	30	systole	38	B	500.0	coherent
521.4933	0.093129014596343	30	systole	39	A	950.4996196948616	coherent
523.4617	0.0918817338242661	31	systole	1	A	2942.014383864825	streaming
523.648	0.0918817338242661	31	systole	2	B	500.0	streaming
523.8342	0.0918817338242661	31	systole	3	A	2942.014383864825	streaming
524.2617	0.0918817338242661	31	systole	4	A	2942.014383864825	streaming
524.448	0.0918817338242661	31	systole	5	B	500.0	streaming
524.6342	0.0918817338242661	31	systole	6	A	2942.014383864825	streaming
525.0801	0.0918817338242661	31	systole	7	A	2942.014383864825	streaming
525.2664	0.0918817338242661	31	systole	8	B	500.0	streaming
525.4526	0.0918817338242661	31	systole	9	A	2942.014383864825	streaming
525.8647	0.0918817338242661	31	systole	10	A	2942.014383864825	streaming
526.0522	0.0918817338242661	31	systole	11	B	500.0	streaming
526.2397	0.0918817338242661	31	systole	12	A	2942.014383864825	streaming
526.6045	0.0918817338242661	31	systole	13	A	2942.014383864825	streaming
526.7921	0.0918817338242661	31	systole	14	B	500.0	streaming
526.9795	0.0918817338242661	31	systole	15	A	2942.014383864825	streaming
527.3444	0.0918817338242661	31	systole	16	A	2942.014383864825	streaming
527.5319	0.0918817338242661	31	systole	17	B	500.0	streaming
527.7194	0.0918817338242661	31	systole	18	A	2942.014383864825	streaming
528.1182	0.0918817338242661	31	systole	19	A	2942.014383864825	streaming
528.3096	0.0918817338242661	31	systole	20	B	500.0	streaming
528.5008	0.0918817338242661	31	systole	21	A	2942.014383864825	streaming
528.8382	0.0918817338242661	31	systole	22	A	2942.014383864825	streaming
529.0296	0.0918817338242661	31	systole	23	B	500.0	streaming
529.2208	0.0918817338242661	31	systole	24	A	2942.014383864825	streaming
529.598	0.0918817338242661	31	systole	25	A	2942.014383864825	streaming
529.7893	0.0918817338242661	31	systole	26	B	500.0	streaming
529.9805	0.0918817338242661	31	systole	27	A	2942.014383864825	streaming
530.3577	0.0918817338242661	31	systole	28	A	2942.014383864825	streaming
530.549	0.0918817338242661	31	systole	29	B	500.0	streaming
530.7403	0.0918817338242661	31	systole	30	A	2942.014383864825	streaming
531.1175	0.0918817338242661	31	systole	31	A	2942.014383864825	streaming
531.3088	0.0918817338242661	31	systole	32	B	500.0	streaming
531.5	0.0918817338242661	31	systole	33	A	2942.014383864825	streaming
531.8827	0.0918817338242661	31	systole	34	A	2942.014383864825	streaming
532.0727	0.0918817338242661	31	systole	35	B	500.0	streaming
532.2627	0.0918817338242661	31	systole	36	A	2942.014383864825	streaming
532.6526	0.0918817338242661	31	systole	37	A	2942.014383864825	streaming
532.8427	0.0918817338242661	31	systole	38	B	500.0	streaming
533.0327	0.0918817338242661	31	systole	39	A	2942.014383864825	streaming
534.8392	0.0943819126696325	32	systole	1	A	1091.5327872906942	coherent
535.0278	0.0943819126696325	32	systole	2	B	500.0	coherent
535.2168	0.0943819126696325	32	systole	3	A	1091.5327872906942	coherent
535.5649	0.0943819126696325	32	systole	4	A	1091.5327872906942	coherent
535.7522	0.0943819126696325	32	systole	5	B	500.0	coherent
535.94	0.0943819126696325	32	systole	6	A	1091.5327872906942	coherent
536.2949	0.0943819126696325	32	systole	7	A	1091.5327872906942	coherent
536.4822	0.0943819126696325	32	systole	8	B	500.0	coherent
536.67	0.0943819126696325	32	systole	9	A	1091.5327872906942	coherent
537.0149	0.0943819126696325	32	systole	10	A	1091.5327872906942	coherent
537.2023	0.0943819126696325	32	systole	11	B	500.0	coherent
537.39	0.0943819126696325	32	systole	12	A	1091.5327872906942	coherent
537.7349	0.0943819126696325	32	systole	13	A	1091.5327872906942	coherent
537.9223	0.0943819126696325	32	systole	14	B	500.0	coherent
538.11	0.0943819126696325	32	systole	15	A	1091.5327872906942	coherent
538.47	0.0943819126696325	32	systole	16	A	1091.5327872906942	coherent
538.6561	0.0943819126696325	32	systole	17	B	500.0	coherent
538.8425	0.0943819126696325	32	systole	18	A	1091.5327872906942	coherent
539.21	0.0943819126696325	32	systole	19	A	1091.5327872906942	coherent
539.396	0.0943819126696325	32	systole	20	B	500.0	coherent
539.5825	0.0943819126696325	32	systole	21	A	1091.5327872906942	coherent
539.9554	0.0943819126696325	32	systole	22	A	1091.5327872906942	coherent
540.1402	0.0943819126696325	32	systole	23	B	500.0	coherent
540.3254	0.0943819126696325	32	systole	24	A	1091.5327872906942	coherent
540.6855	0.0943819126696325	32	systole	25	A	1091.5327872906942	coherent
540.8703	0.0943819126696325	32	systole	26	B	500.0	coherent
541.0555	0.0943819126696325	32	systole	27	A	1091.5327872906942	coherent
541.4156	0.0943819126696325	32	systole	28	A	1091.5327872906942	coherent
541.6004	0.0943819126696325	32	systole	29	B	500.0	coherent
541.7856	0.0943819126696325	32	systole	30	A	1091.5327872906942	coherent
542.1756	0.0943819126696325	32	systole	31	A	1091.5327872906942	coherent
542.3604	0.0943819126696325	32	systole	32	B	500.0	coherent
542.5456	0.0943819126696325	32	systole	33	A	1091.5327872906942	coherent
542.9356	0.0943819126696325	32	systole	34	A	1091.5327872906942	coherent
543.1204	0.0943819126696325	32	systole	35	B	500.0	coherent
543.3056	0.0943819126696325	32	systole	36	A	1091.5327872906942	coherent
543.6956	0.0943819126696325	32	systole	37	A	1091.5327872906942	coherent
543.8804	0.0943819126696325	32	systole	38	B	500.0	coherent
544.0656	0.0943819126696325	32	systole	39	A	1091.5327872906942	coherent
544.4256	0.0943819126696325	32	systole	40	A	1091.5327872906942	coherent
544.6104	0.0943819126696325	32	systole	41	B	500.0	coherent
544.7956	0.0943819126696325	32	systole	42	A	1091.5327872906942	coherent
547.7998	0.0937519375002011	33	diastole	1	A	972.6712675344384	coherent
547.9869	0.0937519375002011	33	diastole	2	B	500.0	coherent
548.1748	0.0937519375002011	33	diastole	3	A	972.6712675344384	coherent
548.5299	0.0937519375002011	33	diastole	4	A	972.6712675344384	coherent
548.717	0.0937519375002011	33	diastole	5	B	500.0	coherent
548.9049	0.0937519375002011	33	diastole	6	A	972.6712675344384	coherent
549.2876	0.0937519375002011	33	diastole	7	A	972.6712675344384	coherent
549.476	0.0937519375002011	33	diastole	8	B	500.0	coherent
549.6652	0.0937519375002011	33	diastole	9	A	972.6712675344384	coherent
550.0132	0.0937519375002011	33	diastole	10	A	972.6712675344384	coherent
550.1991	0.0937519375002011	33	diastole	11	B	500.0	coherent
550.3857	0.0937519375002011	33	diastole	12	A	972.6712675344384	coherent
550.7086	0.0937519375002011	33	diastole	13	A	972.6712675344384	coherent
550.892	0.0937519375002011	33	diastole	14	B	500.0	coherent
551.0761	0.0937519375002011	33	diastole	15	A	972.6712675344384	coherent
551.4286	0.0937519375002011	33	diastole	16	A	972.6712675344384	coherent
551.6119	0.0937519375002011	33	diastole	17	B	500.0	coherent
551.796	0.0937519375002011	33	diastole	18	A	972.6712675344384	coherent
552.1485	0.0937519375002011	33	diastole	19	A	972.6712675344384	coherent
552.3319	0.0937519375002011	33	diastole	20	B	500.0	coherent
552.516	0.0937519375002011	33	diastole	21	A	972.6712675344384	coherent
552.8888	0.0937519375002011	33	diastole	22	A	972.6712675344384	coherent
553.0722	0.0937519375002011	33	diastole	23	B	500.0	coherent
553.2562	0.0937519375002011	33	diastole	24	A	972.6712675344384	coherent
553.5747	0.0937519375002011	33	diastole	25	A	972.6712675344384	coherent
553.7556	0.0937519375002011	33	diastole	26	B	500.0	coherent
553.9372	0.0937519375002011	33	diastole	27	A	972.6712675344384	coherent
554.2647	0.0937519375002011	33	diastole	28	A	972.6712675344384	coherent
554.4456	0.0937519375002011	33	diastole	29	B	500.0	coherent
554.6272	0.0937519375002011	33	diastole	30	A	972.6712675344384	coherent
554.9747	0.0937519375002011	33	diastole	31	A	972.6712675344384	coherent
555.1556	0.0937519375002011	33	diastole	32	B	500.0	coherent
555.3372	0.0937519375002011	33	diastole	33	A	972.6712675344384	coherent
555.6604	0.0937519375002011	33	diastole	34	A	972.6712675344384	coherent
555.8388	0.0937519375002011	33	diastole	35	B	500.0	coherent
556.0179	0.0937519375002011	33	diastole	36	A	972.6712675344384	coherent
558.0486	0.0874995062476955	34	systole	1	A	1615.38914443753	streaming
558.2238	0.0874995062476955	34	systole	2	B	500.0	streaming
558.3986	0.0874995062476955	34	systole	3	A	1615.38914443753	streaming
558.7586	0.0874995062476955	34	systole	4	A	1615.38914443753	streaming
558.9337	0.0874995062476955	34	systole	5	B	500.0	streaming
559.1085	0.0874995062476955	34	systole	6	A	1615.38914443753	streaming
559.4394	0.0874995062476955	34	systole	7	A	1615.38914443753	streaming
559.6121	0.0874995062476955	34	systole	8	B	500.0	streaming
559.7844	0.0874995062476955	34	systole	9	A	1615.38914443753	streaming
560.1294	0.0874995062476955	34	systole	10	A	1615.38914443753	streaming
560.3021	0.0874995062476955	34	systole	11	B	500.0	streaming
560.4745	0.0874995062476955	34	systole	12	A	1615.38914443753	streaming
560.844	0.0874995062476955	34	systole	13	A	1615.38914443753	streaming
561.0179	0.0874995062476955	34	systole	14	B	500.0	streaming
561.1915	0.0874995062476955	34	systole	15	A	1615.38914443753	streaming
561.5539	0.0874995062476955	34	systole	16	A	1615.38914443753	streaming
561.7278	0.0874995062476955	34	systole	17	B	500.0	streaming
561.9014	0.0874995062476955	34	systole	18	A	1615.38914443753	streaming
562.2639	0.0874995062476955	34	systole	19	A	1615.38914443753	streaming
562.4378	0.0874995062476955	34	systole	20	B	500.0	streaming
562.6113	0.0874995062476955	34	systole	21	A	1615.38914443753	streaming
562.9393	0.0874995062476955	34	systole	22	A	1615.38914443753	streaming
563.112	0.0874995062476955	34	systole	23	B	500.0	streaming
563.2843	0.0874995062476955	34	systole	24	A	1615.38914443753	streaming
563.6439	0.0874995062476955	34	systole	25	A	1615.38914443753	streaming
563.8178	0.0874995062476955	34	systole	26	B	500.0	streaming
563.9914	0.0874995062476955	34	systole	27	A	1615.38914443753	streaming
564.3438	0.0874995062476955	34	systole	28	A	1615.38914443753	streaming
564.5178	0.0874995062476955	34	systole	29	B	500.0	streaming
564.6913	0.0874995062476955	34	systole	30	A	1615.38914443753	streaming
565.073	0.0874995062476955	34	systole	31	A	1615.38914443753	streaming
565.2494	0.0874995062476955	34	systole	32	B	500.0	streaming
565.4254	0.0874995062476955	34	systole	33	A	1615.38914443753	streaming
565.7876	0.0874995062476955	34	systole	34	A	1615.38914443753	streaming
565.9652	0.0874995062476955	34	systole	35	B	500.0	streaming
566.1425	0.0874995062476955	34	systole	36	A	1615.38914443753	streaming
566.4385	0.0874995062476955	34	systole	37	A	1615.38914443753	streaming
566.6137	0.0874995062476955	34	systole	38	B	500.0	streaming
566.7886	0.0874995062476955	34	systole	39	A	1615.38914443753	streaming
567.1085	0.0874995062476955	34	systole	40	A	1615.38914443753	streaming
567.2837	0.0874995062476955	34	systole	41	B	500.0	streaming
567.4585	0.0874995062476955	34	systole	42	A	1615.38914443753	streaming
570.0161	0.0837251726188696	35	diastole	1	A	1018.5781753033378	coherent
570.1832	0.0837251726188696	35	diastole	2	B	500.0	coherent
570.351	0.0837251726188696	35	diastole	3	A	1018.5781753033378	coherent
570.686	0.0837251726188696	35	diastole	4	A	1018.5781753033378	coherent
570.8532	0.0837251726188696	35	diastole	5	B	500.0	coherent
571.0209	0.0837251726188696	35	diastole	6	A	1018.5781753033378	coherent
571.3564	0.0837251726188696	35	diastole	7	A	1018.5781753033378	coherent
571.5235	0.0837251726188696	35	diastole	8	B	500.0	coherent
571.6913	0.0837251726188696	35	diastole	9	A	1018.5781753033378	coherent
572.0267	0.0837251726188696	35	diastole	10	A	1018.5781753033378	coherent
572.1939	0.0837251726188696	35	diastole	11	B	500.0	coherent
572.3616	0.0837251726188696	35	diastole	12	A	1018.5781753033378	coherent
572.727	0.0837251726188696	35	diastole	13	A	1018.5781753033378	coherent
572.8942	0.0837251726188696	35	diastole	14	B	500.0	coherent
573.062	0.0837251726188696	35	diastole	15	A	1018.5781753033378	coherent
573.4372	0.0837251726188696	35	diastole	16	A	1018.5781753033378	coherent
573.6045	0.0837251726188696	35	diastole	17	B	500.0	coherent
573.7723	0.0837251726188696	35	diastole	18	A	1018.5781753033378	coherent
574.1079	0.0837251726188696	35	diastole	19	A	1018.5781753033378	coherent
574.2753	0.0837251726188696	35	diastole	20	B	500.0	coherent
574.4431	0.0837251726188696	35	diastole	21	A	1018.5781753033378	coherent
574.7784	0.0837251726188696	35	diastole	22	A	1018.5781753033378	coherent
574.9457	0.0837251726188696	35	diastole	23	B	500.0	coherent
575.1135	0.0837251726188696	35	diastole	24	A	1018.5781753033378	coherent
575.4488	0.0837251726188696	35	diastole	25	A	1018.5781753033378	coherent
575.6161	0.0837251726188696	35	diastole	26	B	500.0	coherent
575.7839	0.0837251726188696	35	diastole	27	A	1018.5781753033378	coherent
576.1356	0.0837251726188696	35	diastole	28	A	1018.5781753033378	coherent
576.3041	0.0837251726188696	35	diastole	29	B	500.0	coherent
576.4732	0.0837251726188696	35	diastole	30	A	1018.5781753033378	coherent
576.8223	0.0837251726188696	35	diastole	31	A	1018.5781753033378	coherent
576.9921	0.0837251726188696	35	diastole	32	B	500.0	coherent
577.1623	0.0837251726188696	35	diastole	33	A	1018.5781753033378	coherent
577.5195	0.0837251726188696	35	diastole	34	A	1018.5781753033378	coherent
577.6904	0.0837251726188696	35	diastole	35	B	500.0	coherent
577.862	0.0837251726188696	35	diastole	36	A	1018.5781753033378	coherent
578.1724	0.0837251726188696	35	diastole	37	A	1018.5781753033378	coherent
578.3421	0.0837251726188696	35	diastole	38	B	500.0	coherent
578.5124	0.0837251726188696	35	diastole	39	A	1018.5781753033378	coherent
578.8323	0.0837251726188696	35	diastole	40	A	1018.5781753033378	coherent
579.002	0.0837251726188696	35	diastole	41	B	500.0	coherent
579.1723	0.0837251726188696	35	diastole	42	A	1018.5781753033378	coherent
580.5505	0.0844030792650301	36	systole	1	A	2682.7996005075997	streaming
580.7204	0.0844030792650301	36	systole	2	B	500.0	streaming
580.8904	0.0844030792650301	36	systole	3	A	2682.7996005075997	streaming
581.2303	0.0844030792650301	36	systole	4	A	2682.7996005075997	streaming
581.4003	0.0844030792650301	36	systole	5	B	500.0	streaming
581.5703	0.0844030792650301	36	systole	6	A	2682.7996005075997	streaming
581.9103	0.0844030792650301	36	systole	7	A	2682.7996005075997	streaming
582.0802	0.0844030792650301	36	systole	8	B	500.0	streaming
582.2503	0.0844030792650301	36	systole	9	A	2682.7996005075997	streaming
582.6003	0.0844030792650301	36	systole	10	A	2682.7996005075997	streaming
582.7702	0.0844030792650301	36	systole	11	B	500.0	streaming
582.9403	0.0844030792650301	36	systole	12	A	2682.7996005075997	streaming
583.3004	0.0844030792650301	36	systole	13	A	2682.7996005075997	streaming
583.4703	0.0844030792650301	36	systole	14	B	500.0	streaming
583.6404	0.0844030792650301	36	systole	15	A	2682.7996005075997	streaming
584.0005	0.0844030792650301	36	systole	16	A	2682.7996005075997	streaming
584.1705	0.0844030792650301	36	systole	17	B	500.0	streaming
584.3405	0.0844030792650301	36	systole	18	A	2682.7996005075997	streaming
584.7006	0.0844030792650301	36	systole	19	A	2682.7996005075997	streaming
584.8705	0.0844030792650301	36	systole	20	B	500.0	streaming
585.0406	0.0844030792650301	36	systole	21	A	2682.7996005075997	streaming
585.4051	0.0844030792650301	36	systole	22	A	2682.7996005075997	streaming
585.5763	0.0844030792650301	36	systole	23	B	500.0	streaming
585.7476	0.0844030792650301	36	systole	24	A	2682.7996005075997	streaming
586.105	0.0844030792650301	36	systole	25	A	2682.7996005075997	streaming
586.2762	0.0844030792650301	36	systole	26	B	500.0	streaming
586.4476	0.0844030792650301	36	systole	27	A	2682.7996005075997	streaming
586.805	0.0844030792650301	36	systole	28	A	2682.7996005075997	streaming
586.9762	0.0844030792650301	36	systole	29	B	500.0	streaming
587.1475	0.0844030792650301	36	systole	30	A	2682.7996005075997	streaming
587.4996	0.0844030792650301	36	systole	31	A	2682.7996005075997	streaming
587.672	0.0844030792650301	36	systole	32	B	500.0	streaming
587.8446	0.0844030792650301	36	systole	33	A	2682.7996005075997	streaming
588.2097	0.0844030792650301	36	systole	34	A	2682.7996005075997	streaming
588.3821	0.0844030792650301	36	systole	35	B	500.0	streaming
588.5547	0.0844030792650301	36	systole	36	A	2682.7996005075997	streaming
588.9197	0.0844030792650301	36	systole	37	A	2682.7996005075997	streaming
589.0922	0.0844030792650301	36	systole	38	B	500.0	streaming
589.2647	0.0844030792650301	36	systole	39	A	2682.7996005075997	streaming
589.6443	0.0844030792650301	36	systole	40	A	2682.7996005075997	streaming
589.8179	0.0844030792650301	36	systole	41	B	500.0	streaming
589.9918	0.0844030792650301	36	systole	42	A	2682.7996005075997	streaming
590.3342	0.0844030792650301	36	systole	43	A	2682.7996005075997	streaming
590.5078	0.0844030792650301	36	systole	44	B	500.0	streaming
590.6817	0.0844030792650301	36	systole	45	A	2682.7996005075997	streaming
593.392	0.089384547463851	37	systole	1	A	950.4996196948616	coherent
593.5729	0.089384547463851	37	systole	2	B	500.0	coherent
593.7545	0.089384547463851	37	systole	3	A	950.4996196948616	coherent
594.1522	0.089384547463851	37	systole	4	A	950.4996196948616	coherent
594.333	0.089384547463851	37	systole	5	B	500.0	coherent
594.5146	0.089384547463851	37	systole	6	A	950.4996196948616	coherent
594.9413	0.089384547463851	37	systole	7	A	950.4996196948616	coherent
595.1247	0.089384547463851	37	systole	8	B	500.0	coherent
595.3088	0.089384547463851	37	systole	9	A	950.4996196948616	coherent
595.745	0.089384547463851	37	systole	10	A	950.4996196948616	coherent
595.9322	0.089384547463851	37	systole	11	B	500.0	coherent
596.12	0.089384547463851	37	systole	12	A	950.4996196948616	coherent
596.465	0.089384547463851	37	systole	13	A	950.4996196948616	coherent
596.6521	0.089384547463851	37	systole	14	B	500.0	coherent
596.8401	0.089384547463851	37	systole	15	A	950.4996196948616	coherent
597.1851	0.089384547463851	37	systole	16	A	950.4996196948616	coherent
597.3722	0.089384547463851	37	systole	17	B	500.0	coherent
597.5601	0.089384547463851	37	systole	18	A	950.4996196948616	coherent
597.9889	0.089384547463851	37	systole	19	A	950.4996196948616	coherent
598.1798	0.089384547463851	37	systole	20	B	500.0	coherent
598.3714	0.089384547463851	37	systole	21	A	950.4996196948616	coherent
598.7789	0.089384547463851	37	systole	22	A	950.4996196948616	coherent
598.9698	0.089384547463851	37	systole	23	B	500.0	coherent
599.1614	0.089384547463851	37	systole	24	A	950.4996196948616	coherent
599.5689	0.089384547463851	37	systole	25	A	950.4996196948616	coherent
599.7598	0.089384547463851	37	systole	26	B	500.0	coherent
599.9515	0.089384547463851	37	systole	27	A	950.4996196948616	coherent
600.3189	0.089384547463851	37	systole	28	A	950.4996196948616	coherent
600.5098	0.089384547463851	37	systole	29	B	500.0	coherent
600.7014	0.089384547463851	37	systole	30	A	950.4996196948616	coherent
601.0689	0.089384547463851	37	systole	31	A	950.4996196948616	coherent
601.2598	0.089384547463851	37	systole	32	B	500.0	coherent
601.4514	0.089384547463851	37	systole	33	A	950.4996196948616	coherent
601.858	0.089384547463851	37	systole	34	A	950.4996196948616	coherent
602.0513	0.089384547463851	37	systole	35	B	500.0	coherent
602.2454	0.089384547463851	37	systole	36	A	950.4996196948616	coherent
604.6691	0.0968789374746847	38	diastole	1	A	2180.0224995339627	streaming
604.8654	0.0968789374746847	38	diastole	2	B	500.0	streaming
605.0616	0.0968789374746847	38	diastole	3	A	2180.0224995339627	streaming
605.4891	0.0968789374746847	38	diastole	4	A	2180.0224995339627	streaming
605.6854	0.0968789374746847	38	diastole	5	B	500.0	streaming
605.8816	0.0968789374746847	38	diastole	6	A	2180.0224995339627	streaming
606.2621	0.0968789374746847	38	diastole	7	A	2180.0224995339627	streaming
606.4572	0.0968789374746847	38	diastole	8	B	500.0	streaming
606.6521	0.0968789374746847	38	diastole	9	A	2180.0224995339627	streaming
607.0422	0.0968789374746847	38	diastole	10	A	2180.0224995339627	streaming
607.2372	0.0968789374746847	38	diastole	11	B	500.0	streaming
607.4322	0.0968789374746847	38	diastole	12	A	2180.0224995339627	streaming
607.8393	0.0968789374746847	38	diastole	13	A	2180.0224995339627	streaming
608.0356	0.0968789374746847	38	diastole	14	B	500.0	streaming
608.2318	0.0968789374746847	38	diastole	15	A	2180.0224995339627	streaming
608.6463	0.0968789374746847	38	diastole	16	A	2180.0224995339627	streaming
608.8438	0.0968789374746847	38	diastole	17	B	500.0	streaming
609.0413	0.0968789374746847	38	diastole	18	A	2180.0224995339627	streaming
609.4462	0.0968789374746847	38	diastole	19	A	2180.0224995339627	streaming
609.6437	0.0968789374746847	38	diastole	20	B	500.0	streaming
609.8412	0.0968789374746847	38	diastole	21	A	2180.0224995339627	streaming
610.246	0.0968789374746847	38	diastole	22	A	2180.0224995339627	streaming
610.4436	0.0968789374746847	38	diastole	23	B	500.0	streaming
610.6411	0.0968789374746847	38	diastole	24	A	2180.0224995339627	streaming
610.9253	0.0968789374746847	38	diastole	25	A	2180.0224995339627	streaming
611.1215	0.0968789374746847	38	diastole	26	B	500.0	streaming
611.249	0.0968789374746847	38	diastole	27	A	2180.0224995339627	streaming
611.4453	0.0968789374746847	38	diastole	28	A	2180.0224995339627	streaming
611.6415	0.0968789374746847	38	diastole	29	B	500.0	streaming
611.9103	0.0968789374746847	38	diastole	30	A	2180.0224995339627	streaming
612.1028	0.0968789374746847	38	diastole	31	A	2180.0224995339627	streaming
612.3836	0.0968789374746847	38	diastole	32	B	500.0	streaming
612.5736	0.0968789374746847	38	diastole	33	A	2180.0224995339627	streaming
612.9935	0.0968789374746847	38	diastole	34	A	2180.0224995339627	streaming
613.1836	0.0968789374746847	38	diastole	35	B	500.0	streaming
613.3735	0.0968789374746847	38	diastole	36	A	2180.0224995339627	streaming
613.8549	0.0968789374746847	38	diastole	37	A	2180.0224995339627	streaming
614.0487	0.0968789374746847	38	diastole	38	B	500.0	streaming
614.2424	0.0968789374746847	38	diastole	39	A	2180.0224995339627	streaming
617.0351	0.0950039713934529	39	diastole	1	A	1116.994218377779	coherent
617.2287	0.0950039713934529	39	diastole	2	B	500.0	coherent
617.4226	0.0950039713934529	39	diastole	3	A	1116.994218377779	coherent
617.8224	0.0950039713934529	39	diastole	4	A	1116.994218377779	coherent
618.0172	0.0950039713934529	39	diastole	5	B	500.0	coherent
618.2124	0.0950039713934529	39	diastole	6	A	1116.994218377779	coherent
618.6024	0.0950039713934529	39	diastole	7	A	1116.994218377779	coherent
618.7973	0.0950039713934529	39	diastole	8	B	500.0	coherent
618.9925	0.0950039713934529	39	diastole	9	A	1116.994218377779	coherent
619.3324	0.0950039713934529	39	diastole	10	A	1116.994218377779	coherent
619.5273	0.0950039713934529	39	diastole	11	B	500.0	coherent
619.7224	0.0950039713934529	39	diastole	12	A	1116.994218377779	coherent
620.0624	0.0950039713934529	39	diastole	13	A	1116.994218377779	coherent
620.2572	0.0950039713934529	39	diastole	14	B	500.0	coherent
620.4524	0.0950039713934529	39	diastole	15	A	1116.994218377779	coherent
620.7724	0.0950039713934529	39	diastole	16	A	1116.994218377779	coherent
620.9672	0.0950039713934529	39	diastole	17	B	500.0	coherent
621.1624	0.0950039713934529	39	diastole	18	A	1116.994218377779	coherent
621.4852	0.0950039713934529	39	diastole	19	A	1116.994218377779	coherent
621.6788	0.0950039713934529	39	diastole	20	B	500.0	coherent
621.8727	0.0950039713934529	39	diastole	21	A	1116.994218377779	coherent
622.1668	0.0950039713934529	39	diastole	22	A	1116.994218377779	coherent
622.3554	0.0950039713934529	39	diastole	23	B	500.0	coherent
622.5443	0.0950039713934529	39	diastole	24	A	1116.994218377779	coherent
622.8586	0.0950039713934529	39	diastole	25	A	1116.994218377779	coherent
623.0422	0.0950039713934529	39	diastole	26	B	500.0	coherent
623.2261	0.0950039713934529	39	diastole	27	A	1116.994218377779	coherent
623.5644	0.0950039713934529	39	diastole	28	A	1116.994218377779	coherent
623.7454	0.0950039713934529	39	diastole	29	B	500.0	coherent
623.9269	0.0950039713934529	39	diastole	30	A	1116.994218377779	coherent
624.2772	0.0950039713934529	39	diastole	31	A	1116.994218377779	coherent
624.4571	0.0950039713934529	39	diastole	32	B	500.0	coherent
624.6372	0.0950039713934529	39	diastole	33	A	1116.994218377779	coherent
625.0373	0.0950039713934529	39	diastole	34	A	1116.994218377779	coherent
625.2172	0.0950039713934529	39	diastole	35	B	500.0	coherent
625.3973	0.0950039713934529	39	diastole	36	A	1116.994218377779	coherent
625.8173	0.0950039713934529	39	diastole	37	A	1116.994218377779	coherent
625.9972	0.0950039713934529	39	diastole	38	B	500.0	coherent
626.1773	0.0950039713934529	39	diastole	39	A	1116.994218377779	coherent
627.8245	0.0912544787570368	40	systole	1	A	2446.423693900757	streaming
628.0122	0.0912544787570368	40	systole	2	B	500.0	streaming
628.1995	0.0912544787570368	40	systole	3	A	2446.423693900757	streaming
628.6146	0.0912544787570368	40	systole	4	A	2446.423693900757	streaming
628.8022	0.0912544787570368	40	systole	5	B	500.0	streaming
628.9896	0.0912544787570368	40	systole	6	A	2446.423693900757	streaming
629.4046	0.0912544787570368	40	systole	7	A	2446.423693900757	streaming
629.5923	0.0912544787570368	40	systole	8	B	500.0	streaming
629.7797	0.0912544787570368	40	systole	9	A	2446.423693900757	streaming
630.2284	0.0912544787570368	40	systole	10	A	2446.423693900757	streaming
630.4198	0.0912544787570368	40	systole	11	B	500.0	streaming
630.6109	0.0912544787570368	40	systole	12	A	2446.423693900757	streaming
631.0383	0.0912544787570368	40	systole	13	A	2446.423693900757	streaming
