onset	duration	trial_num	trial_type	tone_num	tone_type	frequency	response
39.15930000000003	0.1006202811840921	1	systole	1	B	500	systole
39.949400000000196	0.1006202811840921	1	systole	2	B	500	systole
40.71360000000004	0.1006202811840921	1	systole	3	B	500	systole
41.483600000000024	0.1006202811840921	1	systole	4	B	500	systole
42.333500000000186	0.1006202811840921	1	systole	5	B	500	systole
43.1536000000001	0.1006202811840921	1	systole	6	B	500	systole
43.97360000000003	0.1006202811840921	1	systole	7	B	500	systole
44.8411000000001	0.1006202811840921	1	systole	8	B	500	systole
45.67100000000005	0.1006202811840921	1	systole	9	B	500	systole
46.53850000000011	0.1006202811840921	1	systole	10	B	500	systole
47.318500000000085	0.1006202811840921	1	systole	11	B	500	systole
48.13840000000005	0.1006202811840921	1	systole	12	B	500	systole
54.59100000000012	0.1024936351168435	2	systole	1	B	500	diastole
55.34080000000017	0.1024936351168435	2	systole	2	B	500	diastole
56.11090000000013	0.1024936351168435	2	systole	3	B	500	diastole
56.80000000000018	0.1024936351168435	2	systole	4	B	500	diastole
57.52980000000002	0.1024936351168435	2	systole	5	B	500	diastole
58.359699999999975	0.1024936351168435	2	systole	6	B	500	diastole
59.256399999999985	0.1024936351168435	2	systole	7	B	500	diastole
60.10640000000012	0.1024936351168435	2	systole	8	B	500	diastole
60.888800000000174	0.1024936351168435	2	systole	9	B	500	diastole
61.68870000000015	0.1024936351168435	2	systole	10	B	500	diastole
62.55439999999999	0.1024936351168435	2	systole	11	B	500	diastole
63.352100000000064	0.1024936351168435	2	systole	12	B	500	diastole
65.88850000000002	0.1031191124639008	3	systole	1	B	500	systole
66.64650000000006	0.1031191124639008	3	systole	2	B	500	systole
67.41640000000007	0.1031191124639008	3	systole	3	B	500	systole
68.17470000000003	0.1031191124639008	3	systole	4	B	500	systole
69.03640000000019	0.1031191124639008	3	systole	5	B	500	systole
69.88810000000012	0.1031191124639008	3	systole	6	B	500	systole
70.64190000000008	0.1031191124639008	3	systole	7	B	500	systole
71.5281	0.1031191124639008	3	systole	8	B	500	systole
72.3860000000002	0.1031191124639008	3	systole	9	B	500	systole
73.24400000000014	0.1031191124639008	3	systole	10	B	500	systole
74.1875	0.1031191124639008	3	systole	11	B	500	systole
75.05349999999999	0.1031191124639008	3	systole	12	B	500	systole
77.74790000000007	0.1073710185592062	4	systole	1	B	500	systole
78.62790000000018	0.1073710185592062	4	systole	2	B	500	systole
79.40800000000013	0.1073710185592062	4	systole	3	B	500	systole
80.1676	0.1073710185592062	4	systole	4	B	500	systole
80.99570000000017	0.1073710185592062	4	systole	5	B	500	systole
81.82000000000016	0.1073710185592062	4	systole	6	B	500	systole
82.65000000000009	0.1073710185592062	4	systole	7	B	500	systole
83.4801	0.1073710185592062	4	systole	8	B	500	systole
84.23270000000002	0.1073710185592062	4	systole	9	B	500	systole
85.08249999999998	0.1073710185592062	4	systole	10	B	500	systole
85.93240000000014	0.1073710185592062	4	systole	11	B	500	systole
86.68900000000008	0.1073710185592062	4	systole	12	B	500	systole
88.82580000000007	0.0999988390831276	5	systole	1	B	500	systole
89.58570000000009	0.0999988390831276	5	systole	2	B	500	systole
90.34580000000005	0.0999988390831276	5	systole	3	B	500	systole
91.0657000000001	0.0999988390831276	5	systole	4	B	500	systole
91.87560000000008	0.0999988390831276	5	systole	5	B	500	systole
92.63990000000013	0.0999988390831276	5	systole	6	B	500	systole
93.4099000000001	0.0999988390831276	5	systole	7	B	500	systole
94.1382000000001	0.0999988390831276	5	systole	8	B	500	systole
94.92399999999998	0.0999988390831276	5	systole	9	B	500	systole
95.7641000000001	0.0999988390831276	5	systole	10	B	500	systole
96.6043000000002	0.0999988390831276	5	systole	11	B	500	systole
97.44440000000009	0.0999988390831276	5	systole	12	B	500	systole
98.32000000000016	0.0999988390831276	5	systole	13	B	500	systole
101.32080000000019	0.100628807733301	6	diastole	1	B	500	systole
102.17070000000012	0.100628807733301	6	diastole	2	B	500	systole
103.02070000000003	0.100628807733301	6	diastole	3	B	500	systole
103.90390000000002	0.100628807733301	6	diastole	4	B	500	systole
104.69389999999999	0.100628807733301	6	diastole	5	B	500	systole
105.50390000000016	0.100628807733301	6	diastole	6	B	500	systole
106.35390000000007	0.100628807733301	6	diastole	7	B	500	systole
107.18560000000002	0.100628807733301	6	diastole	8	B	500	systole
107.9656	0.100628807733301	6	diastole	9	B	500	systole
108.68560000000002	0.100628807733301	6	diastole	10	B	500	systole
109.39049999999997	0.100628807733301	6	diastole	11	B	500	systole
110.06880000000001	0.100628807733301	6	diastole	12	B	500	systole
113.6373000000001	0.0943795687053352	7	diastole	1	B	500	systole
114.40730000000008	0.0943795687053352	7	diastole	2	B	500	systole
115.2460000000001	0.0943795687053352	7	diastole	3	B	500	systole
116.11040000000003	0.0943795687053352	7	diastole	4	B	500	systole
116.95850000000019	0.0943795687053352	7	diastole	5	B	500	systole
117.82670000000007	0.0943795687053352	7	diastole	6	B	500	systole
118.70839999999998	0.0943795687053352	7	diastole	7	B	500	systole
119.50680000000011	0.0943795687053352	7	diastole	8	B	500	systole
120.25720000000001	0.0943795687053352	7	diastole	9	B	500	systole
121.00760000000014	0.0943795687053352	7	diastole	10	B	500	systole
121.79719999999998	0.0943795687053352	7	diastole	11	B	500	systole
124.86239999999998	0.0987496437737718	8	diastole	1	B	500	diastole
125.61210000000005	0.0987496437737718	8	diastole	2	B	500	diastole
126.36220000000003	0.0987496437737718	8	diastole	3	B	500	diastole
127.07920000000013	0.0987496437737718	8	diastole	4	B	500	diastole
127.7926	0.0987496437737718	8	diastole	5	B	500	diastole
128.4960000000001	0.0987496437737718	8	diastole	6	B	500	diastole
129.21600000000012	0.0987496437737718	8	diastole	7	B	500	diastole
129.93590000000017	0.0987496437737718	8	diastole	8	B	500	diastole
130.72580000000016	0.0987496437737718	8	diastole	9	B	500	diastole
131.51580000000013	0.0987496437737718	8	diastole	10	B	500	diastole
132.2958000000001	0.0987496437737718	8	diastole	11	B	500	diastole
133.0458000000001	0.0987496437737718	8	diastole	12	B	500	diastole
133.83249999999998	0.0987496437737718	8	diastole	13	B	500	diastole
136.50800000000004	0.0956226995331235	9	systole	1	B	500	systole
137.2464	0.0956226995331235	9	systole	2	B	500	systole
137.9965000000002	0.0956226995331235	9	systole	3	B	500	systole
138.7103000000002	0.0956226995331235	9	systole	4	B	500	systole
139.4248	0.0956226995331235	9	systole	5	B	500	systole
140.18060000000014	0.0956226995331235	9	systole	6	B	500	systole
140.93050000000017	0.0956226995331235	9	systole	7	B	500	systole
141.68050000000017	0.0956226995331235	9	systole	8	B	500	systole
142.4304000000002	0.0956226995331235	9	systole	9	B	500	systole
143.2003000000002	0.0956226995331235	9	systole	10	B	500	systole
143.9802000000002	0.0956226995331235	9	systole	11	B	500	systole
144.7505000000001	0.0956226995331235	9	systole	12	B	500	systole
145.4906000000001	0.0956226995331235	9	systole	13	B	500	systole
149.6056000000001	0.0949752269079908	10	diastole	1	B	500	diastole
150.33580000000006	0.0949752269079908	10	diastole	2	B	500	diastole
151.0494000000001	0.0949752269079908	10	diastole	3	B	500	diastole
151.8094000000001	0.0949752269079908	10	diastole	4	B	500	diastole
152.51580000000013	0.0949752269079908	10	diastole	5	B	500	diastole
153.20590000000016	0.0949752269079908	10	diastole	6	B	500	diastole
153.89600000000019	0.0949752269079908	10	diastole	7	B	500	diastole
154.57820000000015	0.0949752269079908	10	diastole	8	B	500	diastole
155.25300000000016	0.0949752269079908	10	diastole	9	B	500	diastole
155.90930000000003	0.0949752269079908	10	diastole	10	B	500	diastole
156.59930000000008	0.0949752269079908	10	diastole	11	B	500	diastole
157.2387000000001	0.0949752269079908	10	diastole	12	B	500	diastole
157.89650000000006	0.0949752269079908	10	diastole	13	B	500	diastole
161.14380000000006	0.0823719183681532	11	diastole	1	B	500	diastole
161.8139000000001	0.0823719183681532	11	diastole	2	B	500	diastole
162.49360000000001	0.0823719183681532	11	diastole	3	B	500	diastole
163.1635000000001	0.0823719183681532	11	diastole	4	B	500	diastole
163.80380000000014	0.0823719183681532	11	diastole	5	B	500	diastole
164.45389999999998	0.0823719183681532	11	diastole	6	B	500	diastole
165.1155000000001	0.0823719183681532	11	diastole	7	B	500	diastole
165.7755000000002	0.0823719183681532	11	diastole	8	B	500	diastole
166.45389999999998	0.0823719183681532	11	diastole	9	B	500	diastole
167.09390000000008	0.0823719183681532	11	diastole	10	B	500	diastole
167.7174	0.0823719183681532	11	diastole	11	B	500	diastole
168.32240000000002	0.0823719183681532	11	diastole	12	B	500	diastole
168.9728	0.0823719183681532	11	diastole	13	B	500	diastole
169.6232	0.0823719183681532	11	diastole	14	B	500	diastole
170.25260000000003	0.0823719183681532	11	diastole	15	B	500	diastole
172.4367000000002	0.0793786864378489	12	systole	1	B	500	diastole
173.10210000000006	0.0793786864378489	12	systole	2	B	500	diastole
173.7618	0.0793786864378489	12	systole	3	B	500	diastole
174.4737	0.0793786864378489	12	systole	4	B	500	diastole
175.21500000000015	0.0793786864378489	12	systole	5	B	500	diastole
175.92110000000002	0.0793786864378489	12	systole	6	B	500	diastole
176.62090000000012	0.0793786864378489	12	systole	7	B	500	diastole
177.3646000000001	0.0793786864378489	12	systole	8	B	500	diastole
178.1020000000001	0.0793786864378489	12	systole	9	B	500	diastole
178.82200000000012	0.0793786864378489	12	systole	10	B	500	diastole
179.53600000000006	0.0793786864378489	12	systole	11	B	500	diastole
180.23750000000018	0.0793786864378489	12	systole	12	B	500	diastole
180.9271000000001	0.0793786864378489	12	systole	13	B	500	diastole
181.6168	0.0793786864378489	12	systole	14	B	500	diastole
184.56360000000018	0.0888395411893725	13	systole	1	B	500	systole
185.2536	0.0888395411893725	13	systole	2	B	500	systole
185.98350000000005	0.0888395411893725	13	systole	3	B	500	systole
186.7713000000001	0.0888395411893725	13	systole	4	B	500	systole
187.55690000000004	0.0888395411893725	13	systole	5	B	500	systole
188.2773000000002	0.0888395411893725	13	systole	6	B	500	systole
188.9915000000001	0.0888395411893725	13	systole	7	B	500	systole
189.7111	0.0888395411893725	13	systole	8	B	500	systole
190.46150000000011	0.0888395411893725	13	systole	9	B	500	systole
191.212	0.0888395411893725	13	systole	10	B	500	systole
191.9869000000001	0.0888395411893725	13	systole	11	B	500	systole
192.7270000000001	0.0888395411893725	13	systole	12	B	500	systole
193.50700000000006	0.0888395411893725	13	systole	13	B	500	systole
196.9955	0.0974788882595021	14	systole	1	B	500	diastole
197.73540000000003	0.0974788882595021	14	systole	2	B	500	diastole
198.25400000000013	0.0974788882595021	14	systole	3	B	500	diastole
198.55150000000003	0.0974788882595021	14	systole	4	B	500	diastole
198.71900000000005	0.0974788882595021	14	systole	5	B	500	diastole
198.9190000000001	0.0974788882595021	14	systole	6	B	500	diastole
199.50290000000018	0.0974788882595021	14	systole	7	B	500	diastole
200.2329000000002	0.0974788882595021	14	systole	8	B	500	diastole
200.95710000000008	0.0974788882595021	14	systole	9	B	500	diastole
201.7772	0.0974788882595021	14	systole	10	B	500	diastole
202.65730000000008	0.0974788882595021	14	systole	11	B	500	diastole
203.5373000000002	0.0974788882595021	14	systole	12	B	500	diastole
204.42740000000003	0.0974788882595021	14	systole	13	B	500	diastole
205.31740000000013	0.0974788882595021	14	systole	14	B	500	diastole
206.1938	0.0974788882595021	14	systole	15	B	500	diastole
209.1368	0.1062094133230857	15	systole	1	B	500	systole
209.92630000000008	0.1062094133230857	15	systole	2	B	500	systole
210.7174	0.1062094133230857	15	systole	3	B	500	systole
211.5059000000001	0.1062094133230857	15	systole	4	B	500	systole
212.2559000000001	0.1062094133230857	15	systole	5	B	500	systole
213.0059000000001	0.1062094133230857	15	systole	6	B	500	systole
213.79420000000005	0.1062094133230857	15	systole	7	B	500	systole
214.60400000000004	0.1062094133230857	15	systole	8	B	500	systole
215.4339	0.1062094133230857	15	systole	9	B	500	systole
216.21800000000007	0.1062094133230857	15	systole	10	B	500	systole
216.98800000000006	0.1062094133230857	15	systole	11	B	500	systole
217.8040000000001	0.1062094133230857	15	systole	12	B	500	systole
221.40910000000008	0.1006188199389725	16	diastole	1	B	500	diastole
222.19920000000002	0.1006188199389725	16	diastole	2	B	500	diastole
222.94260000000008	0.1006188199389725	16	diastole	3	B	500	diastole
223.7025000000001	0.1006188199389725	16	diastole	4	B	500	diastole
224.4625000000001	0.1006188199389725	16	diastole	5	B	500	diastole
225.13260000000014	0.1006188199389725	16	diastole	6	B	500	diastole
225.93250000000012	0.1006188199389725	16	diastole	7	B	500	diastole
226.73250000000007	0.1006188199389725	16	diastole	8	B	500	diastole
227.4724000000001	0.1006188199389725	16	diastole	9	B	500	diastole
228.17410000000018	0.1006188199389725	16	diastole	10	B	500	diastole
228.9158	0.1006188199389725	16	diastole	11	B	500	diastole
229.66570000000002	0.1006188199389725	16	diastole	12	B	500	diastole
233.3356000000001	0.0937439425615593	17	diastole	1	B	500	systole
234.07560000000012	0.0937439425615593	17	diastole	2	B	500	systole
234.78560000000016	0.0937439425615593	17	diastole	3	B	500	systole
235.57400000000007	0.0937439425615593	17	diastole	4	B	500	systole
236.34220000000005	0.0937439425615593	17	diastole	5	B	500	systole
237.0838000000001	0.0937439425615593	17	diastole	6	B	500	systole
237.8338000000001	0.0937439425615593	17	diastole	7	B	500	systole
238.5838000000001	0.0937439425615593	17	diastole	8	B	500	systole
239.28410000000008	0.0937439425615593	17	diastole	9	B	500	systole
239.98440000000005	0.0937439425615593	17	diastole	10	B	500	systole
240.6848	0.0937439425615593	17	diastole	11	B	500	systole
241.36340000000018	0.0937439425615593	17	diastole	12	B	500	systole
244.52390000000014	0.0887514509086031	18	systole	1	B	500	systole
245.23430000000008	0.0887514509086031	18	systole	2	B	500	systole
245.9443000000001	0.0887514509086031	18	systole	3	B	500	systole
246.65440000000012	0.0887514509086031	18	systole	4	B	500	systole
247.3842000000002	0.0887514509086031	18	systole	5	B	500	systole
248.1043000000002	0.0887514509086031	18	systole	6	B	500	systole
248.82420000000002	0.0887514509086031	18	systole	7	B	500	systole
249.51420000000007	0.0887514509086031	18	systole	8	B	500	systole
250.21420000000012	0.0887514509086031	18	systole	9	B	500	systole
250.9398000000001	0.0887514509086031	18	systole	10	B	500	systole
251.6599000000001	0.0887514509086031	18	systole	11	B	500	systole
252.38010000000008	0.0887514509086031	18	systole	12	B	500	systole
253.11570000000006	0.0887514509086031	18	systole	13	B	500	systole
255.48900000000003	0.090631601109635	19	systole	1	B	500	systole
256.23900000000003	0.090631601109635	19	systole	2	B	500	systole
256.98900000000003	0.090631601109635	19	systole	3	B	500	systole
257.7089000000001	0.090631601109635	19	systole	4	B	500	systole
258.4289000000001	0.090631601109635	19	systole	5	B	500	systole
259.15880000000016	0.090631601109635	19	systole	6	B	500	systole
259.9606000000001	0.090631601109635	19	systole	7	B	500	systole
260.79230000000007	0.090631601109635	19	systole	8	B	500	systole
261.55230000000006	0.090631601109635	19	systole	9	B	500	systole
262.3597	0.090631601109635	19	systole	10	B	500	systole
263.1496000000002	0.090631601109635	19	systole	11	B	500	systole
263.96680000000015	0.090631601109635	19	systole	12	B	500	systole
264.7574000000002	0.090631601109635	19	systole	13	B	500	systole
267.9838000000002	0.0968905601475853	20	systole	1	B	500	diastole
268.72400000000016	0.0968905601475853	20	systole	2	B	500	diastole
269.4226000000001	0.0968905601475853	20	systole	3	B	500	diastole
269.79060000000004	0.0968905601475853	20	systole	4	B	500	diastole
270.1703	0.0968905601475853	20	systole	5	B	500	diastole
270.8678	0.0968905601475853	20	systole	6	B	500	diastole
271.53600000000006	0.0968905601475853	20	systole	7	B	500	diastole
272.2203000000002	0.0968905601475853	20	systole	8	B	500	diastole
272.98990000000003	0.0968905601475853	20	systole	9	B	500	diastole
273.7595000000001	0.0968905601475853	20	systole	10	B	500	diastole
274.5291000000002	0.0968905601475853	20	systole	11	B	500	diastole
275.3190000000002	0.0968905601475853	20	systole	12	B	500	diastole
276.1391000000001	0.0968905601475853	20	systole	13	B	500	diastole
276.9592	0.0968905601475853	20	systole	14	B	500	diastole
279.9453000000001	0.0949964812607504	21	systole	1	B	500	diastole
280.73530000000005	0.0949964812607504	21	systole	2	B	500	diastole
281.4721000000002	0.0949964812607504	21	systole	3	B	500	diastole
282.1866	0.0949964812607504	21	systole	4	B	500	diastole
282.9522000000002	0.0949964812607504	21	systole	5	B	500	diastole
283.71220000000017	0.0949964812607504	21	systole	6	B	500	diastole
284.53060000000005	0.0949964812607504	21	systole	7	B	500	diastole
285.28060000000005	0.0949964812607504	21	systole	8	B	500	diastole
286.0307	0.0949964812607504	21	systole	9	B	500	diastole
286.7705000000001	0.0949964812607504	21	systole	10	B	500	diastole
287.5708000000002	0.0949964812607504	21	systole	11	B	500	diastole
288.4035000000001	0.0949964812607504	21	systole	12	B	500	diastole
289.17920000000004	0.0949964812607504	21	systole	13	B	500	diastole
292.7342000000001	0.0993814164830837	22	diastole	1	B	500	diastole
293.5141000000001	0.0993814164830837	22	diastole	2	B	500	diastole
294.28420000000006	0.0993814164830837	22	diastole	3	B	500	diastole
295.0552	0.0993814164830837	22	diastole	4	B	500	diastole
295.83490000000006	0.0993814164830837	22	diastole	5	B	500	diastole
296.6549	0.0993814164830837	22	diastole	6	B	500	diastole
297.46350000000007	0.0993814164830837	22	diastole	7	B	500	diastole
298.2635	0.0993814164830837	22	diastole	8	B	500	diastole
299.0917000000002	0.0993814164830837	22	diastole	9	B	500	diastole
299.94180000000006	0.0993814164830837	22	diastole	10	B	500	diastole
300.7918000000002	0.0993814164830837	22	diastole	11	B	500	diastole
301.5901000000001	0.0993814164830837	22	diastole	12	B	500	diastole
305.12890000000016	0.0968646124820225	23	diastole	1	B	500	systole
305.8488	0.0968646124820225	23	diastole	2	B	500	systole
306.5525	0.0968646124820225	23	diastole	3	B	500	systole
307.3040000000001	0.0968646124820225	23	diastole	4	B	500	systole
308.0639000000001	0.0968646124820225	23	diastole	5	B	500	systole
308.7604000000001	0.0968646124820225	23	diastole	6	B	500	systole
309.49030000000016	0.0968646124820225	23	diastole	7	B	500	systole
310.32370000000014	0.0968646124820225	23	diastole	8	B	500	systole
311.1238000000001	0.0968646124820225	23	diastole	9	B	500	systole
311.92370000000005	0.0968646124820225	23	diastole	10	B	500	systole
312.66550000000007	0.0968646124820225	23	diastole	11	B	500	systole
313.41550000000007	0.0968646124820225	23	diastole	12	B	500	systole
318.2649000000001	0.0937512058007996	24	systole	1	B	500	diastole
318.95320000000015	0.0937512058007996	24	systole	2	B	500	diastole
319.6532000000002	0.0937512058007996	24	systole	3	B	500	diastole
320.3272000000002	0.0937512058007996	24	systole	4	B	500	diastole
321.00970000000007	0.0937512058007996	24	systole	5	B	500	diastole
321.70960000000014	0.0937512058007996	24	systole	6	B	500	diastole
322.4739000000002	0.0937512058007996	24	systole	7	B	500	diastole
323.18050000000017	0.0937512058007996	24	systole	8	B	500	diastole
323.89200000000005	0.0937512058007996	24	systole	9	B	500	diastole
324.6603	0.0937512058007996	24	systole	10	B	500	diastole
325.42870000000016	0.0937512058007996	24	systole	11	B	500	diastole
326.2994000000001	0.0937512058007996	24	systole	12	B	500	diastole
327.1378000000002	0.0937512058007996	24	systole	13	B	500	diastole
330.2188000000001	0.098240939551033	25	diastole	1	B	500	diastole
331.0372	0.098240939551033	25	diastole	2	B	500	diastole
331.80740000000014	0.098240939551033	25	diastole	3	B	500	diastole
332.5273000000002	0.098240939551033	25	diastole	4	B	500	diastole
333.2473	0.098240939551033	25	diastole	5	B	500	diastole
333.9440000000002	0.098240939551033	25	diastole	6	B	500	diastole
334.70590000000016	0.098240939551033	25	diastole	7	B	500	diastole
335.4293	0.098240939551033	25	diastole	8	B	500	diastole
336.1427000000001	0.098240939551033	25	diastole	9	B	500	diastole
336.8393000000001	0.098240939551033	25	diastole	10	B	500	diastole
337.5693000000001	0.098240939551033	25	diastole	11	B	500	diastole
338.3293000000001	0.098240939551033	25	diastole	12	B	500	diastole
339.0893000000001	0.098240939551033	25	diastole	13	B	500	diastole
342.23400000000015	0.093745981255779	26	diastole	1	B	500	diastole
343.0540000000001	0.093745981255779	26	diastole	2	B	500	diastole
343.8224	0.093745981255779	26	diastole	3	B	500	diastole
344.6957	0.093745981255779	26	diastole	4	B	500	diastole
345.5358000000001	0.093745981255779	26	diastole	5	B	500	diastole
346.3725000000002	0.093745981255779	26	diastole	6	B	500	diastole
347.14250000000015	0.093745981255779	26	diastole	7	B	500	diastole
347.9607000000001	0.093745981255779	26	diastole	8	B	500	diastole
348.77060000000006	0.093745981255779	26	diastole	9	B	500	diastole
349.59720000000016	0.093745981255779	26	diastole	10	B	500	diastole
350.4072000000001	0.093745981255779	26	diastole	11	B	500	diastole
354.0008	0.0949969734647311	27	diastole	1	B	500	diastole
354.8638000000001	0.0949969734647311	27	diastole	2	B	500	diastole
355.61890000000017	0.0949969734647311	27	diastole	3	B	500	diastole
356.3441	0.0949969734647311	27	diastole	4	B	500	diastole
357.0941	0.0949969734647311	27	diastole	5	B	500	diastole
357.95910000000003	0.0949969734647311	27	diastole	6	B	500	diastole
358.9221	0.0949969734647311	27	diastole	7	B	500	diastole
359.779	0.0949969734647311	27	diastole	8	B	500	diastole
360.6191000000001	0.0949969734647311	27	diastole	9	B	500	diastole
361.3991000000001	0.0949969734647311	27	diastole	10	B	500	diastole
362.17910000000006	0.0949969734647311	27	diastole	11	B	500	diastole
362.94900000000007	0.0949969734647311	27	diastole	12	B	500	diastole
366.20540000000005	0.103752251190599	28	diastole	1	B	500	diastole
366.9954	0.103752251190599	28	diastole	2	B	500	diastole
367.8072000000002	0.103752251190599	28	diastole	3	B	500	diastole
368.6270000000002	0.103752251190599	28	diastole	4	B	500	diastole
369.3770000000002	0.103752251190599	28	diastole	5	B	500	diastole
370.15700000000015	0.103752251190599	28	diastole	6	B	500	diastole
370.9770000000001	0.103752251190599	28	diastole	7	B	500	diastole
371.797	0.103752251190599	28	diastole	8	B	500	diastole
372.6369000000002	0.103752251190599	28	diastole	9	B	500	diastole
373.35390000000007	0.103752251190599	28	diastole	10	B	500	diastole
374.1138000000001	0.103752251190599	28	diastole	11	B	500	diastole
374.9488000000001	0.103752251190599	28	diastole	12	B	500	diastole
377.63710000000015	0.0987588925054296	29	systole	1	B	500	systole
378.3039000000001	0.0987588925054296	29	systole	2	B	500	systole
378.99400000000014	0.0987588925054296	29	systole	3	B	500	systole
379.75390000000016	0.0987588925054296	29	systole	4	B	500	systole
380.51390000000015	0.0987588925054296	29	systole	5	B	500	systole
381.29420000000005	0.0987588925054296	29	systole	6	B	500	systole
382.07460000000015	0.0987588925054296	29	systole	7	B	500	systole
382.85490000000004	0.0987588925054296	29	systole	8	B	500	systole
383.63480000000004	0.0987588925054296	29	systole	9	B	500	systole
384.41070000000013	0.0987588925054296	29	systole	10	B	500	systole
385.1965	0.0987588925054296	29	systole	11	B	500	systole
386.02650000000017	0.0987588925054296	29	systole	12	B	500	systole
386.81650000000013	0.0987588925054296	29	systole	13	B	500	systole
389.8088	0.0974942912580445	30	diastole	1	B	500	diastole
390.279	0.0974942912580445	30	diastole	2	B	500	diastole
391.0038000000002	0.0974942912580445	30	diastole	3	B	500	diastole
391.75350000000003	0.0974942912580445	30	diastole	4	B	500	diastole
392.5033000000001	0.0974942912580445	30	diastole	5	B	500	diastole
393.3118000000002	0.0974942912580445	30	diastole	6	B	500	diastole
394.1218000000001	0.0974942912580445	30	diastole	7	B	500	diastole
394.93180000000007	0.0974942912580445	30	diastole	8	B	500	diastole
395.43000000000006	0.0974942912580445	30	diastole	9	B	500	diastole
395.72770000000014	0.0974942912580445	30	diastole	10	B	500	diastole
396.0316	0.0974942912580445	30	diastole	11	B	500	diastole
396.8116	0.0974942912580445	30	diastole	12	B	500	diastole
397.6618000000001	0.0974942912580445	30	diastole	13	B	500	diastole
398.46180000000004	0.0974942912580445	30	diastole	14	B	500	diastole
402.03560000000016	0.0974948220246005	31	diastole	1	B	500	diastole
402.7672	0.0974948220246005	31	diastole	2	B	500	diastole
403.5072	0.0974948220246005	31	diastole	3	B	500	diastole
404.20230000000015	0.0974948220246005	31	diastole	4	B	500	diastole
404.8872000000001	0.0974948220246005	31	diastole	5	B	500	diastole
405.5607	0.0974948220246005	31	diastole	6	B	500	diastole
406.2640000000001	0.0974948220246005	31	diastole	7	B	500	diastole
407.05410000000006	0.0974948220246005	31	diastole	8	B	500	diastole
407.8142	0.0974948220246005	31	diastole	9	B	500	diastole
408.5744000000002	0.0974948220246005	31	diastole	10	B	500	diastole
409.3859	0.0974948220246005	31	diastole	11	B	500	diastole
410.1558	0.0974948220246005	31	diastole	12	B	500	diastole
410.8942000000002	0.0974948220246005	31	diastole	13	B	500	diastole
413.5925000000002	0.0950166937545873	32	systole	1	B	500	systole
414.38250000000016	0.0950166937545873	32	systole	2	B	500	systole
415.1164000000001	0.0950166937545873	32	systole	3	B	500	systole
415.8607000000002	0.0950166937545873	32	systole	4	B	500	systole
416.6107000000002	0.0950166937545873	32	systole	5	B	500	systole
417.3606	0.0950166937545873	32	systole	6	B	500	systole
418.0806	0.0950166937545873	32	systole	7	B	500	systole
418.80060000000003	0.0950166937545873	32	systole	8	B	500	systole
419.52060000000006	0.0950166937545873	32	systole	9	B	500	systole
420.24480000000017	0.0950166937545873	32	systole	10	B	500	systole
420.96900000000005	0.0950166937545873	32	systole	11	B	500	systole
421.69910000000004	0.0950166937545873	32	systole	12	B	500	systole
422.44900000000007	0.0950166937545873	32	systole	13	B	500	systole
425.5454000000002	0.0900052166834939	33	diastole	1	B	500	diastole
426.2270000000001	0.0900052166834939	33	diastole	2	B	500	diastole
426.9087000000002	0.0900052166834939	33	diastole	3	B	500	diastole
427.6187	0.0900052166834939	33	diastole	4	B	500	diastole
428.3387	0.0900052166834939	33	diastole	5	B	500	diastole
429.05860000000007	0.0900052166834939	33	diastole	6	B	500	diastole
429.7786000000001	0.0900052166834939	33	diastole	7	B	500	diastole
430.47050000000013	0.0900052166834939	33	diastole	8	B	500	diastole
431.1604	0.0900052166834939	33	diastole	9	B	500	diastole
431.8888000000002	0.0900052166834939	33	diastole	10	B	500	diastole
432.62720000000013	0.0900052166834939	33	diastole	11	B	500	diastole
433.3556000000001	0.0900052166834939	33	diastole	12	B	500	diastole
434.0756000000001	0.0900052166834939	33	diastole	13	B	500	diastole
437.0742	0.0906257875903975	34	diastole	1	B	500	diastole
437.78470000000016	0.0906257875903975	34	diastole	2	B	500	diastole
438.49480000000017	0.0906257875903975	34	diastole	3	B	500	diastole
439.2351000000001	0.0906257875903975	34	diastole	4	B	500	diastole
439.92610000000013	0.0906257875903975	34	diastole	5	B	500	diastole
440.62570000000005	0.0906257875903975	34	diastole	6	B	500	diastole
441.3181000000002	0.0906257875903975	34	diastole	7	B	500	diastole
442.01790000000005	0.0906257875903975	34	diastole	8	B	500	diastole
442.69990000000007	0.0906257875903975	34	diastole	9	B	500	diastole
443.3815000000002	0.0906257875903975	34	diastole	10	B	500	diastole
444.0531000000001	0.0906257875903975	34	diastole	11	B	500	diastole
444.7726	0.0906257875903975	34	diastole	12	B	500	diastole
445.49250000000006	0.0906257875903975	34	diastole	13	B	500	diastole
449.33410000000003	0.0900021994020789	35	diastole	1	B	500	diastole
450.1141	0.0900021994020789	35	diastole	2	B	500	diastole
450.8706000000002	0.0900021994020789	35	diastole	3	B	500	diastole
451.2406000000001	0.0900021994020789	35	diastole	4	B	500	diastole
451.5707	0.0900021994020789	35	diastole	5	B	500	diastole
452.2807	0.0900021994020789	35	diastole	6	B	500	diastole
452.9805000000001	0.0900021994020789	35	diastole	7	B	500	diastole
453.6657	0.0900021994020789	35	diastole	8	B	500	diastole
454.3388	0.0900021994020789	35	diastole	9	B	500	diastole
455.04930000000013	0.0900021994020789	35	diastole	10	B	500	diastole
455.7792000000002	0.0900021994020789	35	diastole	11	B	500	diastole
456.5792000000001	0.0900021994020789	35	diastole	12	B	500	diastole
457.3691000000001	0.0900021994020789	35	diastole	13	B	500	diastole
458.1590000000001	0.0900021994020789	35	diastole	14	B	500	diastole
461.1476	0.0912507941829972	36	diastole	1	B	500	systole
461.86720000000014	0.0912507941829972	36	diastole	2	B	500	systole
462.6714000000002	0.0912507941829972	36	diastole	3	B	500	systole
463.47130000000016	0.0912507941829972	36	diastole	4	B	500	systole
464.2513000000001	0.0912507941829972	36	diastole	5	B	500	systole
465.0110000000002	0.0912507941829972	36	diastole	6	B	500	systole
465.77070000000003	0.0912507941829972	36	diastole	7	B	500	systole
466.51070000000004	0.0912507941829972	36	diastole	8	B	500	systole
467.2506000000001	0.0912507941829972	36	diastole	9	B	500	systole
468.0672000000002	0.0912507941829972	36	diastole	10	B	500	systole
468.86720000000014	0.0912507941829972	36	diastole	11	B	500	systole
469.59720000000016	0.0912507941829972	36	diastole	12	B	500	systole
472.0340000000001	0.098143183538923	37	diastole	1	B	500	systole
472.8139000000001	0.098143183538923	37	diastole	2	B	500	systole
473.5639000000001	0.098143183538923	37	diastole	3	B	500	systole
474.3140000000001	0.098143183538923	37	diastole	4	B	500	systole
475.0639000000001	0.098143183538923	37	diastole	5	B	500	systole
475.87390000000005	0.098143183538923	37	diastole	6	B	500	systole
476.6839	0.098143183538923	37	diastole	7	B	500	systole
477.47360000000003	0.098143183538923	37	diastole	8	B	500	systole
478.2237	0.098143183538923	37	diastole	9	B	500	systole
479.0322000000001	0.098143183538923	37	diastole	10	B	500	systole
479.8320000000001	0.098143183538923	37	diastole	11	B	500	systole
480.6522	0.098143183538923	37	diastole	12	B	500	systole
481.47230000000013	0.098143183538923	37	diastole	13	B	500	systole
484.4821000000002	0.0987523251678794	38	diastole	1	B	500	systole
485.222	0.0987523251678794	38	diastole	2	B	500	systole
485.9619	0.0987523251678794	38	diastole	3	B	500	systole
486.7330000000002	0.0987523251678794	38	diastole	4	B	500	systole
487.45050000000015	0.0987523251678794	38	diastole	5	B	500	systole
488.1804000000002	0.0987523251678794	38	diastole	6	B	500	systole
489.0033000000001	0.0987523251678794	38	diastole	7	B	500	systole
489.8030000000001	0.0987523251678794	38	diastole	8	B	500	systole
490.5001	0.0987523251678794	38	diastole	9	B	500	systole
491.2301	0.0987523251678794	38	diastole	10	B	500	systole
491.9501	0.0987523251678794	38	diastole	11	B	500	systole
492.6748	0.0987523251678794	38	diastole	12	B	500	systole
493.4244000000001	0.0987523251678794	38	diastole	13	B	500	systole
495.83550000000014	0.0937564562482293	39	diastole	1	B	500	diastole
496.6355000000001	0.0937564562482293	39	diastole	2	B	500	diastole
497.43550000000005	0.0937564562482293	39	diastole	3	B	500	diastole
498.1859000000002	0.0937564562482293	39	diastole	4	B	500	diastole
498.9363000000001	0.0937564562482293	39	diastole	5	B	500	diastole
499.66640000000007	0.0937564562482293	39	diastole	6	B	500	diastole
500.4366	0.0937564562482293	39	diastole	7	B	500	diastole
501.14660000000003	0.0937564562482293	39	diastole	8	B	500	diastole
501.84770000000003	0.0937564562482293	39	diastole	9	B	500	diastole
502.24250000000006	0.0937564562482293	39	diastole	10	B	500	diastole
502.9075	0.0937564562482293	39	diastole	11	B	500	diastole
503.5974000000001	0.0937564562482293	39	diastole	12	B	500	diastole
504.2074	0.0937564562482293	39	diastole	13	B	500	diastole
504.8774000000001	0.0937564562482293	39	diastole	14	B	500	diastole
507.3673000000001	0.0837535812461283	40	systole	1	B	500	diastole
508.05190000000016	0.0837535812461283	40	systole	2	B	500	diastole
508.7319	0.0837535812461283	40	systole	3	B	500	diastole
509.4729	0.0837535812461283	40	systole	4	B	500	diastole
510.2128	0.0837535812461283	40	systole	5	B	500	diastole
510.96450000000004	0.0837535812461283	40	systole	6	B	500	diastole
511.67610000000013	0.0837535812461283	40	systole	7	B	500	diastole
512.3821	0.0837535812461283	40	systole	8	B	500	diastole
513.0822000000001	0.0837535812461283	40	systole	9	B	500	diastole
513.8097	0.0837535812461283	40	systole	10	B	500	diastole
514.5097000000001	0.0837535812461283	40	systole	11	B	500	diastole
515.1896000000002	0.0837535812461283	40	systole	12	B	500	diastole
515.8781000000001	0.0837535812461283	40	systole	13	B	500	diastole
516.5783000000001	0.0837535812461283	40	systole	14	B	500	diastole
518.7625	0.087519240041729	41	systole	1	B	500	systole
519.4626000000001	0.087519240041729	41	systole	2	B	500	systole
520.1784	0.087519240041729	41	systole	3	B	500	systole
520.9084	0.087519240041729	41	systole	4	B	500	systole
521.6241	0.087519240041729	41	systole	5	B	500	systole
522.3341	0.087519240041729	41	systole	6	B	500	systole
523.0142000000001	0.087519240041729	41	systole	7	B	500	systole
523.6785	0.087519240041729	41	systole	8	B	500	systole
524.3428000000001	0.087519240041729	41	systole	9	B	500	systole
525.0128000000002	0.087519240041729	41	systole	10	B	500	systole
525.6511	0.087519240041729	41	systole	11	B	500	systole
526.3036000000002	0.087519240041729	41	systole	12	B	500	systole
526.9675000000002	0.087519240041729	41	systole	13	B	500	systole
527.6371000000001	0.087519240041729	41	systole	14	B	500	systole
528.3471000000002	0.087519240041729	41	systole	15	B	500	systole
531.3622	0.0850101523683406	42	systole	1	B	500	systole
532.1122	0.0850101523683406	42	systole	2	B	500	systole
532.8597	0.0850101523683406	42	systole	3	B	500	systole
533.6614000000002	0.0850101523683406	42	systole	4	B	500	systole
534.4405000000002	0.0850101523683406	42	systole	5	B	500	systole
535.1905000000002	0.0850101523683406	42	systole	6	B	500	systole
535.9105000000002	0.0850101523683406	42	systole	7	B	500	systole
536.6305	0.0850101523683406	42	systole	8	B	500	systole
537.4065	0.0850101523683406	42	systole	9	B	500	systole
538.1880000000001	0.0850101523683406	42	systole	10	B	500	systole
538.9580000000001	0.0850101523683406	42	systole	11	B	500	systole
539.6764000000001	0.0850101523683406	42	systole	12	B	500	systole
540.3964000000001	0.0850101523683406	42	systole	13	B	500	systole
542.4404000000002	0.0956222499953582	43	diastole	1	B	500	diastole
543.1805000000002	0.0956222499953582	43	diastole	2	B	500	diastole
543.9588000000001	0.0956222499953582	43	diastole	3	B	500	diastole
544.7288000000001	0.0956222499953582	43	diastole	4	B	500	diastole
545.4438	0.0956222499953582	43	diastole	5	B	500	diastole
546.1837	0.0956222499953582	43	diastole	6	B	500	diastole
546.9236000000001	0.0956222499953582	43	diastole	7	B	500	diastole
547.6435000000001	0.0956222499953582	43	diastole	8	B	500	diastole
548.4021	0.0956222499953582	43	diastole	9	B	500	diastole
549.1523000000002	0.0956222499953582	43	diastole	10	B	500	diastole
549.9216000000001	0.0956222499953582	43	diastole	11	B	500	diastole
550.6269	0.0956222499953582	43	diastole	12	B	500	diastole
551.3568	0.0956222499953582	43	diastole	13	B	500	diastole
552.1352000000002	0.0956222499953582	43	diastole	14	B	500	diastole
554.2539000000002	0.0962278000661172	44	systole	1	B	500	systole
554.9940000000001	0.0962278000661172	44	systole	2	B	500	systole
555.7341000000001	0.0962278000661172	44	systole	3	B	500	systole
556.4741000000001	0.0962278000661172	44	systole	4	B	500	systole
557.2701000000002	0.0962278000661172	44	systole	5	B	500	systole
558.0602000000001	0.0962278000661172	44	systole	6	B	500	systole
558.8617000000002	0.0962278000661172	44	systole	7	B	500	systole
559.6517000000001	0.0962278000661172	44	systole	8	B	500	systole
560.4875000000002	0.0962278000661172	44	systole	9	B	500	systole
561.3173000000002	0.0962278000661172	44	systole	10	B	500	systole
562.1374000000001	0.0962278000661172	44	systole	11	B	500	systole
562.8815000000002	0.0962278000661172	44	systole	12	B	500	systole
563.7414000000001	0.0962278000661172	44	systole	13	B	500	systole
566.3363000000002	0.1006298914435319	45	systole	1	B	500	systole
567.1623000000002	0.1006298914435319	45	systole	2	B	500	systole
568.0223000000001	0.1006298914435319	45	systole	3	B	500	systole
568.7864000000002	0.1006298914435319	45	systole	4	B	500	systole
569.5564000000002	0.1006298914435319	45	systole	5	B	500	systole
570.4298000000001	0.1006298914435319	45	systole	6	B	500	systole
571.2798	0.1006298914435319	45	systole	7	B	500	systole
572.1298000000002	0.1006298914435319	45	systole	8	B	500	systole
572.9798000000001	0.1006298914435319	45	systole	9	B	500	systole
573.8240000000001	0.1006298914435319	45	systole	10	B	500	systole
574.6166000000001	0.1006298914435319	45	systole	11	B	500	systole
575.4841000000001	0.1006298914435319	45	systole	12	B	500	systole
578.0973000000001	0.1062526085588615	46	systole	1	B	500	systole
578.9972	0.1062526085588615	46	systole	2	B	500	systole
579.8972000000001	0.1062526085588615	46	systole	3	B	500	systole
580.7973000000002	0.1062526085588615	46	systole	4	B	500	systole
581.6073000000001	0.1062526085588615	46	systole	5	B	500	systole
582.4174	0.1062526085588615	46	systole	6	B	500	systole
583.1774	0.1062526085588615	46	systole	7	B	500	systole
583.9374	0.1062526085588615	46	systole	8	B	500	systole
584.6975	0.1062526085588615	46	systole	9	B	500	systole
585.5174000000002	0.1062526085588615	46	systole	10	B	500	systole
586.3374000000001	0.1062526085588615	46	systole	11	B	500	systole
587.0507	0.1062526085588615	46	systole	12	B	500	systole
589.5640000000001	0.0962513999547809	47	diastole	1	B	500	diastole
590.3541	0.0962513999547809	47	diastole	2	B	500	diastole
591.1441	0.0962513999547809	47	diastole	3	B	500	diastole
591.9342000000001	0.0962513999547809	47	diastole	4	B	500	diastole
592.6425000000002	0.0962513999547809	47	diastole	5	B	500	diastole
593.4591	0.0962513999547809	47	diastole	6	B	500	diastole
594.3144	0.0962513999547809	47	diastole	7	B	500	diastole
595.0472	0.0962513999547809	47	diastole	8	B	500	diastole
595.7967000000001	0.0962513999547809	47	diastole	9	B	500	diastole
596.5462	0.0962513999547809	47	diastole	10	B	500	diastole
597.3431	0.0962513999547809	47	diastole	11	B	500	diastole
598.0649000000001	0.0962513999547809	47	diastole	12	B	500	diastole
598.7952	0.0962513999547809	47	diastole	13	B	500	diastole
600.7227	0.0962503442133311	48	systole	1	B	500	diastole
601.4829000000002	0.0962503442133311	48	systole	2	B	500	diastole
602.2943	0.0962503442133311	48	systole	3	B	500	diastole
603.0430000000001	0.0962503442133311	48	systole	4	B	500	diastole
603.8031000000001	0.0962503442133311	48	systole	5	B	500	diastole
604.3327000000002	0.0962503442133311	48	systole	6	B	500	diastole
604.6263000000001	0.0962503442133311	48	systole	7	B	500	diastole
604.8263000000002	0.0962503442133311	48	systole	8	B	500	diastole
605.4435000000001	0.0962503442133311	48	systole	9	B	500	diastole
606.1331	0.0962503442133311	48	systole	10	B	500	diastole
606.6539	0.0962503442133311	48	systole	11	B	500	diastole
606.9427000000001	0.0962503442133311	48	systole	12	B	500	diastole
607.7527	0.0962503442133311	48	systole	13	B	500	diastole
608.5128000000002	0.0962503442133311	48	systole	14	B	500	diastole
609.2528	0.0962503442133311	48	systole	15	B	500	diastole
610.0822000000001	0.0962503442133311	48	systole	16	B	500	diastole
612.6156000000001	0.093760305433534	49	diastole	1	B	500	diastole
613.3356000000001	0.093760305433534	49	diastole	2	B	500	diastole
614.0556000000001	0.093760305433534	49	diastole	3	B	500	diastole
614.7856000000002	0.093760305433534	49	diastole	4	B	500	diastole
615.5155	0.093760305433534	49	diastole	5	B	500	diastole
615.9922000000001	0.093760305433534	49	diastole	6	B	500	diastole
616.7036	0.093760305433534	49	diastole	7	B	500	diastole
617.4136000000001	0.093760305433534	49	diastole	8	B	500	diastole
618.1636000000001	0.093760305433534	49	diastole	9	B	500	diastole
619.3001000000002	0.093760305433534	49	diastole	10	B	500	diastole
620.0702000000001	0.093760305433534	49	diastole	11	B	500	diastole
621.0768	0.093760305433534	49	diastole	12	B	500	diastole
622.0885000000001	0.093760305433534	49	diastole	13	B	500	diastole
626.3839	0.1076158750220201	50	diastole	1	B	500	systole
627.2440000000001	0.1076158750220201	50	diastole	2	B	500	systole
628.0838000000001	0.1076158750220201	50	diastole	3	B	500	systole
628.9237	0.1076158750220201	50	diastole	4	B	500	systole
629.8321000000001	0.1076158750220201	50	diastole	5	B	500	systole
630.7223000000001	0.1076158750220201	50	diastole	6	B	500	systole
631.6125000000002	0.1076158750220201	50	diastole	7	B	500	systole
632.4923000000001	0.1076158750220201	50	diastole	8	B	500	systole
633.2855000000002	0.1076158750220201	50	diastole	9	B	500	systole
634.0954000000002	0.1076158750220201	50	diastole	10	B	500	systole
637.1052000000002	0.1031331316917203	51	diastole	1	B	500	systole
637.8733000000002	0.1031331316917203	51	diastole	2	B	500	systole
638.6650000000002	0.1031331316917203	51	diastole	3	B	500	systole
639.4463000000001	0.1031331316917203	51	diastole	4	B	500	systole
640.2359000000001	0.1031331316917203	51	diastole	5	B	500	systole
641.0255000000002	0.1031331316917203	51	diastole	6	B	500	systole
641.7959000000001	0.1031331316917203	51	diastole	7	B	500	systole
642.6558	0.1031331316917203	51	diastole	8	B	500	systole
643.4759000000001	0.1031331316917203	51	diastole	9	B	500	systole
644.296	0.1031331316917203	51	diastole	10	B	500	systole
645.116	0.1031331316917203	51	diastole	11	B	500	systole
645.8871000000001	0.1031331316917203	51	diastole	12	B	500	systole
648.9537	0.1037452471500728	52	systole	1	B	500	diastole
649.7936000000002	0.1037452471500728	52	systole	2	B	500	diastole
650.5859	0.1037452471500728	52	systole	3	B	500	diastole
651.4276	0.1037452471500728	52	systole	4	B	500	diastole
652.2792000000002	0.1037452471500728	52	systole	5	B	500	diastole
653.1193000000001	0.1037452471500728	52	systole	6	B	500	diastole
653.8519000000001	0.1037452471500728	52	systole	7	B	500	diastole
654.6020000000001	0.1037452471500728	52	systole	8	B	500	diastole
655.3642	0.1037452471500728	52	systole	9	B	500	diastole
656.1800000000001	0.1037452471500728	52	systole	10	B	500	diastole
656.9899	0.1037452471500728	52	systole	11	B	500	diastole
657.7999	0.1037452471500728	52	systole	12	B	500	diastole
660.0569	0.0987354875833261	53	systole	1	B	500	systole
660.837	0.0987354875833261	53	systole	2	B	500	systole
661.6488000000002	0.0987354875833261	53	systole	3	B	500	systole
662.4388000000001	0.0987354875833261	53	systole	4	B	500	systole
663.2688	0.0987354875833261	53	systole	5	B	500	systole
664.0987	0.0987354875833261	53	systole	6	B	500	systole
664.8988000000002	0.0987354875833261	53	systole	7	B	500	systole
665.6989000000001	0.0987354875833261	53	systole	8	B	500	systole
666.5289	0.0987354875833261	53	systole	9	B	500	systole
667.3287	0.0987354875833261	53	systole	10	B	500	systole
668.1285	0.0987354875833261	53	systole	11	B	500	systole
668.9487000000001	0.0987354875833261	53	systole	12	B	500	systole
669.8303000000003	0.0987354875833261	53	systole	13	B	500	systole
673.0924000000002	0.1025080851104576	54	systole	1	B	500	systole
673.9123999999999	0.1025080851104576	54	systole	2	B	500	systole
674.7124000000001	0.1025080851104576	54	systole	3	B	500	systole
675.5124000000003	0.1025080851104576	54	systole	4	B	500	systole
676.3724	0.1025080851104576	54	systole	5	B	500	systole
677.2423000000001	0.1025080851104576	54	systole	6	B	500	systole
678.1122000000003	0.1025080851104576	54	systole	7	B	500	systole
678.9424000000001	0.1025080851104576	54	systole	8	B	500	systole
679.7726	0.1025080851104576	54	systole	9	B	500	systole
680.6718000000003	0.1025080851104576	54	systole	10	B	500	systole
681.5418999999999	0.1025080851104576	54	systole	11	B	500	systole
684.238	0.0581212374090682	55	systole	1	B	500	diastole
685.008	0.0581212374090682	55	systole	2	B	500	diastole
685.7879	0.0581212374090682	55	systole	3	B	500	diastole
686.5678	0.0581212374090682	55	systole	4	B	500	diastole
687.3376000000001	0.0581212374090682	55	systole	5	B	500	diastole
688.1074000000001	0.0581212374090682	55	systole	6	B	500	diastole
689.1659999999999	0.0581212374090682	55	systole	7	B	500	diastole
690.0263000000002	0.0581212374090682	55	systole	8	B	500	diastole
690.9901000000002	0.0581212374090682	55	systole	9	B	500	diastole
691.8594	0.0581212374090682	55	systole	10	B	500	diastole
692.711	0.0581212374090682	55	systole	11	B	500	diastole
693.5627000000002	0.0581212374090682	55	systole	12	B	500	diastole
696.3552000000002	0.1043614092341158	56	systole	1	B	500	systole
697.2479000000001	0.1043614092341158	56	systole	2	B	500	systole
698.0982000000001	0.1043614092341158	56	systole	3	B	500	systole
698.9485000000002	0.1043614092341158	56	systole	4	B	500	systole
699.8275000000001	0.1043614092341158	56	systole	5	B	500	systole
700.7075000000002	0.1043614092341158	56	systole	6	B	500	systole
701.5474999999999	0.1043614092341158	56	systole	7	B	500	systole
702.3969	0.1043614092341158	56	systole	8	B	500	systole
703.2070000000001	0.1043614092341158	56	systole	9	B	500	systole
704.017	0.1043614092341158	56	systole	10	B	500	systole
704.8389	0.1043614092341158	56	systole	11	B	500	systole
707.8585	0.1067501662182621	57	diastole	1	B	500	diastole
708.6437000000003	0.1067501662182621	57	diastole	2	B	500	diastole
709.4285000000002	0.1067501662182621	57	diastole	3	B	500	diastole
710.2594999999999	0.1067501662182621	57	diastole	4	B	500	diastole
711.0989999999999	0.1067501662182621	57	diastole	5	B	500	diastole
711.8844999999999	0.1067501662182621	57	diastole	6	B	500	diastole
712.6546000000001	0.1067501662182621	57	diastole	7	B	500	diastole
713.4759000000001	0.1067501662182621	57	diastole	8	B	500	diastole
714.3394000000001	0.1067501662182621	57	diastole	9	B	500	diastole
715.1045999999999	0.1067501662182621	57	diastole	10	B	500	diastole
715.9595000000002	0.1067501662182621	57	diastole	11	B	500	diastole
716.7895000000001	0.1067501662182621	57	diastole	12	B	500	diastole
719.1733000000002	0.1024887623498216	58	diastole	1	B	500	diastole
719.9534000000001	0.1024887623498216	58	diastole	2	B	500	diastole
720.7334000000003	0.1024887623498216	58	diastole	3	B	500	diastole
721.4487999999999	0.1024887623498216	58	diastole	4	B	500	diastole
722.1821000000002	0.1024887623498216	58	diastole	5	B	500	diastole
722.9537000000003	0.1024887623498216	58	diastole	6	B	500	diastole
723.7053000000003	0.1024887623498216	58	diastole	7	B	500	diastole
724.4453000000001	0.1024887623498216	58	diastole	8	B	500	diastole
725.1785000000002	0.1024887623498216	58	diastole	9	B	500	diastole
725.9284	0.1024887623498216	58	diastole	10	B	500	diastole
726.7418	0.1024887623498216	58	diastole	11	B	500	diastole
727.5318	0.1024887623498216	58	diastole	12	B	500	diastole
728.3219000000001	0.1024887623498216	58	diastole	13	B	500	diastole
731.2470000000001	0.0981316716060973	59	systole	1	B	500	diastole
732.0469	0.0981316716060973	59	systole	2	B	500	diastole
732.7970000000003	0.0981316716060973	59	systole	3	B	500	diastole
733.577	0.0981316716060973	59	systole	4	B	500	diastole
734.3570000000002	0.0981316716060973	59	systole	5	B	500	diastole
735.1052999999999	0.0981316716060973	59	systole	6	B	500	diastole
735.8653000000002	0.0981316716060973	59	systole	7	B	500	diastole
736.6652999999999	0.0981316716060973	59	systole	8	B	500	diastole
737.4653000000001	0.0981316716060973	59	systole	9	B	500	diastole
738.2653000000003	0.0981316716060973	59	systole	10	B	500	diastole
739.0451	0.0981316716060973	59	systole	11	B	500	diastole
739.7992999999999	0.0981316716060973	59	systole	12	B	500	diastole
743.9346000000003	0.1006311278615612	60	systole	1	B	500	systole
744.7347000000002	0.1006311278615612	60	systole	2	B	500	systole
745.5504000000003	0.1006311278615612	60	systole	3	B	500	systole
746.3604000000003	0.1006311278615612	60	systole	4	B	500	systole
747.1103	0.1006311278615612	60	systole	5	B	500	systole
747.8745000000001	0.1006311278615612	60	systole	6	B	500	systole
748.6387000000002	0.1006311278615612	60	systole	7	B	500	systole
749.4487000000001	0.1006311278615612	60	systole	8	B	500	systole
750.2187000000001	0.1006311278615612	60	systole	9	B	500	systole
750.9888000000003	0.1006311278615612	60	systole	10	B	500	systole
751.7214999999999	0.1006311278615612	60	systole	11	B	500	systole
752.4899000000003	0.1006311278615612	60	systole	12	B	500	systole
755.2488000000001	0.0962649646389763	61	diastole	1	B	500	diastole
756.0189000000003	0.0962649646389763	61	diastole	2	B	500	diastole
756.8169	0.0962649646389763	61	diastole	3	B	500	diastole
757.6351999999999	0.0962649646389763	61	diastole	4	B	500	diastole
758.3769	0.0962649646389763	61	diastole	5	B	500	diastole
759.1469	0.0962649646389763	61	diastole	6	B	500	diastole
759.9352000000001	0.0962649646389763	61	diastole	7	B	500	diastole
760.7153000000001	0.0962649646389763	61	diastole	8	B	500	diastole
761.0128000000002	0.0962649646389763	61	diastole	9	B	500	diastole
761.1953000000001	0.0962649646389763	61	diastole	10	B	500	diastole
761.3353	0.0962649646389763	61	diastole	11	B	500	diastole
761.4478000000001	0.0962649646389763	61	diastole	12	B	500	diastole
762.0775000000001	0.0962649646389763	61	diastole	13	B	500	diastole
762.7772000000002	0.0962649646389763	61	diastole	14	B	500	diastole
763.4873	0.0962649646389763	61	diastole	15	B	500	diastole
763.6978000000001	0.0962649646389763	61	diastole	16	B	500	diastole
764.4887000000001	0.0962649646389763	61	diastole	17	B	500	diastole
767.1521	0.0818716999783646	62	diastole	1	B	500	diastole
767.7821000000001	0.0818716999783646	62	diastole	2	B	500	diastole
768.3673000000001	0.0818716999783646	62	diastole	3	B	500	diastole
769.0420999999999	0.0818716999783646	62	diastole	4	B	500	diastole
769.6987000000001	0.0818716999783646	62	diastole	5	B	500	diastole
770.3387	0.0818716999783646	62	diastole	6	B	500	diastole
771.0187000000003	0.0818716999783646	62	diastole	7	B	500	diastole
771.6687	0.0818716999783646	62	diastole	8	B	500	diastole
772.3188000000002	0.0818716999783646	62	diastole	9	B	500	diastole
773.0387000000003	0.0818716999783646	62	diastole	10	B	500	diastole
773.7190000000003	0.0818716999783646	62	diastole	11	B	500	diastole
774.4640000000002	0.0818716999783646	62	diastole	12	B	500	diastole
775.1888999999999	0.0818716999783646	62	diastole	13	B	500	diastole
775.9487999999999	0.0818716999783646	62	diastole	14	B	500	diastole
777.9495	0.0887472125177737	63	systole	1	B	500	diastole
778.6596000000002	0.0887472125177737	63	systole	2	B	500	diastole
779.3496000000002	0.0887472125177737	63	systole	3	B	500	diastole
780.0753000000002	0.0887472125177737	63	systole	4	B	500	diastole
780.7952000000002	0.0887472125177737	63	systole	5	B	500	diastole
781.4894999999999	0.0887472125177737	63	systole	6	B	500	diastole
782.1895000000002	0.0887472125177737	63	systole	7	B	500	diastole
782.8480000000002	0.0887472125177737	63	systole	8	B	500	diastole
783.5181	0.0887472125177737	63	systole	9	B	500	diastole
784.2124999999999	0.0887472125177737	63	systole	10	B	500	diastole
784.8922	0.0887472125177737	63	systole	11	B	500	diastole
785.5722000000003	0.0887472125177737	63	systole	12	B	500	diastole
786.2563000000002	0.0887472125177737	63	systole	13	B	500	diastole
786.9563	0.0887472125177737	63	systole	14	B	500	diastole
787.6562999999999	0.0887472125177737	63	systole	15	B	500	diastole
790.7737	0.0868689983908552	64	diastole	1	B	500	diastole
791.4837	0.0868689983908552	64	diastole	2	B	500	diastole
792.1656	0.0868689983908552	64	diastole	3	B	500	diastole
792.8455000000001	0.0868689983908552	64	diastole	4	B	500	diastole
793.5354	0.0868689983908552	64	diastole	5	B	500	diastole
794.2154000000003	0.0868689983908552	64	diastole	6	B	500	diastole
794.9053999999999	0.0868689983908552	64	diastole	7	B	500	diastole
795.5754	0.0868689983908552	64	diastole	8	B	500	diastole
796.2254	0.0868689983908552	64	diastole	9	B	500	diastole
796.8671000000002	0.0868689983908552	64	diastole	10	B	500	diastole
797.5087000000001	0.0868689983908552	64	diastole	11	B	500	diastole
798.1505	0.0868689983908552	64	diastole	12	B	500	diastole
798.8006000000003	0.0868689983908552	64	diastole	13	B	500	diastole
799.4622000000002	0.0868689983908552	64	diastole	14	B	500	diastole
804.8206000000002	0.0887438456411473	65	diastole	1	B	500	diastole
805.5301999999999	0.0887438456411473	65	diastole	2	B	500	diastole
806.2399000000003	0.0887438456411473	65	diastole	3	B	500	diastole
806.9495	0.0887438456411473	65	diastole	4	B	500	diastole
807.6596000000002	0.0887438456411473	65	diastole	5	B	500	diastole
808.2914000000003	0.0887438456411473	65	diastole	6	B	500	diastole
808.9314999999999	0.0887438456411473	65	diastole	7	B	500	diastole
809.5578000000003	0.0887438456411473	65	diastole	8	B	500	diastole
810.1945000000003	0.0887438456411473	65	diastole	9	B	500	diastole
810.8494000000003	0.0887438456411473	65	diastole	10	B	500	diastole
811.5292000000002	0.0887438456411473	65	diastole	11	B	500	diastole
812.2094	0.0887438456411473	65	diastole	12	B	500	diastole
813.0092999999999	0.0887438456411473	65	diastole	13	B	500	diastole
813.8093999999999	0.0887438456411473	65	diastole	14	B	500	diastole
816.4272000000003	0.0918727698735892	66	diastole	1	B	500	diastole
817.2472	0.0918727698735892	66	diastole	2	B	500	diastole
818.0555999999999	0.0918727698735892	66	diastole	3	B	500	diastole
818.8556000000001	0.0918727698735892	66	diastole	4	B	500	diastole
819.6056000000001	0.0918727698735892	66	diastole	5	B	500	diastole
820.3556000000001	0.0918727698735892	66	diastole	6	B	500	diastole
821.1156000000003	0.0918727698735892	66	diastole	7	B	500	diastole
821.867	0.0918727698735892	66	diastole	8	B	500	diastole
822.5809000000002	0.0918727698735892	66	diastole	9	B	500	diastole
823.3126	0.0918727698735892	66	diastole	10	B	500	diastole
824.0527	0.0918727698735892	66	diastole	11	B	500	diastole
824.8225	0.0918727698735892	66	diastole	12	B	500	diastole
825.5443000000002	0.0918727698735892	66	diastole	13	B	500	diastole
828.2680000000003	0.0949746690457686	67	systole	1	B	500	diastole
829.068	0.0949746690457686	67	systole	2	B	500	diastole
829.818	0.0949746690457686	67	systole	3	B	500	diastole
830.5681000000002	0.0949746690457686	67	systole	4	B	500	diastole
831.3443	0.0949746690457686	67	systole	5	B	500	diastole
832.0977	0.0949746690457686	67	systole	6	B	500	diastole
832.8572000000001	0.0949746690457686	67	systole	7	B	500	diastole
833.6470999999999	0.0949746690457686	67	systole	8	B	500	diastole
834.4370999999999	0.0949746690457686	67	systole	9	B	500	diastole
835.2271000000003	0.0949746690457686	67	systole	10	B	500	diastole
835.9754	0.0949746690457686	67	systole	11	B	500	diastole
836.7608000000002	0.0949746690457686	67	systole	12	B	500	diastole
837.5670000000002	0.0949746690457686	67	systole	13	B	500	diastole
841.7230999999999	0.0980722912645433	68	diastole	1	B	500	diastole
842.5127	0.0980722912645433	68	diastole	2	B	500	diastole
843.3206000000002	0.0980722912645433	68	diastole	3	B	500	diastole
844.1284000000003	0.0980722912645433	68	diastole	4	B	500	diastole
844.9732000000001	0.0980722912645433	68	diastole	5	B	500	diastole
845.8010999999999	0.0980722912645433	68	diastole	6	B	500	diastole
846.6173000000001	0.0980722912645433	68	diastole	7	B	500	diastole
847.4269999999999	0.0980722912645433	68	diastole	8	B	500	diastole
847.7322000000001	0.0980722912645433	68	diastole	9	B	500	diastole
847.9122	0.0980722912645433	68	diastole	10	B	500	diastole
848.3370000000002	0.0980722912645433	68	diastole	11	B	500	diastole
848.5922000000003	0.0980722912645433	68	diastole	12	B	500	diastole
849.1677999999999	0.0980722912645433	68	diastole	13	B	500	diastole
849.3878000000002	0.0980722912645433	68	diastole	14	B	500	diastole
849.5522000000003	0.0980722912645433	68	diastole	15	B	500	diastole
849.6532	0.0980722912645433	68	diastole	16	B	500	diastole
850.0231000000001	0.0980722912645433	68	diastole	17	B	500	diastole
852.3102000000001	0.0293568312772549	69	systole	1	B	500	diastole
853.0901999999999	0.0293568312772549	69	systole	2	B	500	diastole
853.8700999999999	0.0293568312772549	69	systole	3	B	500	diastole
854.9041	0.0293568312772549	69	systole	4	B	500	diastole
855.9550000000002	0.0293568312772549	69	systole	5	B	500	diastole
856.8718999999999	0.0293568312772549	69	systole	6	B	500	diastole
857.6719	0.0293568312772549	69	systole	7	B	500	diastole
858.5094000000001	0.0293568312772549	69	systole	8	B	500	diastole
859.3269000000003	0.0293568312772549	69	systole	9	B	500	diastole
860.0968	0.0293568312772549	69	systole	10	B	500	diastole
860.8466000000001	0.0293568312772549	69	systole	11	B	500	diastole
861.5809000000002	0.0293568312772549	69	systole	12	B	500	diastole
864.8921000000003	0.0949887951719574	70	diastole	1	B	500	diastole
865.7019000000003	0.0949887951719574	70	diastole	2	B	500	diastole
866.5618999999999	0.0949887951719574	70	diastole	3	B	500	diastole
867.3790000000001	0.0949887951719574	70	diastole	4	B	500	diastole
868.1791000000001	0.0949887951719574	70	diastole	5	B	500	diastole
869.0236000000002	0.0949887951719574	70	diastole	6	B	500	diastole
869.8435000000002	0.0949887951719574	70	diastole	7	B	500	diastole
870.6683	0.0949887951719574	70	diastole	8	B	500	diastole
871.4185	0.0949887951719574	70	diastole	9	B	500	diastole
872.1686000000002	0.0949887951719574	70	diastole	10	B	500	diastole
872.9386000000002	0.0949887951719574	70	diastole	11	B	500	diastole
875.8237000000001	0.0956146562239155	71	diastole	1	B	500	systole
876.5654999999999	0.0956146562239155	71	diastole	2	B	500	systole
877.2855000000002	0.0956146562239155	71	diastole	3	B	500	systole
878.0056000000002	0.0956146562239155	71	diastole	4	B	500	systole
878.7454	0.0956146562239155	71	diastole	5	B	500	systole
879.4654000000003	0.0956146562239155	71	diastole	6	B	500	systole
880.1870999999999	0.0956146562239155	71	diastole	7	B	500	systole
880.8804000000002	0.0956146562239155	71	diastole	8	B	500	systole
881.6204	0.0956146562239155	71	diastole	9	B	500	systole
882.3604000000003	0.0956146562239155	71	diastole	10	B	500	systole
883.0638999999999	0.0956146562239155	71	diastole	11	B	500	systole
883.7556999999999	0.0956146562239155	71	diastole	12	B	500	systole
884.4756	0.0956146562239155	71	diastole	13	B	500	systole
887.0456999999999	0.0899997751694172	72	systole	1	B	500	systole
887.7815000000003	0.0899997751694172	72	systole	2	B	500	systole
888.5115000000003	0.0899997751694172	72	systole	3	B	500	systole
889.2615000000003	0.0899997751694172	72	systole	4	B	500	systole
889.9557000000002	0.0899997751694172	72	systole	5	B	500	systole
890.7073000000003	0.0899997751694172	72	systole	6	B	500	systole
891.4674000000002	0.0899997751694172	72	systole	7	B	500	systole
892.2374000000002	0.0899997751694172	72	systole	8	B	500	systole
893.0073	0.0899997751694172	72	systole	9	B	500	systole
893.7630000000001	0.0899997751694172	72	systole	10	B	500	systole
894.4631000000002	0.0899997751694172	72	systole	11	B	500	systole
895.2346	0.0899997751694172	72	systole	12	B	500	systole
895.9846	0.0899997751694172	72	systole	13	B	500	systole
898.8748000000003	0.0937179437314625	73	systole	1	B	500	diastole
899.6348	0.0937179437314625	73	systole	2	B	500	diastole
900.3947000000001	0.0937179437314625	73	systole	3	B	500	diastole
901.1344000000001	0.0937179437314625	73	systole	4	B	500	diastole
901.8741000000002	0.0937179437314625	73	systole	5	B	500	diastole
902.3945000000001	0.0937179437314625	73	systole	6	B	500	diastole
902.7624000000003	0.0937179437314625	73	systole	7	B	500	diastole
903.1422	0.0937179437314625	73	systole	8	B	500	diastole
903.4269000000002	0.0937179437314625	73	systole	9	B	500	diastole
903.5869	0.0937179437314625	73	systole	10	B	500	diastole
903.6069	0.0937179437314625	73	systole	11	B	500	diastole
903.8518999999999	0.0937179437314625	73	systole	12	B	500	diastole
904.0219	0.0937179437314625	73	systole	13	B	500	diastole
904.0581	0.0937179437314625	73	systole	14	B	500	diastole
904.4580000000003	0.0937179437314625	73	systole	15	B	500	diastole
905.2081000000001	0.0937179437314625	73	systole	16	B	500	diastole
905.9582000000003	0.0937179437314625	73	systole	17	B	500	diastole
906.7997000000003	0.0937179437314625	73	systole	18	B	500	diastole
907.5596000000003	0.0937179437314625	73	systole	19	B	500	diastole
908.5671	0.0937179437314625	73	systole	20	B	500	diastole
910.9251999999999	0.0969701814465224	74	diastole	1	B	500	diastole
911.7720000000002	0.0969701814465224	74	diastole	2	B	500	diastole
912.5988	0.0969701814465224	74	diastole	3	B	500	diastole
913.3891000000001	0.0969701814465224	74	diastole	4	B	500	diastole
914.1320000000003	0.0969701814465224	74	diastole	5	B	500	diastole
914.8820000000003	0.0969701814465224	74	diastole	6	B	500	diastole
915.6520000000003	0.0969701814465224	74	diastole	7	B	500	diastole
916.4041	0.0969701814465224	74	diastole	8	B	500	diastole
917.1371999999999	0.0969701814465224	74	diastole	9	B	500	diastole
917.8790000000001	0.0969701814465224	74	diastole	10	B	500	diastole
918.6290000000001	0.0969701814465224	74	diastole	11	B	500	diastole
919.4490000000003	0.0969701814465224	74	diastole	12	B	500	diastole
920.2191	0.0969701814465224	74	diastole	13	B	500	diastole
923.6405000000002	0.0968764146382454	75	diastole	1	B	500	diastole
924.4107999999999	0.0968764146382454	75	diastole	2	B	500	diastole
925.1810000000003	0.0968764146382454	75	diastole	3	B	500	diastole
925.9512000000002	0.0968764146382454	75	diastole	4	B	500	diastole
926.8426999999999	0.0968764146382454	75	diastole	5	B	500	diastole
927.6928	0.0968764146382454	75	diastole	6	B	500	diastole
928.5213000000001	0.0968764146382454	75	diastole	7	B	500	diastole
929.3414	0.0968764146382454	75	diastole	8	B	500	diastole
930.2079000000001	0.0968764146382454	75	diastole	9	B	500	diastole
931.0579	0.0968764146382454	75	diastole	10	B	500	diastole
931.7949000000001	0.0968764146382454	75	diastole	11	B	500	diastole
935.9301000000003	0.1019424894766416	76	diastole	1	B	500	diastole
936.7482000000002	0.1019424894766416	76	diastole	2	B	500	diastole
937.5886000000003	0.1019424894766416	76	diastole	3	B	500	diastole
938.3817999999999	0.1019424894766416	76	diastole	4	B	500	diastole
939.1819000000003	0.1019424894766416	76	diastole	5	B	500	diastole
940.0384999999999	0.1019424894766416	76	diastole	6	B	500	diastole
940.8885000000002	0.1019424894766416	76	diastole	7	B	500	diastole
941.6816999999999	0.1019424894766416	76	diastole	8	B	500	diastole
942.4649000000002	0.1019424894766416	76	diastole	9	B	500	diastole
943.3017000000002	0.1019424894766416	76	diastole	10	B	500	diastole
944.1670999999999	0.1019424894766416	76	diastole	11	B	500	diastole
946.6221000000003	0.1012442874489352	77	diastole	1	B	500	systole
947.4821	0.1012442874489352	77	diastole	2	B	500	systole
948.2938000000001	0.1012442874489352	77	diastole	3	B	500	systole
949.0571000000002	0.1012442874489352	77	diastole	4	B	500	systole
949.8938	0.1012442874489352	77	diastole	5	B	500	systole
950.7421000000002	0.1012442874489352	77	diastole	6	B	500	systole
951.5138	0.1012442874489352	77	diastole	7	B	500	systole
952.3721000000003	0.1012442874489352	77	diastole	8	B	500	systole
953.2388000000003	0.1012442874489352	77	diastole	9	B	500	systole
954.0953999999999	0.1012442874489352	77	diastole	10	B	500	systole
954.8788000000002	0.1012442874489352	77	diastole	11	B	500	systole
955.6787999999999	0.1012442874489352	77	diastole	12	B	500	systole
959.3891000000001	0.0925078313739504	78	diastole	1	B	500	diastole
960.1892	0.0925078313739504	78	diastole	2	B	500	diastole
961.0591999999999	0.0925078313739504	78	diastole	3	B	500	diastole
961.9292000000003	0.0925078313739504	78	diastole	4	B	500	diastole
962.7992000000002	0.0925078313739504	78	diastole	5	B	500	diastole
963.4276000000002	0.0925078313739504	78	diastole	6	B	500	diastole
963.684	0.0925078313739504	78	diastole	7	B	500	diastole
963.934	0.0925078313739504	78	diastole	8	B	500	diastole
964.9791000000002	0.0925078313739504	78	diastole	9	B	500	diastole
965.8390000000002	0.0925078313739504	78	diastole	10	B	500	diastole
966.5868000000003	0.0925078313739504	78	diastole	11	B	500	diastole
967.3682000000001	0.0925078313739504	78	diastole	12	B	500	diastole
968.1580999999999	0.0925078313739504	78	diastole	13	B	500	diastole
971.0256000000002	0.0975050363631453	79	diastole	1	B	500	systole
971.7955	0.0975050363631453	79	diastole	2	B	500	systole
972.5654999999999	0.0975050363631453	79	diastole	3	B	500	systole
973.3655000000001	0.0975050363631453	79	diastole	4	B	500	systole
974.1955	0.0975050363631453	79	diastole	5	B	500	systole
974.9836000000003	0.0975050363631453	79	diastole	6	B	500	systole
975.7538999999999	0.0975050363631453	79	diastole	7	B	500	systole
976.5989000000002	0.0975050363631453	79	diastole	8	B	500	systole
977.3623	0.0975050363631453	79	diastole	9	B	500	systole
978.1422	0.0975050363631453	79	diastole	10	B	500	systole
978.8952999999999	0.0975050363631453	79	diastole	11	B	500	systole
979.7121	0.0975050363631453	79	diastole	12	B	500	systole
982.4095	0.0968712044996209	80	systole	1	B	500	diastole
983.2394999999999	0.0968712044996209	80	systole	2	B	500	diastole
983.5364000000002	0.0968712044996209	80	systole	3	B	500	diastole
983.6839000000002	0.0968712044996209	80	systole	4	B	500	diastole
983.8489000000002	0.0968712044996209	80	systole	5	B	500	diastole
983.9764000000002	0.0968712044996209	80	systole	6	B	500	diastole
984.0489	0.0968712044996209	80	systole	7	B	500	diastole
984.1714	0.0968712044996209	80	systole	8	B	500	diastole
984.3602000000003	0.0968712044996209	80	systole	9	B	500	diastole
984.6121	0.0968712044996209	80	systole	10	B	500	diastole
984.8640000000003	0.0968712044996209	80	systole	11	B	500	diastole
985.6452999999999	0.0968712044996209	80	systole	12	B	500	diastole
986.4312000000002	0.0968712044996209	80	systole	13	B	500	diastole
987.2112	0.0968712044996209	80	systole	14	B	500	diastole
988.0262	0.0968712044996209	80	systole	15	B	500	diastole
989.2435000000003	0.0968712044996209	80	systole	16	B	500	diastole
990.1236000000001	0.0968712044996209	80	systole	17	B	500	diastole
991.2528	0.0968712044996209	80	systole	18	B	500	diastole
994.5156	0.108120793767739	81	diastole	1	B	500	diastole
995.3255000000001	0.108120793767739	81	diastole	2	B	500	diastole
996.1353999999999	0.108120793767739	81	diastole	3	B	500	diastole
996.9456000000002	0.108120793767739	81	diastole	4	B	500	diastole
997.7556999999999	0.108120793767739	81	diastole	5	B	500	diastole
998.5153000000003	0.108120793767739	81	diastole	6	B	500	diastole
999.2852	0.108120793767739	81	diastole	7	B	500	diastole
1000.0552	0.108120793767739	81	diastole	8	B	500	diastole
1000.8252	0.108120793767739	81	diastole	9	B	500	diastole
1001.6303	0.108120793767739	81	diastole	10	B	500	diastole
1002.4421	0.108120793767739	81	diastole	11	B	500	diastole
1003.2325000000003	0.108120793767739	81	diastole	12	B	500	diastole
1006.8303000000003	0.1031288983358535	82	diastole	1	B	500	diastole
1007.6403000000003	0.1031288983358535	82	diastole	2	B	500	diastole
1008.4888000000003	0.1031288983358535	82	diastole	3	B	500	diastole
1009.3777000000002	0.1031288983358535	82	diastole	4	B	500	diastole
1010.2252000000001	0.1031288983358535	82	diastole	5	B	500	diastole
1011.0647999999999	0.1031288983358535	82	diastole	6	B	500	diastole
1011.9348000000002	0.1031288983358535	82	diastole	7	B	500	diastole
1012.8134000000002	0.1031288983358535	82	diastole	8	B	500	diastole
1013.6834000000001	0.1031288983358535	82	diastole	9	B	500	diastole
1014.5534	0.1031288983358535	82	diastole	10	B	500	diastole
1017.3613000000003	0.1056277943134773	83	systole	1	B	500	diastole
1018.1414000000002	0.1056277943134773	83	systole	2	B	500	diastole
1018.9755000000002	0.1056277943134773	83	systole	3	B	500	diastole
1019.8154999999999	0.1056277943134773	83	systole	4	B	500	diastole
1020.5838000000001	0.1056277943134773	83	systole	5	B	500	diastole
1021.3638000000003	0.1056277943134773	83	systole	6	B	500	diastole
1022.1838	0.1056277943134773	83	systole	7	B	500	diastole
1023.0037	0.1056277943134773	83	systole	8	B	500	diastole
1023.818	0.1056277943134773	83	systole	9	B	500	diastole
1024.6381	0.1056277943134773	83	systole	10	B	500	diastole
1025.4024000000002	0.1056277943134773	83	systole	11	B	500	diastole
1026.1922000000002	0.1056277943134773	83	systole	12	B	500	diastole
1029.2319	0.1019993501831777	84	diastole	1	B	500	systole
1030.0989000000002	0.1019993501831777	84	diastole	2	B	500	systole
1030.9491	0.1019993501831777	84	diastole	3	B	500	systole
1031.7423999999999	0.1019993501831777	84	diastole	4	B	500	systole
1032.6258	0.1019993501831777	84	diastole	5	B	500	systole
1033.4775000000002	0.1019993501831777	84	diastole	6	B	500	systole
1034.3538	0.1019993501831777	84	diastole	7	B	500	systole
1035.215	0.1019993501831777	84	diastole	8	B	500	systole
1035.9843000000003	0.1019993501831777	84	diastole	9	B	500	systole
1036.8558	0.1019993501831777	84	diastole	10	B	500	systole
1037.7046000000003	0.1019993501831777	84	diastole	11	B	500	systole
1040.6331000000002	0.1063519811432343	85	systole	1	B	500	systole
1041.5131	0.1063519811432343	85	systole	2	B	500	systole
1042.3931	0.1063519811432343	85	systole	3	B	500	systole
1043.2731	0.1063519811432343	85	systole	4	B	500	systole
1044.1798999999999	0.1063519811432343	85	systole	5	B	500	systole
1045.0475	0.1063519811432343	85	systole	6	B	500	systole
1045.9159000000002	0.1063519811432343	85	systole	7	B	500	systole
1046.7966	0.1063519811432343	85	systole	8	B	500	systole
1047.6265	0.1063519811432343	85	systole	9	B	500	systole
1048.5374	0.1063519811432343	85	systole	10	B	500	systole
1049.459	0.1063519811432343	85	systole	11	B	500	systole
1053.5027000000002	0.1124112062971107	86	diastole	1	B	500	diastole
1054.4220000000003	0.1124112062971107	86	diastole	2	B	500	diastole
1055.2720000000002	0.1124112062971107	86	diastole	3	B	500	diastole
1056.122	0.1124112062971107	86	diastole	4	B	500	diastole
1057.0421	0.1124112062971107	86	diastole	5	B	500	diastole
1057.4035999999999	0.1124112062971107	86	diastole	6	B	500	diastole
1057.7736000000002	0.1124112062971107	86	diastole	7	B	500	diastole
1058.4404000000002	0.1124112062971107	86	diastole	8	B	500	diastole
1059.2404	0.1124112062971107	86	diastole	9	B	500	diastole
1060.3706	0.1124112062971107	86	diastole	10	B	500	diastole
1061.5009000000002	0.1124112062971107	86	diastole	11	B	500	diastole
1063.8634	0.0212207688018679	87	systole	1	B	500	diastole
1064.0433	0.0212207688018679	87	systole	2	B	500	diastole
1064.2232000000001	0.0212207688018679	87	systole	3	B	500	diastole
1064.8127000000002	0.0212207688018679	87	systole	4	B	500	diastole
1065.4022000000002	0.0212207688018679	87	systole	5	B	500	diastole
1066.1587000000002	0.0212207688018679	87	systole	6	B	500	diastole
1066.9092000000003	0.0212207688018679	87	systole	7	B	500	diastole
1067.7851000000003	0.0212207688018679	87	systole	8	B	500	diastole
1068.8382	0.0212207688018679	87	systole	9	B	500	diastole
1069.5999	0.0212207688018679	87	systole	10	B	500	diastole
1070.7385000000002	0.0212207688018679	87	systole	11	B	500	diastole
1071.6886000000002	0.0212207688018679	87	systole	12	B	500	diastole
1072.3387	0.0212207688018679	87	systole	13	B	500	diastole
1073.1360000000002	0.0212207688018679	87	systole	14	B	500	diastole
1074.0791000000002	0.0212207688018679	87	systole	15	B	500	diastole
1077.9589000000003	0.1037541647092439	88	diastole	1	B	500	diastole
1078.8589	0.1037541647092439	88	diastole	2	B	500	diastole
1079.6938000000002	0.1037541647092439	88	diastole	3	B	500	diastole
1080.5038000000002	0.1037541647092439	88	diastole	4	B	500	diastole
1080.8271000000002	0.1037541647092439	88	diastole	5	B	500	diastole
1081.1670000000001	0.1037541647092439	88	diastole	6	B	500	diastole
1082.0040999999999	0.1037541647092439	88	diastole	7	B	500	diastole
1082.9659	0.1037541647092439	88	diastole	8	B	500	diastole
1083.8675	0.1037541647092439	88	diastole	9	B	500	diastole
1084.7275000000002	0.1037541647092439	88	diastole	10	B	500	diastole
1085.1320000000003	0.1037541647092439	88	diastole	11	B	500	diastole
1085.5218000000002	0.1037541647092439	88	diastole	12	B	500	diastole
1088.5335000000002	0.096239062550012	89	systole	1	B	500	diastole
1089.3234	0.096239062550012	89	systole	2	B	500	diastole
1090.1631	0.096239062550012	89	systole	3	B	500	diastole
1090.9048	0.096239062550012	89	systole	4	B	500	diastole
1091.6465	0.096239062550012	89	systole	5	B	500	diastole
1092.3949	0.096239062550012	89	systole	6	B	500	diastole
1093.2045	0.096239062550012	89	systole	7	B	500	diastole
1094.0141	0.096239062550012	89	systole	8	B	500	diastole
1094.8422000000003	0.096239062550012	89	systole	9	B	500	diastole
1095.6223000000002	0.096239062550012	89	systole	10	B	500	diastole
1096.4023	0.096239062550012	89	systole	11	B	500	diastole
1097.2595	0.096239062550012	89	systole	12	B	500	diastole
1099.6935	0.0981260219996329	90	systole	1	B	500	diastole
1100.5135000000002	0.0981260219996329	90	systole	2	B	500	diastole
1101.2812000000001	0.0981260219996329	90	systole	3	B	500	diastole
1102.0512	0.0981260219996329	90	systole	4	B	500	diastole
1102.8213000000003	0.0981260219996329	90	systole	5	B	500	diastole
1103.6429	0.0981260219996329	90	systole	6	B	500	diastole
1104.4528000000003	0.0981260219996329	90	systole	7	B	500	diastole
1105.191	0.0981260219996329	90	systole	8	B	500	diastole
1105.4906000000003	0.0981260219996329	90	systole	9	B	500	diastole
1105.6456	0.0981260219996329	90	systole	10	B	500	diastole
1105.7781000000002	0.0981260219996329	90	systole	11	B	500	diastole
1105.9080999999999	0.0981260219996329	90	systole	12	B	500	diastole
1106.0006	0.0981260219996329	90	systole	13	B	500	diastole
1106.0689	0.0981260219996329	90	systole	14	B	500	diastole
1106.2291000000002	0.0981260219996329	90	systole	15	B	500	diastole
1106.3892000000003	0.0981260219996329	90	systole	16	B	500	diastole
1106.6892	0.0981260219996329	90	systole	17	B	500	diastole
1106.8431000000003	0.0981260219996329	90	systole	18	B	500	diastole
1107.0115000000003	0.0981260219996329	90	systole	19	B	500	diastole
1107.1979	0.0981260219996329	90	systole	20	B	500	diastole
1107.7175	0.0981260219996329	90	systole	21	B	500	diastole
1108.2370000000003	0.0981260219996329	90	systole	22	B	500	diastole
1108.7565000000002	0.0981260219996329	90	systole	23	B	500	diastole
1111.4384000000002	0.0400061624823138	91	systole	1	B	500	diastole
1112.22	0.0400061624823138	91	systole	2	B	500	diastole
1112.5734	0.0400061624823138	91	systole	3	B	500	diastole
1113.4703000000002	0.0400061624823138	91	systole	4	B	500	diastole
1114.2203000000002	0.0400061624823138	91	systole	5	B	500	diastole
1115.0119000000002	0.0400061624823138	91	systole	6	B	500	diastole
1115.7919	0.0400061624823138	91	systole	7	B	500	diastole
1115.9804000000001	0.0400061624823138	91	systole	8	B	500	diastole
1116.1504000000002	0.0400061624823138	91	systole	9	B	500	diastole
1116.5727	0.0400061624823138	91	systole	10	B	500	diastole
1117.0426	0.0400061624823138	91	systole	11	B	500	diastole
1117.2254	0.0400061624823138	91	systole	12	B	500	diastole
1117.3854	0.0400061624823138	91	systole	13	B	500	diastole
1118.2458	0.0400061624823138	91	systole	14	B	500	diastole
1118.4479	0.0400061624823138	91	systole	15	B	500	diastole
1118.7743000000003	0.0400061624823138	91	systole	16	B	500	diastole
1119.0942000000002	0.0400061624823138	91	systole	17	B	500	diastole
1119.5510000000002	0.0400061624823138	91	systole	18	B	500	diastole
1120.0311	0.0400061624823138	91	systole	19	B	500	diastole
1120.331	0.0400061624823138	91	systole	20	B	500	diastole
1122.7789	0.062503837456461	92	diastole	1	B	500	diastole
1123.3689000000002	0.062503837456461	92	diastole	2	B	500	diastole
1124.2705000000003	0.062503837456461	92	diastole	3	B	500	diastole
1125.0605000000003	0.062503837456461	92	diastole	4	B	500	diastole
1125.8505000000002	0.062503837456461	92	diastole	5	B	500	diastole
1127.0172	0.062503837456461	92	diastole	6	B	500	diastole
1127.8173	0.062503837456461	92	diastole	7	B	500	diastole
1128.6423000000002	0.062503837456461	92	diastole	8	B	500	diastole
1129.4206000000001	0.062503837456461	92	diastole	9	B	500	diastole
1130.1906000000001	0.062503837456461	92	diastole	10	B	500	diastole
1130.9155000000003	0.062503837456461	92	diastole	11	B	500	diastole
1131.1804	0.062503837456461	92	diastole	12	B	500	diastole
1131.3679	0.062503837456461	92	diastole	13	B	500	diastole
1131.8757000000003	0.062503837456461	92	diastole	14	B	500	diastole
1134.2236	0.094981300208019	93	systole	1	B	500	diastole
1134.5837	0.094981300208019	93	systole	2	B	500	diastole
1134.8680000000002	0.094981300208019	93	systole	3	B	500	diastole
1135.0886000000003	0.094981300208019	93	systole	4	B	500	diastole
1135.2585000000001	0.094981300208019	93	systole	5	B	500	diastole
1135.4129	0.094981300208019	93	systole	6	B	500	diastole
1135.6430000000003	0.094981300208019	93	systole	7	B	500	diastole
1135.8886	0.094981300208019	93	systole	8	B	500	diastole
1136.1286000000002	0.094981300208019	93	systole	9	B	500	diastole
1136.6386	0.094981300208019	93	systole	10	B	500	diastole
1137.0042	0.094981300208019	93	systole	11	B	500	diastole
1137.3693	0.094981300208019	93	systole	12	B	500	diastole
1137.7699	0.094981300208019	93	systole	13	B	500	diastole
1137.9304	0.094981300208019	93	systole	14	B	500	diastole
1138.7681	0.094981300208019	93	systole	15	B	500	diastole
1139.6683	0.094981300208019	93	systole	16	B	500	diastole
1140.6059000000002	0.094981300208019	93	systole	17	B	500	diastole
1141.5932	0.094981300208019	93	systole	18	B	500	diastole
1142.6784	0.094981300208019	93	systole	19	B	500	diastole
1143.5837	0.094981300208019	93	systole	20	B	500	diastole
1146.4716	0.104414333763998	94	systole	1	B	500	systole
1147.389	0.104414333763998	94	systole	2	B	500	systole
1148.2703	0.104414333763998	94	systole	3	B	500	systole
1149.1401000000003	0.104414333763998	94	systole	4	B	500	systole
1150.0187000000003	0.104414333763998	94	systole	5	B	500	systole
1150.9302	0.104414333763998	94	systole	6	B	500	systole
1151.8301	0.104414333763998	94	systole	7	B	500	systole
1152.7735	0.104414333763998	94	systole	8	B	500	systole
1153.6935	0.104414333763998	94	systole	9	B	500	systole
1154.6109	0.104414333763998	94	systole	10	B	500	systole
1155.5224	0.104414333763998	94	systole	11	B	500	systole
1158.2539	0.1144475881010294	95	systole	1	B	500	systole
1159.1143	0.1144475881010294	95	systole	2	B	500	systole
1159.9741000000001	0.1144475881010294	95	systole	3	B	500	systole
1160.8308	0.1144475881010294	95	systole	4	B	500	systole
1161.7106	0.1144475881010294	95	systole	5	B	500	systole
1162.5905	0.1144475881010294	95	systole	6	B	500	systole
1163.5106000000003	0.1144475881010294	95	systole	7	B	500	systole
1164.3722	0.1144475881010294	95	systole	8	B	500	systole
1165.2522999999999	0.1144475881010294	95	systole	9	B	500	systole
1166.1321	0.1144475881010294	95	systole	10	B	500	systole
1166.9965	0.1144475881010294	95	systole	11	B	500	systole
1170.2488	0.1087469519115984	96	systole	1	B	500	systole
1171.0588	0.1087469519115984	96	systole	2	B	500	systole
1171.9289	0.1087469519115984	96	systole	3	B	500	systole
1172.7989	0.1087469519115984	96	systole	4	B	500	systole
1173.5872000000002	0.1087469519115984	96	systole	5	B	500	systole
1174.4372	0.1087469519115984	96	systole	6	B	500	systole
1175.2972000000002	0.1087469519115984	96	systole	7	B	500	systole
1176.1931000000002	0.1087469519115984	96	systole	8	B	500	systole
1177.0173000000002	0.1087469519115984	96	systole	9	B	500	systole
1177.8473000000001	0.1087469519115984	96	systole	10	B	500	systole
1178.6772000000003	0.1087469519115984	96	systole	11	B	500	systole
1182.6104000000003	0.106238719454268	97	diastole	1	B	500	systole
1183.5072000000002	0.106238719454268	97	diastole	2	B	500	systole
1184.2987	0.106238719454268	97	diastole	3	B	500	systole
1185.0985000000003	0.106238719454268	97	diastole	4	B	500	systole
1186.0353000000002	0.106238719454268	97	diastole	5	B	500	systole
1186.9552	0.106238719454268	97	diastole	6	B	500	systole
1187.8336000000002	0.106238719454268	97	diastole	7	B	500	systole
1188.7035000000003	0.106238719454268	97	diastole	8	B	500	systole
1189.5734	0.106238719454268	97	diastole	9	B	500	systole
1190.5035	0.106238719454268	97	diastole	10	B	500	systole
1192.7740999999999	0.1112620249914471	98	systole	1	B	500	systole
1193.6426	0.1112620249914471	98	systole	2	B	500	systole
1194.4393000000002	0.1112620249914471	98	systole	3	B	500	systole
1195.2594000000001	0.1112620249914471	98	systole	4	B	500	systole
1196.1487	0.1112620249914471	98	systole	5	B	500	systole
1197.0546000000002	0.1112620249914471	98	systole	6	B	500	systole
1197.8928000000003	0.1112620249914471	98	systole	7	B	500	systole
1198.7624000000003	0.1112620249914471	98	systole	8	B	500	systole
1199.6883	0.1112620249914471	98	systole	9	B	500	systole
1200.6250000000002	0.1112620249914471	98	systole	10	B	500	systole
1201.555	0.1112620249914471	98	systole	11	B	500	systole
1204.1938000000002	0.1106319765676744	99	systole	1	B	500	systole
1205.0937999999999	0.1106319765676744	99	systole	2	B	500	systole
1205.8761000000002	0.1106319765676744	99	systole	3	B	500	systole
1206.6762	0.1106319765676744	99	systole	4	B	500	systole
1207.5261000000003	0.1106319765676744	99	systole	5	B	500	systole
1208.3789	0.1106319765676744	99	systole	6	B	500	systole
1209.2489000000003	0.1106319765676744	99	systole	7	B	500	systole
1210.1031	0.1106319765676744	99	systole	8	B	500	systole
1211.0131	0.1106319765676744	99	systole	9	B	500	systole
1211.9332000000002	0.1106319765676744	99	systole	10	B	500	systole
1212.793	0.1106319765676744	99	systole	11	B	500	systole
1213.6430000000003	0.1106319765676744	99	systole	12	B	500	systole
1216.4035000000001	0.108127019542735	100	systole	1	B	500	systole
1217.2377	0.108127019542735	100	systole	2	B	500	systole
1218.0778000000003	0.108127019542735	100	systole	3	B	500	systole
1218.9693	0.108127019542735	100	systole	4	B	500	systole
1219.8491999999999	0.108127019542735	100	systole	5	B	500	systole
1220.6202	0.108127019542735	100	systole	6	B	500	systole
1221.4202000000002	0.108127019542735	100	systole	7	B	500	systole
1222.2702000000002	0.108127019542735	100	systole	8	B	500	systole
1223.1401000000003	0.108127019542735	100	systole	9	B	500	systole
1223.97	0.108127019542735	100	systole	10	B	500	systole
1224.8082000000002	0.108127019542735	100	systole	11	B	500	systole
1225.6580999999999	0.108127019542735	100	systole	12	B	500	systole
