onset	duration	trial_num	trial_type	tone_num	tone_type	frequency	response
227.7885	0.0849986371467821	1	diastole	1	A	1578.5670027440333	coherent
227.9586	0.0849986371467821	1	diastole	2	B	500.0	coherent
228.1285	0.0849986371467821	1	diastole	3	A	1578.5670027440333	coherent
228.5399	0.0849986371467821	1	diastole	4	A	1578.5670027440333	coherent
228.7138	0.0849986371467821	1	diastole	5	B	500.0	coherent
228.8875	0.0849986371467821	1	diastole	6	A	1578.5670027440333	coherent
229.2597	0.0849986371467821	1	diastole	7	A	1578.5670027440333	coherent
229.4336	0.0849986371467821	1	diastole	8	B	500.0	coherent
229.6072	0.0849986371467821	1	diastole	9	A	1578.5670027440333	coherent
230.0152	0.0849986371467821	1	diastole	10	A	1578.5670027440333	coherent
230.1953	0.0849986371467821	1	diastole	11	B	500.0	coherent
230.3752	0.0849986371467821	1	diastole	12	A	1578.5670027440333	coherent
230.7352	0.0849986371467821	1	diastole	13	A	1578.5670027440333	coherent
230.9153	0.0849986371467821	1	diastole	14	B	500.0	coherent
231.0952	0.0849986371467821	1	diastole	15	A	1578.5670027440333	coherent
231.4452	0.0849986371467821	1	diastole	16	A	1578.5670027440333	coherent
231.6253	0.0849986371467821	1	diastole	17	B	500.0	coherent
231.8052	0.0849986371467821	1	diastole	18	A	1578.5670027440333	coherent
232.1352	0.0849986371467821	1	diastole	19	A	1578.5670027440333	coherent
232.3153	0.0849986371467821	1	diastole	20	B	500.0	coherent
232.4952	0.0849986371467821	1	diastole	21	A	1578.5670027440333	coherent
232.8051	0.0849986371467821	1	diastole	22	A	1578.5670027440333	coherent
232.9853	0.0849986371467821	1	diastole	23	B	500.0	coherent
233.1651	0.0849986371467821	1	diastole	24	A	1578.5670027440333	coherent
233.5347	0.0849986371467821	1	diastole	25	A	1578.5670027440333	coherent
233.7149	0.0849986371467821	1	diastole	26	B	500.0	coherent
233.8947	0.0849986371467821	1	diastole	27	A	1578.5670027440333	coherent
234.2643	0.0849986371467821	1	diastole	28	A	1578.5670027440333	coherent
234.4445	0.0849986371467821	1	diastole	29	B	500.0	coherent
234.6243	0.0849986371467821	1	diastole	30	A	1578.5670027440333	coherent
235.0445	0.0849986371467821	1	diastole	31	A	1578.5670027440333	coherent
235.2246	0.0849986371467821	1	diastole	32	B	500.0	coherent
235.4045	0.0849986371467821	1	diastole	33	A	1578.5670027440333	coherent
235.8344	0.0849986371467821	1	diastole	34	A	1578.5670027440333	coherent
236.0146	0.0849986371467821	1	diastole	35	B	500.0	coherent
236.1944	0.0849986371467821	1	diastole	36	A	1578.5670027440333	coherent
236.7412	0.0849986371467821	1	diastole	37	A	1578.5670027440333	coherent
236.9226	0.0849986371467821	1	diastole	38	B	500.0	coherent
237.1036	0.0849986371467821	1	diastole	39	A	1578.5670027440333	coherent
253.3797	0.1000057974888477	2	systole	1	A	1578.5670027440333	coherent
253.5776	0.1000057974888477	2	systole	2	B	500.0	coherent
253.7752	0.1000057974888477	2	systole	3	A	1578.5670027440333	coherent
254.0398	0.1000057974888477	2	systole	4	A	1578.5670027440333	coherent
254.2377	0.1000057974888477	2	systole	5	B	500.0	coherent
254.4352	0.1000057974888477	2	systole	6	A	1578.5670027440333	coherent
254.9798	0.1000057974888477	2	systole	7	A	1578.5670027440333	coherent
255.1777	0.1000057974888477	2	systole	8	B	500.0	coherent
255.3752	0.1000057974888477	2	systole	9	A	1578.5670027440333	coherent
255.6915	0.1000057974888477	2	systole	10	A	1578.5670027440333	coherent
255.8816	0.1000057974888477	2	systole	11	B	500.0	coherent
256.0715	0.1000057974888477	2	systole	12	A	1578.5670027440333	coherent
256.4315	0.1000057974888477	2	systole	13	A	1578.5670027440333	coherent
256.6216	0.1000057974888477	2	systole	14	B	500.0	coherent
256.8115	0.1000057974888477	2	systole	15	A	1578.5670027440333	coherent
257.1723	0.1000057974888477	2	systole	16	A	1578.5670027440333	coherent
257.36	0.1000057974888477	2	systole	17	B	500.0	coherent
257.5473	0.1000057974888477	2	systole	18	A	1578.5670027440333	coherent
257.9523	0.1000057974888477	2	systole	19	A	1578.5670027440333	coherent
258.14	0.1000057974888477	2	systole	20	B	500.0	coherent
258.3273	0.1000057974888477	2	systole	21	A	1578.5670027440333	coherent
258.6883	0.1000057974888477	2	systole	22	A	1578.5670027440333	coherent
258.8748	0.1000057974888477	2	systole	23	B	500.0	coherent
259.0609	0.1000057974888477	2	systole	24	A	1578.5670027440333	coherent
259.4284	0.1000057974888477	2	systole	25	A	1578.5670027440333	coherent
259.6148	0.1000057974888477	2	systole	26	B	500.0	coherent
259.801	0.1000057974888477	2	systole	27	A	1578.5670027440333	coherent
260.1643	0.1000057974888477	2	systole	28	A	1578.5670027440333	coherent
260.3495	0.1000057974888477	2	systole	29	B	500.0	coherent
260.5344	0.1000057974888477	2	systole	30	A	1578.5670027440333	coherent
260.854	0.1000057974888477	2	systole	31	A	1578.5670027440333	coherent
261.0393	0.1000057974888477	2	systole	32	B	500.0	coherent
261.2242	0.1000057974888477	2	systole	33	A	1578.5670027440333	coherent
261.5238	0.1000057974888477	2	systole	34	A	1578.5670027440333	coherent
261.709	0.1000057974888477	2	systole	35	B	500.0	coherent
261.8939	0.1000057974888477	2	systole	36	A	1578.5670027440333	coherent
262.1938	0.1000057974888477	2	systole	37	A	1578.5670027440333	coherent
262.379	0.1000057974888477	2	systole	38	B	500.0	coherent
262.5639	0.1000057974888477	2	systole	39	A	1578.5670027440333	coherent
276.4815	0.1031298247980885	3	systole	1	A	2180.0224995339627	coherent
276.6879	0.1031298247980885	3	systole	2	B	500.0	coherent
276.8941	0.1031298247980885	3	systole	3	A	2180.0224995339627	coherent
277.3516	0.1031298247980885	3	systole	4	A	2180.0224995339627	coherent
277.5579	0.1031298247980885	3	systole	5	B	500.0	coherent
277.7641	0.1031298247980885	3	systole	6	A	2180.0224995339627	coherent
278.2661	0.1031298247980885	3	systole	7	A	2180.0224995339627	coherent
278.4737	0.1031298247980885	3	systole	8	B	500.0	coherent
278.6812	0.1031298247980885	3	systole	9	A	2180.0224995339627	coherent
279.1838	0.1031298247980885	3	systole	10	A	2180.0224995339627	coherent
279.3989	0.1031298247980885	3	systole	11	B	500.0	coherent
279.6139	0.1031298247980885	3	systole	12	A	2180.0224995339627	coherent
280.0506	0.1031298247980885	3	systole	13	A	2180.0224995339627	coherent
280.2671	0.1031298247980885	3	systole	14	B	500.0	coherent
280.4835	0.1031298247980885	3	systole	15	A	2180.0224995339627	coherent
280.9122	0.1031298247980885	3	systole	16	A	2180.0224995339627	coherent
281.1287	0.1031298247980885	3	systole	17	B	500.0	coherent
281.3451	0.1031298247980885	3	systole	18	A	2180.0224995339627	coherent
281.7738	0.1031298247980885	3	systole	19	A	2180.0224995339627	coherent
281.9903	0.1031298247980885	3	systole	20	B	500.0	coherent
282.2067	0.1031298247980885	3	systole	21	A	2180.0224995339627	coherent
282.5918	0.1031298247980885	3	systole	22	A	2180.0224995339627	coherent
282.8083	0.1031298247980885	3	systole	23	B	500.0	coherent
283.0248	0.1031298247980885	3	systole	24	A	2180.0224995339627	coherent
283.4099	0.1031298247980885	3	systole	25	A	2180.0224995339627	coherent
283.6263	0.1031298247980885	3	systole	26	B	500.0	coherent
283.8427	0.1031298247980885	3	systole	27	A	2180.0224995339627	coherent
284.2198	0.1031298247980885	3	systole	28	A	2180.0224995339627	coherent
284.4363	0.1031298247980885	3	systole	29	B	500.0	coherent
284.6527	0.1031298247980885	3	systole	30	A	2180.0224995339627	coherent
285.0308	0.1031298247980885	3	systole	31	A	2180.0224995339627	coherent
285.2449	0.1031298247980885	3	systole	32	B	500.0	coherent
285.4588	0.1031298247980885	3	systole	33	A	2180.0224995339627	coherent
288.1761	0.1023776498041115	4	systole	1	A	1987.9452401467304	coherent
288.3808	0.1023776498041115	4	systole	2	B	500.0	coherent
288.5856	0.1023776498041115	4	systole	3	A	1987.9452401467304	coherent
289.0062	0.1023776498041115	4	systole	4	A	1987.9452401467304	coherent
289.2109	0.1023776498041115	4	systole	5	B	500.0	coherent
289.4157	0.1023776498041115	4	systole	6	A	1987.9452401467304	coherent
289.846	0.1023776498041115	4	systole	7	A	1987.9452401467304	coherent
290.0533	0.1023776498041115	4	systole	8	B	500.0	coherent
290.2608	0.1023776498041115	4	systole	9	A	1987.9452401467304	coherent
290.6659	0.1023776498041115	4	systole	10	A	1987.9452401467304	coherent
290.8733	0.1023776498041115	4	systole	11	B	500.0	coherent
291.0808	0.1023776498041115	4	systole	12	A	1987.9452401467304	coherent
291.4859	0.1023776498041115	4	systole	13	A	1987.9452401467304	coherent
291.6933	0.1023776498041115	4	systole	14	B	500.0	coherent
291.9008	0.1023776498041115	4	systole	15	A	1987.9452401467304	coherent
292.3059	0.1023776498041115	4	systole	16	A	1987.9452401467304	coherent
292.5133	0.1023776498041115	4	systole	17	B	500.0	coherent
292.7208	0.1023776498041115	4	systole	18	A	1987.9452401467304	coherent
293.1362	0.1023776498041115	4	systole	19	A	1987.9452401467304	coherent
293.3437	0.1023776498041115	4	systole	20	B	500.0	coherent
293.5512	0.1023776498041115	4	systole	21	A	1987.9452401467304	coherent
293.9279	0.1023776498041115	4	systole	22	A	1987.9452401467304	coherent
294.1353	0.1023776498041115	4	systole	23	B	500.0	coherent
294.3429	0.1023776498041115	4	systole	24	A	1987.9452401467304	coherent
294.6914	0.1023776498041115	4	systole	25	A	1987.9452401467304	coherent
294.8976	0.1023776498041115	4	systole	26	B	500.0	coherent
295.1039	0.1023776498041115	4	systole	27	A	1987.9452401467304	coherent
295.4914	0.1023776498041115	4	systole	28	A	1987.9452401467304	coherent
295.6976	0.1023776498041115	4	systole	29	B	500.0	coherent
295.9039	0.1023776498041115	4	systole	30	A	1987.9452401467304	coherent
296.2914	0.1023776498041115	4	systole	31	A	1987.9452401467304	coherent
296.4976	0.1023776498041115	4	systole	32	B	500.0	coherent
296.7039	0.1023776498041115	4	systole	33	A	1987.9452401467304	coherent
297.1233	0.1023776498041115	4	systole	34	A	1987.9452401467304	coherent
297.3295	0.1023776498041115	4	systole	35	B	500.0	coherent
297.5358	0.1023776498041115	4	systole	36	A	1987.9452401467304	coherent
317.4974	0.1087475194362923	6	diastole	1	A	2180.0224995339627	coherent
317.715	0.1087475194362923	6	diastole	2	B	500.0	coherent
317.9324	0.1087475194362923	6	diastole	3	A	2180.0224995339627	coherent
318.4077	0.1087475194362923	6	diastole	4	A	2180.0224995339627	coherent
318.6253	0.1087475194362923	6	diastole	5	B	500.0	coherent
318.8427	0.1087475194362923	6	diastole	6	A	2180.0224995339627	coherent
319.3181	0.1087475194362923	6	diastole	7	A	2180.0224995339627	coherent
319.5356	0.1087475194362923	6	diastole	8	B	500.0	coherent
319.7531	0.1087475194362923	6	diastole	9	A	2180.0224995339627	coherent
320.208	0.1087475194362923	6	diastole	10	A	2180.0224995339627	coherent
320.4255	0.1087475194362923	6	diastole	11	B	500.0	coherent
320.643	0.1087475194362923	6	diastole	12	A	2180.0224995339627	coherent
321.1348	0.1087475194362923	6	diastole	13	A	2180.0224995339627	coherent
321.3536	0.1087475194362923	6	diastole	14	B	500.0	coherent
321.5722	0.1087475194362923	6	diastole	15	A	2180.0224995339627	coherent
321.9849	0.1087475194362923	6	diastole	16	A	2180.0224995339627	coherent
322.2036	0.1087475194362923	6	diastole	17	B	500.0	coherent
322.4223	0.1087475194362923	6	diastole	18	A	2180.0224995339627	coherent
322.8349	0.1087475194362923	6	diastole	19	A	2180.0224995339627	coherent
323.0537	0.1087475194362923	6	diastole	20	B	500.0	coherent
323.2724	0.1087475194362923	6	diastole	21	A	2180.0224995339627	coherent
323.685	0.1087475194362923	6	diastole	22	A	2180.0224995339627	coherent
323.9037	0.1087475194362923	6	diastole	23	B	500.0	coherent
324.1224	0.1087475194362923	6	diastole	24	A	2180.0224995339627	coherent
324.5049	0.1087475194362923	6	diastole	25	A	2180.0224995339627	coherent
324.7237	0.1087475194362923	6	diastole	26	B	500.0	coherent
324.9424	0.1087475194362923	6	diastole	27	A	2180.0224995339627	coherent
325.4486	0.1087475194362923	6	diastole	28	A	2180.0224995339627	coherent
325.6699	0.1087475194362923	6	diastole	29	B	500.0	coherent
325.891	0.1087475194362923	6	diastole	30	A	2180.0224995339627	coherent
328.5973	0.101247349899495	7	systole	1	A	2446.423693900757	coherent
328.8	0.101247349899495	7	systole	2	B	500.0	coherent
329.0023	0.101247349899495	7	systole	3	A	2446.423693900757	coherent
329.4674	0.101247349899495	7	systole	4	A	2446.423693900757	coherent
329.6701	0.101247349899495	7	systole	5	B	500.0	coherent
329.8724	0.101247349899495	7	systole	6	A	2446.423693900757	coherent
330.2874	0.101247349899495	7	systole	7	A	2446.423693900757	coherent
330.49	0.101247349899495	7	systole	8	B	500.0	coherent
330.6924	0.101247349899495	7	systole	9	A	2446.423693900757	coherent
331.1074	0.101247349899495	7	systole	10	A	2446.423693900757	coherent
331.3101	0.101247349899495	7	systole	11	B	500.0	coherent
331.5124	0.101247349899495	7	systole	12	A	2446.423693900757	coherent
331.897	0.101247349899495	7	systole	13	A	2446.423693900757	coherent
332.0997	0.101247349899495	7	systole	14	B	500.0	coherent
332.302	0.101247349899495	7	systole	15	A	2446.423693900757	coherent
332.6866	0.101247349899495	7	systole	16	A	2446.423693900757	coherent
332.8892	0.101247349899495	7	systole	17	B	500.0	coherent
333.0916	0.101247349899495	7	systole	18	A	2446.423693900757	coherent
333.4229	0.101247349899495	7	systole	19	A	2446.423693900757	coherent
333.6218	0.101247349899495	7	systole	20	B	500.0	coherent
333.8204	0.101247349899495	7	systole	21	A	2446.423693900757	coherent
334.1929	0.101247349899495	7	systole	22	A	2446.423693900757	coherent
334.3918	0.101247349899495	7	systole	23	B	500.0	coherent
334.5904	0.101247349899495	7	systole	24	A	2446.423693900757	coherent
334.9629	0.101247349899495	7	systole	25	A	2446.423693900757	coherent
335.1618	0.101247349899495	7	systole	26	B	500.0	coherent
335.3604	0.101247349899495	7	systole	27	A	2446.423693900757	coherent
335.812	0.101247349899495	7	systole	28	A	2446.423693900757	coherent
336.0134	0.101247349899495	7	systole	29	B	500.0	coherent
336.2145	0.101247349899495	7	systole	30	A	2446.423693900757	coherent
336.652	0.101247349899495	7	systole	31	A	2446.423693900757	coherent
336.8534	0.101247349899495	7	systole	32	B	500.0	coherent
337.0545	0.101247349899495	7	systole	33	A	2446.423693900757	coherent
337.542	0.101247349899495	7	systole	34	A	2446.423693900757	coherent
337.7434	0.101247349899495	7	systole	35	B	500.0	coherent
337.9445	0.101247349899495	7	systole	36	A	2446.423693900757	coherent
340.9313	0.1031248824729118	8	systole	1	A	3538.000656405778	coherent
341.1375	0.1031248824729118	8	systole	2	B	500.0	coherent
341.3438	0.1031248824729118	8	systole	3	A	3538.000656405778	coherent
341.7413	0.1031248824729118	8	systole	4	A	3538.000656405778	coherent
341.9475	0.1031248824729118	8	systole	5	B	500.0	coherent
342.1538	0.1031248824729118	8	systole	6	A	3538.000656405778	coherent
342.5513	0.1031248824729118	8	systole	7	A	3538.000656405778	coherent
342.7575	0.1031248824729118	8	systole	8	B	500.0	coherent
342.9638	0.1031248824729118	8	systole	9	A	3538.000656405778	coherent
343.2713	0.1031248824729118	8	systole	10	A	3538.000656405778	coherent
343.4775	0.1031248824729118	8	systole	11	B	500.0	coherent
343.6838	0.1031248824729118	8	systole	12	A	3538.000656405778	coherent
343.9917	0.1031248824729118	8	systole	13	A	3538.000656405778	coherent
344.1979	0.1031248824729118	8	systole	14	B	500.0	coherent
344.4042	0.1031248824729118	8	systole	15	A	3538.000656405778	coherent
344.8676	0.1031248824729118	8	systole	16	A	3538.000656405778	coherent
345.07	0.1031248824729118	8	systole	17	B	500.0	coherent
345.2726	0.1031248824729118	8	systole	18	A	3538.000656405778	coherent
345.8095	0.1031248824729118	8	systole	19	A	3538.000656405778	coherent
346.012	0.1031248824729118	8	systole	20	B	500.0	coherent
346.2145	0.1031248824729118	8	systole	21	A	3538.000656405778	coherent
346.7895	0.1031248824729118	8	systole	22	A	3538.000656405778	coherent
346.992	0.1031248824729118	8	systole	23	B	500.0	coherent
347.1945	0.1031248824729118	8	systole	24	A	3538.000656405778	coherent
347.7477	0.1031248824729118	8	systole	25	A	3538.000656405778	coherent
347.9501	0.1031248824729118	8	systole	26	B	500.0	coherent
348.1527	0.1031248824729118	8	systole	27	A	3538.000656405778	coherent
348.7241	0.1031248824729118	8	systole	28	A	3538.000656405778	coherent
348.9366	0.1031248824729118	8	systole	29	B	500.0	coherent
349.1491	0.1031248824729118	8	systole	30	A	3538.000656405778	coherent
349.7437	0.1031248824729118	8	systole	31	A	3538.000656405778	coherent
349.9724	0.1031248824729118	8	systole	32	B	500.0	coherent
350.2011	0.1031248824729118	8	systole	33	A	3538.000656405778	coherent
353.4486	0.1150005311938002	9	diastole	1	A	1987.9452401467304	coherent
353.6786	0.1150005311938002	9	diastole	2	B	500.0	coherent
353.9086	0.1150005311938002	9	diastole	3	A	1987.9452401467304	coherent
354.2486	0.1150005311938002	9	diastole	4	A	1987.9452401467304	coherent
354.4786	0.1150005311938002	9	diastole	5	B	500.0	coherent
354.7087	0.1150005311938002	9	diastole	6	A	1987.9452401467304	coherent
354.9786	0.1150005311938002	9	diastole	7	A	1987.9452401467304	coherent
355.2086	0.1150005311938002	9	diastole	8	B	500.0	coherent
355.4386	0.1150005311938002	9	diastole	9	A	1987.9452401467304	coherent
355.658	0.1150005311938002	9	diastole	10	A	1987.9452401467304	coherent
355.8755	0.1150005311938002	9	diastole	11	B	500.0	coherent
356.0931	0.1150005311938002	9	diastole	12	A	1987.9452401467304	coherent
356.3512	0.1150005311938002	9	diastole	13	A	1987.9452401467304	coherent
356.5587	0.1150005311938002	9	diastole	14	B	500.0	coherent
356.7663	0.1150005311938002	9	diastole	15	A	1987.9452401467304	coherent
357.0745	0.1150005311938002	9	diastole	16	A	1987.9452401467304	coherent
357.272	0.1150005311938002	9	diastole	17	B	500.0	coherent
357.4695	0.1150005311938002	9	diastole	18	A	1987.9452401467304	coherent
357.8545	0.1150005311938002	9	diastole	19	A	1987.9452401467304	coherent
358.052	0.1150005311938002	9	diastole	20	B	500.0	coherent
358.2495	0.1150005311938002	9	diastole	21	A	1987.9452401467304	coherent
358.6844	0.1150005311938002	9	diastole	22	A	1987.9452401467304	coherent
358.8819	0.1150005311938002	9	diastole	23	B	500.0	coherent
359.0794	0.1150005311938002	9	diastole	24	A	1987.9452401467304	coherent
359.5744	0.1150005311938002	9	diastole	25	A	1987.9452401467304	coherent
359.7718	0.1150005311938002	9	diastole	26	B	500.0	coherent
359.9694	0.1150005311938002	9	diastole	27	A	1987.9452401467304	coherent
360.4044	0.1150005311938002	9	diastole	28	A	1987.9452401467304	coherent
360.6019	0.1150005311938002	9	diastole	29	B	500.0	coherent
360.7995	0.1150005311938002	9	diastole	30	A	1987.9452401467304	coherent
361.2044	0.1150005311938002	9	diastole	31	A	1987.9452401467304	coherent
361.4018	0.1150005311938002	9	diastole	32	B	500.0	coherent
361.5994	0.1150005311938002	9	diastole	33	A	1987.9452401467304	coherent
361.9343	0.1150005311938002	9	diastole	34	A	1987.9452401467304	coherent
362.1318	0.1150005311938002	9	diastole	35	B	500.0	coherent
362.3293	0.1150005311938002	9	diastole	36	A	1987.9452401467304	coherent
364.8864	0.1018658417742699	10	systole	1	A	2942.014383864825	coherent
365.0777	0.1018658417742699	10	systole	2	B	500.0	coherent
365.2689	0.1018658417742699	10	systole	3	A	2942.014383864825	coherent
365.5764	0.1018658417742699	10	systole	4	A	2942.014383864825	coherent
365.7677	0.1018658417742699	10	systole	5	B	500.0	coherent
365.9589	0.1018658417742699	10	systole	6	A	2942.014383864825	coherent
366.4864	0.1018658417742699	10	systole	7	A	2942.014383864825	coherent
366.6777	0.1018658417742699	10	systole	8	B	500.0	coherent
366.8689	0.1018658417742699	10	systole	9	A	2942.014383864825	coherent
367.3663	0.1018658417742699	10	systole	10	A	2942.014383864825	coherent
367.5575	0.1018658417742699	10	systole	11	B	500.0	coherent
367.7488	0.1018658417742699	10	systole	12	A	2942.014383864825	coherent
368.2462	0.1018658417742699	10	systole	13	A	2942.014383864825	coherent
368.4374	0.1018658417742699	10	systole	14	B	500.0	coherent
368.6287	0.1018658417742699	10	systole	15	A	2942.014383864825	coherent
369.2141	0.1018658417742699	10	systole	16	A	2942.014383864825	coherent
369.4266	0.1018658417742699	10	systole	17	B	500.0	coherent
369.6391	0.1018658417742699	10	systole	18	A	2942.014383864825	coherent
370.1041	0.1018658417742699	10	systole	19	A	2942.014383864825	coherent
370.3166	0.1018658417742699	10	systole	20	B	500.0	coherent
370.5291	0.1018658417742699	10	systole	21	A	2942.014383864825	coherent
370.8986	0.1018658417742699	10	systole	22	A	2942.014383864825	coherent
371.1124	0.1018658417742699	10	systole	23	B	500.0	coherent
371.3261	0.1018658417742699	10	systole	24	A	2942.014383864825	coherent
371.6887	0.1018658417742699	10	systole	25	A	2942.014383864825	coherent
371.9024	0.1018658417742699	10	systole	26	B	500.0	coherent
372.1162	0.1018658417742699	10	systole	27	A	2942.014383864825	coherent
372.4288	0.1018658417742699	10	systole	28	A	2942.014383864825	coherent
372.6426	0.1018658417742699	10	systole	29	B	500.0	coherent
372.8563	0.1018658417742699	10	systole	30	A	2942.014383864825	coherent
373.1396	0.1018658417742699	10	systole	31	A	2942.014383864825	coherent
373.3509	0.1018658417742699	10	systole	32	B	500.0	coherent
373.5621	0.1018658417742699	10	systole	33	A	2942.014383864825	coherent
373.8067	0.1018658417742699	10	systole	34	A	2942.014383864825	coherent
374.0117	0.1018658417742699	10	systole	35	B	500.0	coherent
374.2167	0.1018658417742699	10	systole	36	A	2942.014383864825	coherent
382.7026	0.1087506648036651	11	systole	1	A	3152.7331318609326	coherent
382.9202	0.1087506648036651	11	systole	2	B	500.0	coherent
383.1376	0.1087506648036651	11	systole	3	A	3152.7331318609326	coherent
383.4924	0.1087506648036651	11	systole	4	A	3152.7331318609326	coherent
383.71	0.1087506648036651	11	systole	5	B	500.0	coherent
383.9274	0.1087506648036651	11	systole	6	A	3152.7331318609326	coherent
384.2124	0.1087506648036651	11	systole	7	A	3152.7331318609326	coherent
384.43	0.1087506648036651	11	systole	8	B	500.0	coherent
384.6474	0.1087506648036651	11	systole	9	A	3152.7331318609326	coherent
384.9325	0.1087506648036651	11	systole	10	A	3152.7331318609326	coherent
385.1501	0.1087506648036651	11	systole	11	B	500.0	coherent
385.3675	0.1087506648036651	11	systole	12	A	3152.7331318609326	coherent
385.6525	0.1087506648036651	11	systole	13	A	3152.7331318609326	coherent
385.8701	0.1087506648036651	11	systole	14	B	500.0	coherent
386.0875	0.1087506648036651	11	systole	15	A	3152.7331318609326	coherent
386.3559	0.1087506648036651	11	systole	16	A	3152.7331318609326	coherent
386.5635	0.1087506648036651	11	systole	17	B	500.0	coherent
386.7709	0.1087506648036651	11	systole	18	A	3152.7331318609326	coherent
387.2567	0.1087506648036651	11	systole	19	A	3152.7331318609326	coherent
387.4618	0.1087506648036651	11	systole	20	B	500.0	coherent
387.6667	0.1087506648036651	11	systole	21	A	3152.7331318609326	coherent
388.1667	0.1087506648036651	11	systole	22	A	3152.7331318609326	coherent
388.3718	0.1087506648036651	11	systole	23	B	500.0	coherent
388.5767	0.1087506648036651	11	systole	24	A	3152.7331318609326	coherent
389.0767	0.1087506648036651	11	systole	25	A	3152.7331318609326	coherent
389.2818	0.1087506648036651	11	systole	26	B	500.0	coherent
389.4867	0.1087506648036651	11	systole	27	A	3152.7331318609326	coherent
389.9866	0.1087506648036651	11	systole	28	A	3152.7331318609326	coherent
390.1917	0.1087506648036651	11	systole	29	B	500.0	coherent
390.3966	0.1087506648036651	11	systole	30	A	3152.7331318609326	coherent
390.9232	0.1087506648036651	11	systole	31	A	3152.7331318609326	coherent
391.1383	0.1087506648036651	11	systole	32	B	500.0	coherent
391.3532	0.1087506648036651	11	systole	33	A	3152.7331318609326	coherent
391.8232	0.1087506648036651	11	systole	34	A	3152.7331318609326	coherent
392.0383	0.1087506648036651	11	systole	35	B	500.0	coherent
392.2532	0.1087506648036651	11	systole	36	A	3152.7331318609326	coherent
394.7917	0.1100031855748966	12	diastole	1	A	2942.014383864825	coherent
395.0118	0.1100031855748966	12	diastole	2	B	500.0	coherent
395.2317	0.1100031855748966	12	diastole	3	A	2942.014383864825	coherent
395.5718	0.1100031855748966	12	diastole	4	A	2942.014383864825	coherent
395.7918	0.1100031855748966	12	diastole	5	B	500.0	coherent
396.0118	0.1100031855748966	12	diastole	6	A	2942.014383864825	coherent
396.3518	0.1100031855748966	12	diastole	7	A	2942.014383864825	coherent
396.5718	0.1100031855748966	12	diastole	8	B	500.0	coherent
396.7918	0.1100031855748966	12	diastole	9	A	2942.014383864825	coherent
397.0309	0.1100031855748966	12	diastole	10	A	2942.014383864825	coherent
397.2384	0.1100031855748966	12	diastole	11	B	500.0	coherent
397.4458	0.1100031855748966	12	diastole	12	A	2942.014383864825	coherent
397.7809	0.1100031855748966	12	diastole	13	A	2942.014383864825	coherent
397.9884	0.1100031855748966	12	diastole	14	B	500.0	coherent
398.1958	0.1100031855748966	12	diastole	15	A	2942.014383864825	coherent
398.3701	0.1100031855748966	12	diastole	16	A	2942.014383864825	coherent
398.5651	0.1100031855748966	12	diastole	17	B	500.0	coherent
398.7601	0.1100031855748966	12	diastole	18	A	2942.014383864825	coherent
398.993	0.1100031855748966	12	diastole	19	A	2942.014383864825	coherent
399.1868	0.1100031855748966	12	diastole	20	B	500.0	coherent
399.3805	0.1100031855748966	12	diastole	21	A	2942.014383864825	coherent
399.6017	0.1100031855748966	12	diastole	22	A	2942.014383864825	coherent
399.7917	0.1100031855748966	12	diastole	23	B	500.0	coherent
399.9817	0.1100031855748966	12	diastole	24	A	2942.014383864825	coherent
400.2271	0.1100031855748966	12	diastole	25	A	2942.014383864825	coherent
400.4022	0.1100031855748966	12	diastole	26	B	500.0	coherent
400.5772	0.1100031855748966	12	diastole	27	A	2942.014383864825	coherent
400.9373	0.1100031855748966	12	diastole	28	A	2942.014383864825	coherent
401.1124	0.1100031855748966	12	diastole	29	B	500.0	coherent
401.2874	0.1100031855748966	12	diastole	30	A	2942.014383864825	coherent
401.7173	0.1100031855748966	12	diastole	31	A	2942.014383864825	coherent
401.8924	0.1100031855748966	12	diastole	32	B	500.0	coherent
402.0674	0.1100031855748966	12	diastole	33	A	2942.014383864825	coherent
402.5471	0.1100031855748966	12	diastole	34	A	2942.014383864825	coherent
402.7222	0.1100031855748966	12	diastole	35	B	500.0	coherent
402.8972	0.1100031855748966	12	diastole	36	A	2942.014383864825	coherent
403.3769	0.1100031855748966	12	diastole	37	A	2942.014383864825	coherent
403.552	0.1100031855748966	12	diastole	38	B	500.0	coherent
403.727	0.1100031855748966	12	diastole	39	A	2942.014383864825	coherent
407.0729	0.1006265278847422	13	systole	1	A	4062.961875947593	coherent
407.2742	0.1006265278847422	13	systole	2	B	500.0	coherent
407.4754	0.1006265278847422	13	systole	3	A	4062.961875947593	coherent
407.7928	0.1006265278847422	13	systole	4	A	4062.961875947593	coherent
407.9942	0.1006265278847422	13	systole	5	B	500.0	coherent
408.1953	0.1006265278847422	13	systole	6	A	4062.961875947593	coherent
408.5128	0.1006265278847422	13	systole	7	A	4062.961875947593	coherent
408.7142	0.1006265278847422	13	systole	8	B	500.0	coherent
408.9153	0.1006265278847422	13	systole	9	A	4062.961875947593	coherent
409.2329	0.1006265278847422	13	systole	10	A	4062.961875947593	coherent
409.4342	0.1006265278847422	13	systole	11	B	500.0	coherent
409.6354	0.1006265278847422	13	systole	12	A	4062.961875947593	coherent
409.9161	0.1006265278847422	13	systole	13	A	4062.961875947593	coherent
410.1075	0.1006265278847422	13	systole	14	B	500.0	coherent
410.2986	0.1006265278847422	13	systole	15	A	4062.961875947593	coherent
410.6686	0.1006265278847422	13	systole	16	A	4062.961875947593	coherent
410.8525	0.1006265278847422	13	systole	17	B	500.0	coherent
411.0361	0.1006265278847422	13	systole	18	A	4062.961875947593	coherent
411.4487	0.1006265278847422	13	systole	19	A	4062.961875947593	coherent
411.6325	0.1006265278847422	13	systole	20	B	500.0	coherent
411.8162	0.1006265278847422	13	systole	21	A	4062.961875947593	coherent
412.2287	0.1006265278847422	13	systole	22	A	4062.961875947593	coherent
412.4126	0.1006265278847422	13	systole	23	B	500.0	coherent
412.5962	0.1006265278847422	13	systole	24	A	4062.961875947593	coherent
413.159	0.1006265278847422	13	systole	25	A	4062.961875947593	coherent
413.3428	0.1006265278847422	13	systole	26	B	500.0	coherent
413.5265	0.1006265278847422	13	systole	27	A	4062.961875947593	coherent
414.0686	0.1006265278847422	13	systole	28	A	4062.961875947593	coherent
414.2525	0.1006265278847422	13	systole	29	B	500.0	coherent
414.4361	0.1006265278847422	13	systole	30	A	4062.961875947593	coherent
414.9783	0.1006265278847422	13	systole	31	A	4062.961875947593	coherent
415.1621	0.1006265278847422	13	systole	32	B	500.0	coherent
415.3457	0.1006265278847422	13	systole	33	A	4062.961875947593	coherent
415.9158	0.1006265278847422	13	systole	34	A	4062.961875947593	coherent
416.1208	0.1006265278847422	13	systole	35	B	500.0	coherent
416.3257	0.1006265278847422	13	systole	36	A	4062.961875947593	coherent
418.8548	0.1049783117778133	14	diastole	1	A	2446.423693900757	coherent
419.0649	0.1049783117778133	14	diastole	2	B	500.0	coherent
419.2747	0.1049783117778133	14	diastole	3	A	2446.423693900757	coherent
419.5948	0.1049783117778133	14	diastole	4	A	2446.423693900757	coherent
419.8049	0.1049783117778133	14	diastole	5	B	500.0	coherent
420.0147	0.1049783117778133	14	diastole	6	A	2446.423693900757	coherent
420.3348	0.1049783117778133	14	diastole	7	A	2446.423693900757	coherent
420.545	0.1049783117778133	14	diastole	8	B	500.0	coherent
420.7548	0.1049783117778133	14	diastole	9	A	2446.423693900757	coherent
421.0656	0.1049783117778133	14	diastole	10	A	2446.423693900757	coherent
421.267	0.1049783117778133	14	diastole	11	B	500.0	coherent
421.4681	0.1049783117778133	14	diastole	12	A	2446.423693900757	coherent
421.8171	0.1049783117778133	14	diastole	13	A	2446.423693900757	coherent
422.0135	0.1049783117778133	14	diastole	14	B	500.0	coherent
422.2096	0.1049783117778133	14	diastole	15	A	2446.423693900757	coherent
422.5968	0.1049783117778133	14	diastole	16	A	2446.423693900757	coherent
422.7933	0.1049783117778133	14	diastole	17	B	500.0	coherent
422.9894	0.1049783117778133	14	diastole	18	A	2446.423693900757	coherent
423.2995	0.1049783117778133	14	diastole	19	A	2446.423693900757	coherent
423.4946	0.1049783117778133	14	diastole	20	B	500.0	coherent
423.6895	0.1049783117778133	14	diastole	21	A	2446.423693900757	coherent
423.973	0.1049783117778133	14	diastole	22	A	2446.423693900757	coherent
424.1582	0.1049783117778133	14	diastole	23	B	500.0	coherent
424.343	0.1049783117778133	14	diastole	24	A	2446.423693900757	coherent
424.733	0.1049783117778133	14	diastole	25	A	2446.423693900757	coherent
424.9182	0.1049783117778133	14	diastole	26	B	500.0	coherent
425.1031	0.1049783117778133	14	diastole	27	A	2446.423693900757	coherent
425.483	0.1049783117778133	14	diastole	28	A	2446.423693900757	coherent
425.6682	0.1049783117778133	14	diastole	29	B	500.0	coherent
425.853	0.1049783117778133	14	diastole	30	A	2446.423693900757	coherent
426.2231	0.1049783117778133	14	diastole	31	A	2446.423693900757	coherent
426.4083	0.1049783117778133	14	diastole	32	B	500.0	coherent
426.5931	0.1049783117778133	14	diastole	33	A	2446.423693900757	coherent
427.0544	0.1049783117778133	14	diastole	34	A	2446.423693900757	coherent
427.2433	0.1049783117778133	14	diastole	35	B	500.0	coherent
427.4319	0.1049783117778133	14	diastole	36	A	2446.423693900757	coherent
427.8645	0.1049783117778133	14	diastole	37	A	2446.423693900757	coherent
428.0534	0.1049783117778133	14	diastole	38	B	500.0	coherent
428.242	0.1049783117778133	14	diastole	39	A	2446.423693900757	coherent
431.4105	0.093749896826921	15	diastole	1	A	3538.000656405778	coherent
431.5967	0.093749896826921	15	diastole	2	B	500.0	coherent
431.783	0.093749896826921	15	diastole	3	A	3538.000656405778	coherent
432.1305	0.093749896826921	15	diastole	4	A	3538.000656405778	coherent
432.3167	0.093749896826921	15	diastole	5	B	500.0	coherent
432.503	0.093749896826921	15	diastole	6	A	3538.000656405778	coherent
432.8907	0.093749896826921	15	diastole	7	A	3538.000656405778	coherent
433.077	0.093749896826921	15	diastole	8	B	500.0	coherent
433.2633	0.093749896826921	15	diastole	9	A	3538.000656405778	coherent
433.7089	0.093749896826921	15	diastole	10	A	3538.000656405778	coherent
433.8966	0.093749896826921	15	diastole	11	B	500.0	coherent
434.0844	0.093749896826921	15	diastole	12	A	3538.000656405778	coherent
434.5189	0.093749896826921	15	diastole	13	A	3538.000656405778	coherent
434.7066	0.093749896826921	15	diastole	14	B	500.0	coherent
434.8944	0.093749896826921	15	diastole	15	A	3538.000656405778	coherent
435.3861	0.093749896826921	15	diastole	16	A	3538.000656405778	coherent
435.5751	0.093749896826921	15	diastole	17	B	500.0	coherent
435.7641	0.093749896826921	15	diastole	18	A	3538.000656405778	coherent
436.2974	0.093749896826921	15	diastole	19	A	3538.000656405778	coherent
436.4937	0.093749896826921	15	diastole	20	B	500.0	coherent
436.69	0.093749896826921	15	diastole	21	A	3538.000656405778	coherent
437.1698	0.093749896826921	15	diastole	22	A	3538.000656405778	coherent
437.3735	0.093749896826921	15	diastole	23	B	500.0	coherent
437.5773	0.093749896826921	15	diastole	24	A	3538.000656405778	coherent
437.9969	0.093749896826921	15	diastole	25	A	3538.000656405778	coherent
438.2018	0.093749896826921	15	diastole	26	B	500.0	coherent
438.4069	0.093749896826921	15	diastole	27	A	3538.000656405778	coherent
438.8069	0.093749896826921	15	diastole	28	A	3538.000656405778	coherent
439.0118	0.093749896826921	15	diastole	29	B	500.0	coherent
439.2168	0.093749896826921	15	diastole	30	A	3538.000656405778	coherent
439.5668	0.093749896826921	15	diastole	31	A	3538.000656405778	coherent
439.7718	0.093749896826921	15	diastole	32	B	500.0	coherent
439.9768	0.093749896826921	15	diastole	33	A	3538.000656405778	coherent
443.0238	0.1031250910600647	16	diastole	1	A	2942.014383864825	coherent
443.2301	0.1031250910600647	16	diastole	2	B	500.0	coherent
443.4363	0.1031250910600647	16	diastole	3	A	2942.014383864825	coherent
443.8938	0.1031250910600647	16	diastole	4	A	2942.014383864825	coherent
444.1001	0.1031250910600647	16	diastole	5	B	500.0	coherent
444.3063	0.1031250910600647	16	diastole	6	A	2942.014383864825	coherent
444.6553	0.1031250910600647	16	diastole	7	A	2942.014383864825	coherent
444.8566	0.1031250910600647	16	diastole	8	B	500.0	coherent
445.0579	0.1031250910600647	16	diastole	9	A	2942.014383864825	coherent
445.445	0.1031250910600647	16	diastole	10	A	2942.014383864825	coherent
445.6463	0.1031250910600647	16	diastole	11	B	500.0	coherent
445.8475	0.1031250910600647	16	diastole	12	A	2942.014383864825	coherent
446.2347	0.1031250910600647	16	diastole	13	A	2942.014383864825	coherent
446.436	0.1031250910600647	16	diastole	14	B	500.0	coherent
446.6372	0.1031250910600647	16	diastole	15	A	2942.014383864825	coherent
447.0577	0.1031250910600647	16	diastole	16	A	2942.014383864825	coherent
447.2578	0.1031250910600647	16	diastole	17	B	500.0	coherent
447.4578	0.1031250910600647	16	diastole	18	A	2942.014383864825	coherent
447.8475	0.1031250910600647	16	diastole	19	A	2942.014383864825	coherent
448.0476	0.1031250910600647	16	diastole	20	B	500.0	coherent
448.2475	0.1031250910600647	16	diastole	21	A	2942.014383864825	coherent
448.6578	0.1031250910600647	16	diastole	22	A	2942.014383864825	coherent
448.8578	0.1031250910600647	16	diastole	23	B	500.0	coherent
449.0578	0.1031250910600647	16	diastole	24	A	2942.014383864825	coherent
449.4918	0.1031250910600647	16	diastole	25	A	2942.014383864825	coherent
449.6943	0.1031250910600647	16	diastole	26	B	500.0	coherent
449.8968	0.1031250910600647	16	diastole	27	A	2942.014383864825	coherent
450.3017	0.1031250910600647	16	diastole	28	A	2942.014383864825	coherent
450.5042	0.1031250910600647	16	diastole	29	B	500.0	coherent
450.7067	0.1031250910600647	16	diastole	30	A	2942.014383864825	coherent
451.1117	0.1031250910600647	16	diastole	31	A	2942.014383864825	coherent
451.3142	0.1031250910600647	16	diastole	32	B	500.0	coherent
451.5167	0.1031250910600647	16	diastole	33	A	2942.014383864825	coherent
451.9217	0.1031250910600647	16	diastole	34	A	2942.014383864825	coherent
452.1242	0.1031250910600647	16	diastole	35	B	500.0	coherent
452.3267	0.1031250910600647	16	diastole	36	A	2942.014383864825	coherent
455.3829	0.1012479689961765	17	systole	1	A	3538.000656405778	streaming
455.5841	0.1012479689961765	17	systole	2	B	500.0	streaming
455.7854	0.1012479689961765	17	systole	3	A	3538.000656405778	streaming
456.1226	0.1012479689961765	17	systole	4	A	3538.000656405778	streaming
456.3238	0.1012479689961765	17	systole	5	B	500.0	streaming
456.5251	0.1012479689961765	17	systole	6	A	3538.000656405778	streaming
456.8639	0.1012479689961765	17	systole	7	A	3538.000656405778	streaming
457.0601	0.1012479689961765	17	systole	8	B	500.0	streaming
457.2564	0.1012479689961765	17	systole	9	A	3538.000656405778	streaming
457.6235	0.1012479689961765	17	systole	10	A	3538.000656405778	streaming
457.8197	0.1012479689961765	17	systole	11	B	500.0	streaming
458.016	0.1012479689961765	17	systole	12	A	3538.000656405778	streaming
458.3893	0.1012479689961765	17	systole	13	A	3538.000656405778	streaming
458.5843	0.1012479689961765	17	systole	14	B	500.0	streaming
458.7793	0.1012479689961765	17	systole	15	A	3538.000656405778	streaming
459.1149	0.1012479689961765	17	systole	16	A	3538.000656405778	streaming
459.3087	0.1012479689961765	17	systole	17	B	500.0	streaming
459.5026	0.1012479689961765	17	systole	18	A	3538.000656405778	streaming
459.8452	0.1012479689961765	17	systole	19	A	3538.000656405778	streaming
460.0364	0.1012479689961765	17	systole	20	B	500.0	streaming
460.2277	0.1012479689961765	17	systole	21	A	3538.000656405778	streaming
460.5661	0.1012479689961765	17	systole	22	A	3538.000656405778	streaming
460.7548	0.1012479689961765	17	systole	23	B	500.0	streaming
460.9436	0.1012479689961765	17	systole	24	A	3538.000656405778	streaming
461.2961	0.1012479689961765	17	systole	25	A	3538.000656405778	streaming
461.4848	0.1012479689961765	17	systole	26	B	500.0	streaming
461.6736	0.1012479689961765	17	systole	27	A	3538.000656405778	streaming
462.0261	0.1012479689961765	17	systole	28	A	3538.000656405778	streaming
462.2149	0.1012479689961765	17	systole	29	B	500.0	streaming
462.4036	0.1012479689961765	17	systole	30	A	3538.000656405778	streaming
462.8021	0.1012479689961765	17	systole	31	A	3538.000656405778	streaming
462.9896	0.1012479689961765	17	systole	32	B	500.0	streaming
463.1772	0.1012479689961765	17	systole	33	A	3538.000656405778	streaming
463.6865	0.1012479689961765	17	systole	34	A	3538.000656405778	streaming
463.8752	0.1012479689961765	17	systole	35	B	500.0	streaming
464.064	0.1012479689961765	17	systole	36	A	3538.000656405778	streaming
467.5786	0.1068534874357283	18	systole	1	A	2390.658456026444	streaming
467.7924	0.1068534874357283	18	systole	2	B	500.0	streaming
468.006	0.1068534874357283	18	systole	3	A	2390.658456026444	streaming
468.3586	0.1068534874357283	18	systole	4	A	2390.658456026444	streaming
468.5725	0.1068534874357283	18	systole	5	B	500.0	streaming
468.786	0.1068534874357283	18	systole	6	A	2390.658456026444	streaming
469.0886	0.1068534874357283	18	systole	7	A	2390.658456026444	streaming
469.3025	0.1068534874357283	18	systole	8	B	500.0	streaming
469.516	0.1068534874357283	18	systole	9	A	2390.658456026444	streaming
469.8386	0.1068534874357283	18	systole	10	A	2390.658456026444	streaming
470.0525	0.1068534874357283	18	systole	11	B	500.0	streaming
470.266	0.1068534874357283	18	systole	12	A	2390.658456026444	streaming
470.5886	0.1068534874357283	18	systole	13	A	2390.658456026444	streaming
470.8025	0.1068534874357283	18	systole	14	B	500.0	streaming
471.016	0.1068534874357283	18	systole	15	A	2390.658456026444	streaming
471.373	0.1068534874357283	18	systole	16	A	2390.658456026444	streaming
471.5743	0.1068534874357283	18	systole	17	B	500.0	streaming
471.7755	0.1068534874357283	18	systole	18	A	2390.658456026444	streaming
472.203	0.1068534874357283	18	systole	19	A	2390.658456026444	streaming
472.4043	0.1068534874357283	18	systole	20	B	500.0	streaming
472.6055	0.1068534874357283	18	systole	21	A	2390.658456026444	streaming
473.0629	0.1068534874357283	18	systole	22	A	2390.658456026444	streaming
473.2644	0.1068534874357283	18	systole	23	B	500.0	streaming
473.4655	0.1068534874357283	18	systole	24	A	2390.658456026444	streaming
473.943	0.1068534874357283	18	systole	25	A	2390.658456026444	streaming
474.1444	0.1068534874357283	18	systole	26	B	500.0	streaming
474.3456	0.1068534874357283	18	systole	27	A	2390.658456026444	streaming
474.8028	0.1068534874357283	18	systole	28	A	2390.658456026444	streaming
475.0042	0.1068534874357283	18	systole	29	B	500.0	streaming
475.2053	0.1068534874357283	18	systole	30	A	2390.658456026444	streaming
475.6832	0.1068534874357283	18	systole	31	A	2390.658456026444	streaming
475.8845	0.1068534874357283	18	systole	32	B	500.0	streaming
476.0857	0.1068534874357283	18	systole	33	A	2390.658456026444	streaming
476.5635	0.1068534874357283	18	systole	34	A	2390.658456026444	streaming
476.7649	0.1068534874357283	18	systole	35	B	500.0	streaming
476.966	0.1068534874357283	18	systole	36	A	2390.658456026444	streaming
500.8392	0.1044058980478439	20	systole	1	A	1542.5842068661057	streaming
501.0641	0.1044058980478439	20	systole	2	B	500.0	streaming
501.2888	0.1044058980478439	20	systole	3	A	1542.5842068661057	streaming
501.5992	0.1044058980478439	20	systole	4	A	1542.5842068661057	streaming
501.8242	0.1044058980478439	20	systole	5	B	500.0	streaming
502.0488	0.1044058980478439	20	systole	6	A	1542.5842068661057	streaming
502.3593	0.1044058980478439	20	systole	7	A	1542.5842068661057	streaming
502.5842	0.1044058980478439	20	systole	8	B	500.0	streaming
502.8089	0.1044058980478439	20	systole	9	A	1542.5842068661057	streaming
503.0695	0.1044058980478439	20	systole	10	A	1542.5842068661057	streaming
503.2944	0.1044058980478439	20	systole	11	B	500.0	streaming
503.5191	0.1044058980478439	20	systole	12	A	1542.5842068661057	streaming
503.7592	0.1044058980478439	20	systole	13	A	1542.5842068661057	streaming
503.9841	0.1044058980478439	20	systole	14	B	500.0	streaming
504.2088	0.1044058980478439	20	systole	15	A	1542.5842068661057	streaming
504.4792	0.1044058980478439	20	systole	16	A	1542.5842068661057	streaming
504.7042	0.1044058980478439	20	systole	17	B	500.0	streaming
504.9288	0.1044058980478439	20	systole	18	A	1542.5842068661057	streaming
505.2804	0.1044058980478439	20	systole	19	A	1542.5842068661057	streaming
505.4894	0.1044058980478439	20	systole	20	B	500.0	streaming
505.698	0.1044058980478439	20	systole	21	A	1542.5842068661057	streaming
506.1804	0.1044058980478439	20	systole	22	A	1542.5842068661057	streaming
506.3893	0.1044058980478439	20	systole	23	B	500.0	streaming
506.598	0.1044058980478439	20	systole	24	A	1542.5842068661057	streaming
507.1404	0.1044058980478439	20	systole	25	A	1542.5842068661057	streaming
507.3493	0.1044058980478439	20	systole	26	B	500.0	streaming
507.558	0.1044058980478439	20	systole	27	A	1542.5842068661057	streaming
508.1105	0.1044058980478439	20	systole	28	A	1542.5842068661057	streaming
508.3194	0.1044058980478439	20	systole	29	B	500.0	streaming
508.528	0.1044058980478439	20	systole	30	A	1542.5842068661057	streaming
509.0502	0.1044058980478439	20	systole	31	A	1542.5842068661057	streaming
509.2592	0.1044058980478439	20	systole	32	B	500.0	streaming
509.4678	0.1044058980478439	20	systole	33	A	1542.5842068661057	streaming
512.8449	0.1093805948912631	21	diastole	1	A	1987.9452401467304	streaming
513.0637	0.1093805948912631	21	diastole	2	B	500.0	streaming
513.2824	0.1093805948912631	21	diastole	3	A	1987.9452401467304	streaming
513.6049	0.1093805948912631	21	diastole	4	A	1987.9452401467304	streaming
513.8236	0.1093805948912631	21	diastole	5	B	500.0	streaming
514.0424	0.1093805948912631	21	diastole	6	A	1987.9452401467304	streaming
514.3508	0.1093805948912631	21	diastole	7	A	1987.9452401467304	streaming
514.567	0.1093805948912631	21	diastole	8	B	500.0	streaming
514.7833	0.1093805948912631	21	diastole	9	A	1987.9452401467304	streaming
515.1108	0.1093805948912631	21	diastole	10	A	1987.9452401467304	streaming
515.327	0.1093805948912631	21	diastole	11	B	500.0	streaming
515.5433	0.1093805948912631	21	diastole	12	A	1987.9452401467304	streaming
515.6962	0.1093805948912631	21	diastole	13	A	1987.9452401467304	streaming
515.8887	0.1093805948912631	21	diastole	14	B	500.0	streaming
516.0813	0.1093805948912631	21	diastole	15	A	1987.9452401467304	streaming
516.4162	0.1093805948912631	21	diastole	16	A	1987.9452401467304	streaming
516.6087	0.1093805948912631	21	diastole	17	B	500.0	streaming
516.8013	0.1093805948912631	21	diastole	18	A	1987.9452401467304	streaming
517.2806	0.1093805948912631	21	diastole	19	A	1987.9452401467304	streaming
517.4718	0.1093805948912631	21	diastole	20	B	500.0	streaming
517.6631	0.1093805948912631	21	diastole	21	A	1987.9452401467304	streaming
518.1789	0.1093805948912631	21	diastole	22	A	1987.9452401467304	streaming
518.3702	0.1093805948912631	21	diastole	23	B	500.0	streaming
518.5615	0.1093805948912631	21	diastole	24	A	1987.9452401467304	streaming
519.0773	0.1093805948912631	21	diastole	25	A	1987.9452401467304	streaming
519.2685	0.1093805948912631	21	diastole	26	B	500.0	streaming
519.4598	0.1093805948912631	21	diastole	27	A	1987.9452401467304	streaming
519.9756	0.1093805948912631	21	diastole	28	A	1987.9452401467304	streaming
520.1668	0.1093805948912631	21	diastole	29	B	500.0	streaming
520.3581	0.1093805948912631	21	diastole	30	A	1987.9452401467304	streaming
520.8957	0.1093805948912631	21	diastole	31	A	1987.9452401467304	streaming
521.0869	0.1093805948912631	21	diastole	32	B	500.0	streaming
521.2782	0.1093805948912631	21	diastole	33	A	1987.9452401467304	streaming
523.5771	0.1024977311317343	22	systole	1	A	1018.5781753033378	streaming
523.7818	0.1024977311317343	22	systole	2	B	500.0	streaming
523.9871	0.1024977311317343	22	systole	3	A	1018.5781753033378	streaming
524.2771	0.1024977311317343	22	systole	4	A	1018.5781753033378	streaming
524.4818	0.1024977311317343	22	systole	5	B	500.0	streaming
524.6871	0.1024977311317343	22	systole	6	A	1018.5781753033378	streaming
524.9412	0.1024977311317343	22	systole	7	A	1018.5781753033378	streaming
525.1335	0.1024977311317343	22	systole	8	B	500.0	streaming
525.3263	0.1024977311317343	22	systole	9	A	1018.5781753033378	streaming
525.6512	0.1024977311317343	22	systole	10	A	1018.5781753033378	streaming
525.8434	0.1024977311317343	22	systole	11	B	500.0	streaming
526.0362	0.1024977311317343	22	systole	12	A	1018.5781753033378	streaming
526.3719	0.1024977311317343	22	systole	13	A	1018.5781753033378	streaming
526.5615	0.1024977311317343	22	systole	14	B	500.0	streaming
526.7518	0.1024977311317343	22	systole	15	A	1018.5781753033378	streaming
527.1921	0.1024977311317343	22	systole	16	A	1018.5781753033378	streaming
527.3818	0.1024977311317343	22	systole	17	B	500.0	streaming
527.572	0.1024977311317343	22	systole	18	A	1018.5781753033378	streaming
528.0821	0.1024977311317343	22	systole	19	A	1018.5781753033378	streaming
528.2717	0.1024977311317343	22	systole	20	B	500.0	streaming
528.462	0.1024977311317343	22	systole	21	A	1018.5781753033378	streaming
529.0221	0.1024977311317343	22	systole	22	A	1018.5781753033378	streaming
529.2117	0.1024977311317343	22	systole	23	B	500.0	streaming
529.402	0.1024977311317343	22	systole	24	A	1018.5781753033378	streaming
529.9896	0.1024977311317343	22	systole	25	A	1018.5781753033378	streaming
530.1868	0.1024977311317343	22	systole	26	B	500.0	streaming
530.3846	0.1024977311317343	22	systole	27	A	1018.5781753033378	streaming
530.9296	0.1024977311317343	22	systole	28	A	1018.5781753033378	streaming
531.1268	0.1024977311317343	22	systole	29	B	500.0	streaming
531.3246	0.1024977311317343	22	systole	30	A	1018.5781753033378	streaming
531.6532	0.1024977311317343	22	systole	31	A	1018.5781753033378	streaming
531.8542	0.1024977311317343	22	systole	32	B	500.0	streaming
532.0558	0.1024977311317343	22	systole	33	A	1018.5781753033378	streaming
532.3629	0.1024977311317343	22	systole	34	A	1018.5781753033378	streaming
532.5639	0.1024977311317343	22	systole	35	B	500.0	streaming
532.7655	0.1024977311317343	22	systole	36	A	1018.5781753033378	streaming
536.7216	0.0993746188469231	23	diastole	1	A	1253.4921645871675	streaming
536.9203	0.0993746188469231	23	diastole	2	B	500.0	streaming
537.1191	0.0993746188469231	23	diastole	3	A	1253.4921645871675	streaming
537.6013	0.0993746188469231	23	diastole	4	A	1253.4921645871675	streaming
537.8	0.0993746188469231	23	diastole	5	B	500.0	streaming
537.9988	0.0993746188469231	23	diastole	6	A	1253.4921645871675	streaming
538.4613	0.0993746188469231	23	diastole	7	A	1253.4921645871675	streaming
538.66	0.0993746188469231	23	diastole	8	B	500.0	streaming
538.8588	0.0993746188469231	23	diastole	9	A	1253.4921645871675	streaming
539.2683	0.0993746188469231	23	diastole	10	A	1253.4921645871675	streaming
539.4683	0.0993746188469231	23	diastole	11	B	500.0	streaming
539.6683	0.0993746188469231	23	diastole	12	A	1253.4921645871675	streaming
540.0683	0.0993746188469231	23	diastole	13	A	1253.4921645871675	streaming
540.2683	0.0993746188469231	23	diastole	14	B	500.0	streaming
540.4683	0.0993746188469231	23	diastole	15	A	1253.4921645871675	streaming
540.8683	0.0993746188469231	23	diastole	16	A	1253.4921645871675	streaming
541.0683	0.0993746188469231	23	diastole	17	B	500.0	streaming
541.2683	0.0993746188469231	23	diastole	18	A	1253.4921645871675	streaming
541.6384	0.0993746188469231	23	diastole	19	A	1253.4921645871675	streaming
541.8383	0.0993746188469231	23	diastole	20	B	500.0	streaming
542.0384	0.0993746188469231	23	diastole	21	A	1253.4921645871675	streaming
542.4084	0.0993746188469231	23	diastole	22	A	1253.4921645871675	streaming
542.6084	0.0993746188469231	23	diastole	23	B	500.0	streaming
542.8084	0.0993746188469231	23	diastole	24	A	1253.4921645871675	streaming
543.1487	0.0993746188469231	23	diastole	25	A	1253.4921645871675	streaming
543.3487	0.0993746188469231	23	diastole	26	B	500.0	streaming
543.5488	0.0993746188469231	23	diastole	27	A	1253.4921645871675	streaming
543.8891	0.0993746188469231	23	diastole	28	A	1253.4921645871675	streaming
544.0891	0.0993746188469231	23	diastole	29	B	500.0	streaming
544.2891	0.0993746188469231	23	diastole	30	A	1253.4921645871675	streaming
544.5288	0.0993746188469231	23	diastole	31	A	1253.4921645871675	streaming
544.7287	0.0993746188469231	23	diastole	32	B	500.0	streaming
544.9288	0.0993746188469231	23	diastole	33	A	1253.4921645871675	streaming
571.8227	0.0937798011000268	26	systole	1	A	720.7460505647621	streaming
572.0104	0.0937798011000268	26	systole	2	B	500.0	streaming
572.1978	0.0937798011000268	26	systole	3	A	720.7460505647621	streaming
572.4527	0.0937798011000268	26	systole	4	A	720.7460505647621	streaming
572.6404	0.0937798011000268	26	systole	5	B	500.0	streaming
572.8278	0.0937798011000268	26	systole	6	A	720.7460505647621	streaming
573.0827	0.0937798011000268	26	systole	7	A	720.7460505647621	streaming
573.2704	0.0937798011000268	26	systole	8	B	500.0	streaming
573.4578	0.0937798011000268	26	systole	9	A	720.7460505647621	streaming
573.7149	0.0937798011000268	26	systole	10	A	720.7460505647621	streaming
573.8951	0.0937798011000268	26	systole	11	B	500.0	streaming
574.0749	0.0937798011000268	26	systole	12	A	720.7460505647621	streaming
574.402	0.0937798011000268	26	systole	13	A	720.7460505647621	streaming
574.5759	0.0937798011000268	26	systole	14	B	500.0	streaming
574.7495	0.0937798011000268	26	systole	15	A	720.7460505647621	streaming
575.112	0.0937798011000268	26	systole	16	A	720.7460505647621	streaming
575.2859	0.0937798011000268	26	systole	17	B	500.0	streaming
575.4595	0.0937798011000268	26	systole	18	A	720.7460505647621	streaming
575.852	0.0937798011000268	26	systole	19	A	720.7460505647621	streaming
576.0259	0.0937798011000268	26	systole	20	B	500.0	streaming
576.1995	0.0937798011000268	26	systole	21	A	720.7460505647621	streaming
576.632	0.0937798011000268	26	systole	22	A	720.7460505647621	streaming
576.806	0.0937798011000268	26	systole	23	B	500.0	streaming
576.9795	0.0937798011000268	26	systole	24	A	720.7460505647621	streaming
577.412	0.0937798011000268	26	systole	25	A	720.7460505647621	streaming
577.5859	0.0937798011000268	26	systole	26	B	500.0	streaming
577.7595	0.0937798011000268	26	systole	27	A	720.7460505647621	streaming
578.132	0.0937798011000268	26	systole	28	A	720.7460505647621	streaming
578.3059	0.0937798011000268	26	systole	29	B	500.0	streaming
578.4795	0.0937798011000268	26	systole	30	A	720.7460505647621	streaming
578.852	0.0937798011000268	26	systole	31	A	720.7460505647621	streaming
579.0259	0.0937798011000268	26	systole	32	B	500.0	streaming
579.1995	0.0937798011000268	26	systole	33	A	720.7460505647621	streaming
579.493	0.0937798011000268	26	systole	34	A	720.7460505647621	streaming
579.6644	0.0937798011000268	26	systole	35	B	500.0	streaming
579.8355	0.0937798011000268	26	systole	36	A	720.7460505647621	streaming
580.1432	0.0937798011000268	26	systole	37	A	720.7460505647621	streaming
580.3145	0.0937798011000268	26	systole	38	B	500.0	streaming
580.4856	0.0937798011000268	26	systole	39	A	720.7460505647621	streaming
580.8032	0.0937798011000268	26	systole	40	A	720.7460505647621	streaming
580.9746	0.0937798011000268	26	systole	41	B	500.0	streaming
581.1457	0.0937798011000268	26	systole	42	A	720.7460505647621	streaming
583.4603	0.0906227999657858	27	systole	1	A	827.6888587859444	streaming
583.641	0.0906227999657858	27	systole	2	B	500.0	streaming
583.8228	0.0906227999657858	27	systole	3	A	827.6888587859444	streaming
584.3025	0.0906227999657858	27	systole	4	A	827.6888587859444	streaming
584.4919	0.0906227999657858	27	systole	5	B	500.0	streaming
584.6825	0.0906227999657858	27	systole	6	A	827.6888587859444	streaming
585.047	0.0906227999657858	27	systole	7	A	827.6888587859444	streaming
585.2376	0.0906227999657858	27	systole	8	B	500.0	streaming
585.4295	0.0906227999657858	27	systole	9	A	827.6888587859444	streaming
585.717	0.0906227999657858	27	systole	10	A	827.6888587859444	streaming
585.9077	0.0906227999657858	27	systole	11	B	500.0	streaming
586.0995	0.0906227999657858	27	systole	12	A	827.6888587859444	streaming
586.3269	0.0906227999657858	27	systole	13	A	827.6888587859444	streaming
586.5175	0.0906227999657858	27	systole	14	B	500.0	streaming
586.7094	0.0906227999657858	27	systole	15	A	827.6888587859444	streaming
586.9368	0.0906227999657858	27	systole	16	A	827.6888587859444	streaming
587.1274	0.0906227999657858	27	systole	17	B	500.0	streaming
587.3193	0.0906227999657858	27	systole	18	A	827.6888587859444	streaming
587.5468	0.0906227999657858	27	systole	19	A	827.6888587859444	streaming
587.7375	0.0906227999657858	27	systole	20	B	500.0	streaming
587.9293	0.0906227999657858	27	systole	21	A	827.6888587859444	streaming
588.1268	0.0906227999657858	27	systole	22	A	827.6888587859444	streaming
588.3174	0.0906227999657858	27	systole	23	B	500.0	streaming
588.5093	0.0906227999657858	27	systole	24	A	827.6888587859444	streaming
588.6618	0.0906227999657858	27	systole	25	A	827.6888587859444	streaming
588.8374	0.0906227999657858	27	systole	26	B	500.0	streaming
589.0143	0.0906227999657858	27	systole	27	A	827.6888587859444	streaming
589.2269	0.0906227999657858	27	systole	28	A	827.6888587859444	streaming
589.3875	0.0906227999657858	27	systole	29	B	500.0	streaming
589.5494	0.0906227999657858	27	systole	30	A	827.6888587859444	streaming
590.2469	0.0906227999657858	27	systole	31	A	827.6888587859444	streaming
590.4075	0.0906227999657858	27	systole	32	B	500.0	streaming
590.5694	0.0906227999657858	27	systole	33	A	827.6888587859444	streaming
591.2668	0.0906227999657858	27	systole	34	A	827.6888587859444	streaming
591.4275	0.0906227999657858	27	systole	35	B	500.0	streaming
591.5893	0.0906227999657858	27	systole	36	A	827.6888587859444	streaming
592.2568	0.0906227999657858	27	systole	37	A	827.6888587859444	streaming
592.4174	0.0906227999657858	27	systole	38	B	500.0	streaming
592.5793	0.0906227999657858	27	systole	39	A	827.6888587859444	streaming
593.2768	0.0906227999657858	27	systole	40	A	827.6888587859444	streaming
593.4375	0.0906227999657858	27	systole	41	B	500.0	streaming
593.5993	0.0906227999657858	27	systole	42	A	827.6888587859444	streaming
596.5057	0.1243763499951455	28	diastole	1	A	754.7629107028698	streaming
596.7537	0.1243763499951455	28	diastole	2	B	500.0	streaming
597.0032	0.1243763499951455	28	diastole	3	A	754.7629107028698	streaming
597.4758	0.1243763499951455	28	diastole	4	A	754.7629107028698	streaming
597.7238	0.1243763499951455	28	diastole	5	B	500.0	streaming
597.9733	0.1243763499951455	28	diastole	6	A	754.7629107028698	streaming
598.3554	0.1243763499951455	28	diastole	7	A	754.7629107028698	streaming
598.6034	0.1243763499951455	28	diastole	8	B	500.0	streaming
598.8529	0.1243763499951455	28	diastole	9	A	754.7629107028698	streaming
599.0134	0.1243763499951455	28	diastole	10	A	754.7629107028698	streaming
599.2614	0.1243763499951455	28	diastole	11	B	500.0	streaming
599.5109	0.1243763499951455	28	diastole	12	A	754.7629107028698	streaming
599.8766	0.1243763499951455	28	diastole	13	A	754.7629107028698	streaming
600.1223	0.1243763499951455	28	diastole	14	B	500.0	streaming
600.4246	0.1243763499951455	28	diastole	15	A	754.7629107028698	streaming
600.6566	0.1243763499951455	28	diastole	16	A	754.7629107028698	streaming
600.7889	0.1243763499951455	28	diastole	17	B	500.0	streaming
601.1072	0.1243763499951455	28	diastole	18	A	754.7629107028698	streaming
601.7268	0.1243763499951455	28	diastole	19	A	754.7629107028698	streaming
601.9312	0.1243763499951455	28	diastole	20	B	500.0	streaming
602.1372	0.1243763499951455	28	diastole	21	A	754.7629107028698	streaming
602.7567	0.1243763499951455	28	diastole	22	A	754.7629107028698	streaming
602.9611	0.1243763499951455	28	diastole	23	B	500.0	streaming
603.1671	0.1243763499951455	28	diastole	24	A	754.7629107028698	streaming
603.7767	0.1243763499951455	28	diastole	25	A	754.7629107028698	streaming
603.9811	0.1243763499951455	28	diastole	26	B	500.0	streaming
604.1871	0.1243763499951455	28	diastole	27	A	754.7629107028698	streaming
604.7967	0.1243763499951455	28	diastole	28	A	754.7629107028698	streaming
605.0011	0.1243763499951455	28	diastole	29	B	500.0	streaming
605.2071	0.1243763499951455	28	diastole	30	A	754.7629107028698	streaming
608.6813	0.1231283938977867	29	diastole	1	A	790.3852555644094	streaming
608.9268	0.1231283938977867	29	diastole	2	B	500.0	streaming
609.1738	0.1231283938977867	29	diastole	3	A	790.3852555644094	streaming
609.6313	0.1231283938977867	29	diastole	4	A	790.3852555644094	streaming
609.8768	0.1231283938977867	29	diastole	5	B	500.0	streaming
610.1238	0.1231283938977867	29	diastole	6	A	790.3852555644094	streaming
610.5613	0.1231283938977867	29	diastole	7	A	790.3852555644094	streaming
610.8068	0.1231283938977867	29	diastole	8	B	500.0	streaming
611.0538	0.1231283938977867	29	diastole	9	A	790.3852555644094	streaming
611.4913	0.1231283938977867	29	diastole	10	A	790.3852555644094	streaming
611.7368	0.1231283938977867	29	diastole	11	B	500.0	streaming
611.9838	0.1231283938977867	29	diastole	12	A	790.3852555644094	streaming
612.336	0.1231283938977867	29	diastole	13	A	790.3852555644094	streaming
612.5753	0.1231283938977867	29	diastole	14	B	500.0	streaming
612.816	0.1231283938977867	29	diastole	15	A	790.3852555644094	streaming
613.216	0.1231283938977867	29	diastole	16	A	790.3852555644094	streaming
613.4554	0.1231283938977867	29	diastole	17	B	500.0	streaming
613.696	0.1231283938977867	29	diastole	18	A	790.3852555644094	streaming
614.0418	0.1231283938977867	29	diastole	19	A	790.3852555644094	streaming
614.2786	0.1231283938977867	29	diastole	20	B	500.0	streaming
614.5168	0.1231283938977867	29	diastole	21	A	790.3852555644094	streaming
614.8776	0.1231283938977867	29	diastole	22	A	790.3852555644094	streaming
615.1119	0.1231283938977867	29	diastole	23	B	500.0	streaming
615.3476	0.1231283938977867	29	diastole	24	A	790.3852555644094	streaming
615.7276	0.1231283938977867	29	diastole	25	A	790.3852555644094	streaming
615.9619	0.1231283938977867	29	diastole	26	B	500.0	streaming
616.1976	0.1231283938977867	29	diastole	27	A	790.3852555644094	streaming
616.6164	0.1231283938977867	29	diastole	28	A	790.3852555644094	streaming
616.8469	0.1231283938977867	29	diastole	29	B	500.0	streaming
617.0788	0.1231283938977867	29	diastole	30	A	790.3852555644094	streaming
620.0408	0.1056258651951793	30	systole	1	A	1066.651739219328	streaming
620.2494	0.1056258651951793	30	systole	2	B	500.0	streaming
620.4583	0.1056258651951793	30	systole	3	A	1066.651739219328	streaming
620.7979	0.1056258651951793	30	systole	4	A	1066.651739219328	streaming
621.0002	0.1056258651951793	30	systole	5	B	500.0	streaming
621.2029	0.1056258651951793	30	systole	6	A	1066.651739219328	streaming
621.535	0.1056258651951793	30	systole	7	A	1066.651739219328	streaming
621.731	0.1056258651951793	30	systole	8	B	500.0	streaming
621.9275	0.1056258651951793	30	systole	9	A	1066.651739219328	streaming
622.325	0.1056258651951793	30	systole	10	A	1066.651739219328	streaming
622.521	0.1056258651951793	30	systole	11	B	500.0	streaming
622.7175	0.1056258651951793	30	systole	12	A	1066.651739219328	streaming
623.115	0.1056258651951793	30	systole	13	A	1066.651739219328	streaming
623.311	0.1056258651951793	30	systole	14	B	500.0	streaming
623.5075	0.1056258651951793	30	systole	15	A	1066.651739219328	streaming
623.9095	0.1056258651951793	30	systole	16	A	1066.651739219328	streaming
624.1068	0.1056258651951793	30	systole	17	B	500.0	streaming
624.3046	0.1056258651951793	30	systole	18	A	1066.651739219328	streaming
624.6896	0.1056258651951793	30	systole	19	A	1066.651739219328	streaming
624.8868	0.1056258651951793	30	systole	20	B	500.0	streaming
625.0845	0.1056258651951793	30	systole	21	A	1066.651739219328	streaming
625.4596	0.1056258651951793	30	systole	22	A	1066.651739219328	streaming
625.6568	0.1056258651951793	30	systole	23	B	500.0	streaming
625.8546	0.1056258651951793	30	systole	24	A	1066.651739219328	streaming
626.2296	0.1056258651951793	30	systole	25	A	1066.651739219328	streaming
626.4269	0.1056258651951793	30	systole	26	B	500.0	streaming
626.6246	0.1056258651951793	30	systole	27	A	1066.651739219328	streaming
626.995	0.1056258651951793	30	systole	28	A	1066.651739219328	streaming
627.191	0.1056258651951793	30	systole	29	B	500.0	streaming
627.3875	0.1056258651951793	30	systole	30	A	1066.651739219328	streaming
627.765	0.1056258651951793	30	systole	31	A	1066.651739219328	streaming
627.961	0.1056258651951793	30	systole	32	B	500.0	streaming
628.1575	0.1056258651951793	30	systole	33	A	1066.651739219328	streaming
628.5203	0.1056258651951793	30	systole	34	A	1066.651739219328	streaming
628.7151	0.1056258651951793	30	systole	35	B	500.0	streaming
628.9103	0.1056258651951793	30	systole	36	A	1066.651739219328	streaming
631.3234	0.0968785153818316	31	diastole	1	A	972.6712675344384	streaming
631.5169	0.0968785153818316	31	diastole	2	B	500.0	streaming
631.7109	0.0968785153818316	31	diastole	3	A	972.6712675344384	streaming
632.1234	0.0968785153818316	31	diastole	4	A	972.6712675344384	streaming
632.3168	0.0968785153818316	31	diastole	5	B	500.0	streaming
632.5109	0.0968785153818316	31	diastole	6	A	972.6712675344384	streaming
632.9035	0.0968785153818316	31	diastole	7	A	972.6712675344384	streaming
633.0969	0.0968785153818316	31	diastole	8	B	500.0	streaming
633.291	0.0968785153818316	31	diastole	9	A	972.6712675344384	streaming
633.6835	0.0968785153818316	31	diastole	10	A	972.6712675344384	streaming
633.8769	0.0968785153818316	31	diastole	11	B	500.0	streaming
634.071	0.0968785153818316	31	diastole	12	A	972.6712675344384	streaming
634.3764	0.0968785153818316	31	diastole	13	A	972.6712675344384	streaming
634.5686	0.0968785153818316	31	diastole	14	B	500.0	streaming
634.7614	0.0968785153818316	31	diastole	15	A	972.6712675344384	streaming
634.9893	0.0968785153818316	31	diastole	16	A	972.6712675344384	streaming
635.1802	0.0968785153818316	31	diastole	17	B	500.0	streaming
635.3718	0.0968785153818316	31	diastole	18	A	972.6712675344384	streaming
635.5922	0.0968785153818316	31	diastole	19	A	972.6712675344384	streaming
635.7819	0.0968785153818316	31	diastole	20	B	500.0	streaming
635.9723	0.0968785153818316	31	diastole	21	A	972.6712675344384	streaming
636.1667	0.0968785153818316	31	diastole	22	A	972.6712675344384	streaming
636.3501	0.0968785153818316	31	diastole	23	B	500.0	streaming
636.5342	0.0968785153818316	31	diastole	24	A	972.6712675344384	streaming
636.7218	0.0968785153818316	31	diastole	25	A	972.6712675344384	streaming
636.8902	0.0968785153818316	31	diastole	26	B	500.0	streaming
637.0593	0.0968785153818316	31	diastole	27	A	972.6712675344384	streaming
637.3876	0.0968785153818316	31	diastole	28	A	972.6712675344384	streaming
637.5535	0.0968785153818316	31	diastole	29	B	500.0	streaming
637.7201	0.0968785153818316	31	diastole	30	A	972.6712675344384	streaming
638.1576	0.0968785153818316	31	diastole	31	A	972.6712675344384	streaming
638.3235	0.0968785153818316	31	diastole	32	B	500.0	streaming
638.4901	0.0968785153818316	31	diastole	33	A	972.6712675344384	streaming
638.9077	0.0968785153818316	31	diastole	34	A	972.6712675344384	streaming
639.0736	0.0968785153818316	31	diastole	35	B	500.0	streaming
639.2402	0.0968785153818316	31	diastole	36	A	972.6712675344384	streaming
639.6577	0.0968785153818316	31	diastole	37	A	972.6712675344384	streaming
639.8236	0.0968785153818316	31	diastole	38	B	500.0	streaming
639.9902	0.0968785153818316	31	diastole	39	A	972.6712675344384	streaming
640.3777	0.0968785153818316	31	diastole	40	A	972.6712675344384	streaming
640.5436	0.0968785153818316	31	diastole	41	B	500.0	streaming
640.7102	0.0968785153818316	31	diastole	42	A	972.6712675344384	streaming
643.3661	0.0887505959253758	32	systole	1	A	1224.919318065913	coherent
643.5435	0.0887505959253758	32	systole	2	B	500.0	coherent
643.7211	0.0887505959253758	32	systole	3	A	1224.919318065913	coherent
644.0361	0.0887505959253758	32	systole	4	A	1224.919318065913	coherent
644.2135	0.0887505959253758	32	systole	5	B	500.0	coherent
644.3911	0.0887505959253758	32	systole	6	A	1224.919318065913	coherent
644.7215	0.0887505959253758	32	systole	7	A	1224.919318065913	coherent
644.8976	0.0887505959253758	32	systole	8	B	500.0	coherent
645.0739	0.0887505959253758	32	systole	9	A	1224.919318065913	coherent
645.3878	0.0887505959253758	32	systole	10	A	1224.919318065913	coherent
645.5602	0.0887505959253758	32	systole	11	B	500.0	coherent
645.7328	0.0887505959253758	32	systole	12	A	1224.919318065913	coherent
646.0878	0.0887505959253758	32	systole	13	A	1224.919318065913	coherent
646.2602	0.0887505959253758	32	systole	14	B	500.0	coherent
646.4328	0.0887505959253758	32	systole	15	A	1224.919318065913	coherent
646.8678	0.0887505959253758	32	systole	16	A	1224.919318065913	coherent
647.0403	0.0887505959253758	32	systole	17	B	500.0	coherent
647.2128	0.0887505959253758	32	systole	18	A	1224.919318065913	coherent
647.6478	0.0887505959253758	32	systole	19	A	1224.919318065913	coherent
647.8203	0.0887505959253758	32	systole	20	B	500.0	coherent
647.9928	0.0887505959253758	32	systole	21	A	1224.919318065913	coherent
648.4878	0.0887505959253758	32	systole	22	A	1224.919318065913	coherent
648.6602	0.0887505959253758	32	systole	23	B	500.0	coherent
648.8328	0.0887505959253758	32	systole	24	A	1224.919318065913	coherent
649.3439	0.0887505959253758	32	systole	25	A	1224.919318065913	coherent
649.5176	0.0887505959253758	32	systole	26	B	500.0	coherent
649.6914	0.0887505959253758	32	systole	27	A	1224.919318065913	coherent
650.1955	0.0887505959253758	32	systole	28	A	1224.919318065913	coherent
650.3692	0.0887505959253758	32	systole	29	B	500.0	coherent
650.543	0.0887505959253758	32	systole	30	A	1224.919318065913	coherent
651.068	0.0887505959253758	32	systole	31	A	1224.919318065913	coherent
651.2642	0.0887505959253758	32	systole	32	B	500.0	coherent
651.4605	0.0887505959253758	32	systole	33	A	1224.919318065913	coherent
651.798	0.0887505959253758	32	systole	34	A	1224.919318065913	coherent
651.9942	0.0887505959253758	32	systole	35	B	500.0	coherent
652.1905	0.0887505959253758	32	systole	36	A	1224.919318065913	coherent
652.528	0.0887505959253758	32	systole	37	A	1224.919318065913	coherent
652.7242	0.0887505959253758	32	systole	38	B	500.0	coherent
652.9205	0.0887505959253758	32	systole	39	A	1224.919318065913	coherent
655.6079	0.0950007893552538	33	diastole	1	A	1196.9977780158051	coherent
655.7865	0.0950007893552538	33	diastole	2	B	500.0	coherent
655.9654	0.0950007893552538	33	diastole	3	A	1196.9977780158051	coherent
656.2675	0.0950007893552538	33	diastole	4	A	1196.9977780158051	coherent
656.4462	0.0950007893552538	33	diastole	5	B	500.0	coherent
656.625	0.0950007893552538	33	diastole	6	A	1196.9977780158051	coherent
656.9346	0.0950007893552538	33	diastole	7	A	1196.9977780158051	coherent
657.1095	0.0950007893552538	33	diastole	8	B	500.0	coherent
657.2846	0.0950007893552538	33	diastole	9	A	1196.9977780158051	coherent
657.623	0.0950007893552538	33	diastole	10	A	1196.9977780158051	coherent
657.7979	0.0950007893552538	33	diastole	11	B	500.0	coherent
657.973	0.0950007893552538	33	diastole	12	A	1196.9977780158051	coherent
658.4134	0.0950007893552538	33	diastole	13	A	1196.9977780158051	coherent
658.5883	0.0950007893552538	33	diastole	14	B	500.0	coherent
658.7634	0.0950007893552538	33	diastole	15	A	1196.9977780158051	coherent
659.2039	0.0950007893552538	33	diastole	16	A	1196.9977780158051	coherent
659.3788	0.0950007893552538	33	diastole	17	B	500.0	coherent
659.5538	0.0950007893552538	33	diastole	18	A	1196.9977780158051	coherent
660.0038	0.0950007893552538	33	diastole	19	A	1196.9977780158051	coherent
660.1788	0.0950007893552538	33	diastole	20	B	500.0	coherent
660.3538	0.0950007893552538	33	diastole	21	A	1196.9977780158051	coherent
660.8038	0.0950007893552538	33	diastole	22	A	1196.9977780158051	coherent
660.9787	0.0950007893552538	33	diastole	23	B	500.0	coherent
661.1538	0.0950007893552538	33	diastole	24	A	1196.9977780158051	coherent
661.6243	0.0950007893552538	33	diastole	25	A	1196.9977780158051	coherent
661.8117	0.0950007893552538	33	diastole	26	B	500.0	coherent
661.9992	0.0950007893552538	33	diastole	27	A	1196.9977780158051	coherent
662.3544	0.0950007893552538	33	diastole	28	A	1196.9977780158051	coherent
662.5417	0.0950007893552538	33	diastole	29	B	500.0	coherent
662.7293	0.0950007893552538	33	diastole	30	A	1196.9977780158051	coherent
663.0642	0.0950007893552538	33	diastole	31	A	1196.9977780158051	coherent
663.2515	0.0950007893552538	33	diastole	32	B	500.0	coherent
663.4391	0.0950007893552538	33	diastole	33	A	1196.9977780158051	coherent
663.7739	0.0950007893552538	33	diastole	34	A	1196.9977780158051	coherent
663.9613	0.0950007893552538	33	diastole	35	B	500.0	coherent
664.1488	0.0950007893552538	33	diastole	36	A	1196.9977780158051	coherent
667.0957	0.0868656686798203	34	diastole	1	A	1143.0495706741503	coherent
667.2668	0.0868656686798203	34	diastole	2	B	500.0	coherent
667.4382	0.0868656686798203	34	diastole	3	A	1143.0495706741503	coherent
667.7857	0.0868656686798203	34	diastole	4	A	1143.0495706741503	coherent
667.9568	0.0868656686798203	34	diastole	5	B	500.0	coherent
668.1282	0.0868656686798203	34	diastole	6	A	1143.0495706741503	coherent
668.4857	0.0868656686798203	34	diastole	7	A	1143.0495706741503	coherent
668.6568	0.0868656686798203	34	diastole	8	B	500.0	coherent
668.8282	0.0868656686798203	34	diastole	9	A	1143.0495706741503	coherent
669.1856	0.0868656686798203	34	diastole	10	A	1143.0495706741503	coherent
669.3567	0.0868656686798203	34	diastole	11	B	500.0	coherent
669.5281	0.0868656686798203	34	diastole	12	A	1143.0495706741503	coherent
669.8956	0.0868656686798203	34	diastole	13	A	1143.0495706741503	coherent
670.0668	0.0868656686798203	34	diastole	14	B	500.0	coherent
670.2382	0.0868656686798203	34	diastole	15	A	1143.0495706741503	coherent
670.6098	0.0868656686798203	34	diastole	16	A	1143.0495706741503	coherent
670.7834	0.0868656686798203	34	diastole	17	B	500.0	coherent
670.9573	0.0868656686798203	34	diastole	18	A	1143.0495706741503	coherent
671.3269	0.0868656686798203	34	diastole	19	A	1143.0495706741503	coherent
671.5018	0.0868656686798203	34	diastole	20	B	500.0	coherent
671.6769	0.0868656686798203	34	diastole	21	A	1143.0495706741503	coherent
672.0369	0.0868656686798203	34	diastole	22	A	1143.0495706741503	coherent
672.2118	0.0868656686798203	34	diastole	23	B	500.0	coherent
672.3869	0.0868656686798203	34	diastole	24	A	1143.0495706741503	coherent
672.7369	0.0868656686798203	34	diastole	25	A	1143.0495706741503	coherent
672.9118	0.0868656686798203	34	diastole	26	B	500.0	coherent
673.0869	0.0868656686798203	34	diastole	27	A	1143.0495706741503	coherent
673.4369	0.0868656686798203	34	diastole	28	A	1143.0495706741503	coherent
673.6118	0.0868656686798203	34	diastole	29	B	500.0	coherent
673.7869	0.0868656686798203	34	diastole	30	A	1143.0495706741503	coherent
674.154	0.0868656686798203	34	diastole	31	A	1143.0495706741503	coherent
674.3301	0.0868656686798203	34	diastole	32	B	500.0	coherent
674.5065	0.0868656686798203	34	diastole	33	A	1143.0495706741503	coherent
674.8709	0.0868656686798203	34	diastole	34	A	1143.0495706741503	coherent
675.0483	0.0868656686798203	34	diastole	35	B	500.0	coherent
675.2259	0.0868656686798203	34	diastole	36	A	1143.0495706741503	coherent
675.5609	0.0868656686798203	34	diastole	37	A	1143.0495706741503	coherent
675.7383	0.0868656686798203	34	diastole	38	B	500.0	coherent
675.9159	0.0868656686798203	34	diastole	39	A	1143.0495706741503	coherent
677.8922	0.0874991970777046	35	systole	1	A	1224.919318065913	coherent
678.0659	0.0874991970777046	35	systole	2	B	500.0	coherent
678.2397	0.0874991970777046	35	systole	3	A	1224.919318065913	coherent
678.5376	0.0874991970777046	35	systole	4	A	1224.919318065913	coherent
678.71	0.0874991970777046	35	systole	5	B	500.0	coherent
678.8826	0.0874991970777046	35	systole	6	A	1224.919318065913	coherent
679.2376	0.0874991970777046	35	systole	7	A	1224.919318065913	coherent
679.4101	0.0874991970777046	35	systole	8	B	500.0	coherent
679.5827	0.0874991970777046	35	systole	9	A	1224.919318065913	coherent
679.9776	0.0874991970777046	35	systole	10	A	1224.919318065913	coherent
680.1501	0.0874991970777046	35	systole	11	B	500.0	coherent
680.3227	0.0874991970777046	35	systole	12	A	1224.919318065913	coherent
680.7277	0.0874991970777046	35	systole	13	A	1224.919318065913	coherent
680.9001	0.0874991970777046	35	systole	14	B	500.0	coherent
681.0727	0.0874991970777046	35	systole	15	A	1224.919318065913	coherent
681.4777	0.0874991970777046	35	systole	16	A	1224.919318065913	coherent
681.6501	0.0874991970777046	35	systole	17	B	500.0	coherent
681.8227	0.0874991970777046	35	systole	18	A	1224.919318065913	coherent
682.2079	0.0874991970777046	35	systole	19	A	1224.919318065913	coherent
682.3804	0.0874991970777046	35	systole	20	B	500.0	coherent
682.5529	0.0874991970777046	35	systole	21	A	1224.919318065913	coherent
682.9425	0.0874991970777046	35	systole	22	A	1224.919318065913	coherent
683.1162	0.0874991970777046	35	systole	23	B	500.0	coherent
683.29	0.0874991970777046	35	systole	24	A	1224.919318065913	coherent
683.6617	0.0874991970777046	35	systole	25	A	1224.919318065913	coherent
683.8379	0.0874991970777046	35	systole	26	B	500.0	coherent
684.0142	0.0874991970777046	35	systole	27	A	1224.919318065913	coherent
684.3717	0.0874991970777046	35	systole	28	A	1224.919318065913	coherent
684.5479	0.0874991970777046	35	systole	29	B	500.0	coherent
684.7242	0.0874991970777046	35	systole	30	A	1224.919318065913	coherent
685.0617	0.0874991970777046	35	systole	31	A	1224.919318065913	coherent
685.2379	0.0874991970777046	35	systole	32	B	500.0	coherent
685.4142	0.0874991970777046	35	systole	33	A	1224.919318065913	coherent
685.7517	0.0874991970777046	35	systole	34	A	1224.919318065913	coherent
685.9279	0.0874991970777046	35	systole	35	B	500.0	coherent
686.1042	0.0874991970777046	35	systole	36	A	1224.919318065913	coherent
686.4413	0.0874991970777046	35	systole	37	A	1224.919318065913	coherent
686.6175	0.0874991970777046	35	systole	38	B	500.0	coherent
686.7938	0.0874991970777046	35	systole	39	A	1224.919318065913	coherent
687.1418	0.0874991970777046	35	systole	40	A	1224.919318065913	coherent
687.3181	0.0874991970777046	35	systole	41	B	500.0	coherent
687.4944	0.0874991970777046	35	systole	42	A	1224.919318065913	coherent
689.6743	0.0881500295945443	36	diastole	1	A	1066.651739219328	streaming
689.8504	0.0881500295945443	36	diastole	2	B	500.0	streaming
690.0269	0.0881500295945443	36	diastole	3	A	1066.651739219328	streaming
690.4444	0.0881500295945443	36	diastole	4	A	1066.651739219328	streaming
690.6205	0.0881500295945443	36	diastole	5	B	500.0	streaming
690.797	0.0881500295945443	36	diastole	6	A	1066.651739219328	streaming
691.1744	0.0881500295945443	36	diastole	7	A	1066.651739219328	streaming
691.3505	0.0881500295945443	36	diastole	8	B	500.0	streaming
691.527	0.0881500295945443	36	diastole	9	A	1066.651739219328	streaming
691.8444	0.0881500295945443	36	diastole	10	A	1066.651739219328	streaming
692.0205	0.0881500295945443	36	diastole	11	B	500.0	streaming
692.197	0.0881500295945443	36	diastole	12	A	1066.651739219328	streaming
692.4844	0.0881500295945443	36	diastole	13	A	1066.651739219328	streaming
692.6605	0.0881500295945443	36	diastole	14	B	500.0	streaming
692.837	0.0881500295945443	36	diastole	15	A	1066.651739219328	streaming
693.1244	0.0881500295945443	36	diastole	16	A	1066.651739219328	streaming
693.3004	0.0881500295945443	36	diastole	17	B	500.0	streaming
693.477	0.0881500295945443	36	diastole	18	A	1066.651739219328	streaming
693.7443	0.0881500295945443	36	diastole	19	A	1066.651739219328	streaming
693.9204	0.0881500295945443	36	diastole	20	B	500.0	streaming
694.097	0.0881500295945443	36	diastole	21	A	1066.651739219328	streaming
694.3328	0.0881500295945443	36	diastole	22	A	1066.651739219328	streaming
694.5051	0.0881500295945443	36	diastole	23	B	500.0	streaming
694.6779	0.0881500295945443	36	diastole	24	A	1066.651739219328	streaming
694.8377	0.0881500295945443	36	diastole	25	A	1066.651739219328	streaming
694.995	0.0881500295945443	36	diastole	26	B	500.0	streaming
695.1527	0.0881500295945443	36	diastole	27	A	1066.651739219328	streaming
695.4065	0.0881500295945443	36	diastole	28	A	1066.651739219328	streaming
695.56	0.0881500295945443	36	diastole	29	B	500.0	streaming
695.714	0.0881500295945443	36	diastole	30	A	1066.651739219328	streaming
695.9994	0.0881500295945443	36	diastole	31	A	1066.651739219328	streaming
696.1517	0.0881500295945443	36	diastole	32	B	500.0	streaming
696.3044	0.0881500295945443	36	diastole	33	A	1066.651739219328	streaming
696.5994	0.0881500295945443	36	diastole	34	A	1066.651739219328	streaming
696.7517	0.0881500295945443	36	diastole	35	B	500.0	streaming
696.9044	0.0881500295945443	36	diastole	36	A	1066.651739219328	streaming
697.1923	0.0881500295945443	36	diastole	37	A	1066.651739219328	streaming
697.3433	0.0881500295945443	36	diastole	38	B	500.0	streaming
697.4948	0.0881500295945443	36	diastole	39	A	1066.651739219328	streaming
697.7852	0.0881500295945443	36	diastole	40	A	1066.651739219328	streaming
697.935	0.0881500295945443	36	diastole	41	B	500.0	streaming
698.0852	0.0881500295945443	36	diastole	42	A	1066.651739219328	streaming
698.4052	0.0881500295945443	36	diastole	43	A	1066.651739219328	streaming
698.555	0.0881500295945443	36	diastole	44	B	500.0	streaming
698.7052	0.0881500295945443	36	diastole	45	A	1066.651739219328	streaming
699.0351	0.0881500295945443	36	diastole	46	A	1066.651739219328	streaming
699.1849	0.0881500295945443	36	diastole	47	B	500.0	streaming
699.3351	0.0881500295945443	36	diastole	48	A	1066.651739219328	streaming
702.2158	0.0799950274231378	37	diastole	1	A	2336.164364177629	streaming
702.3784	0.0799950274231378	37	diastole	2	B	500.0	streaming
702.5408	0.0799950274231378	37	diastole	3	A	2336.164364177629	streaming
702.8658	0.0799950274231378	37	diastole	4	A	2336.164364177629	streaming
703.0284	0.0799950274231378	37	diastole	5	B	500.0	streaming
703.1908	0.0799950274231378	37	diastole	6	A	2336.164364177629	streaming
703.5358	0.0799950274231378	37	diastole	7	A	2336.164364177629	streaming
703.6985	0.0799950274231378	37	diastole	8	B	500.0	streaming
703.8608	0.0799950274231378	37	diastole	9	A	2336.164364177629	streaming
704.2058	0.0799950274231378	37	diastole	10	A	2336.164364177629	streaming
704.3684	0.0799950274231378	37	diastole	11	B	500.0	streaming
704.5308	0.0799950274231378	37	diastole	12	A	2336.164364177629	streaming
704.97	0.0799950274231378	37	diastole	13	A	2336.164364177629	streaming
705.1351	0.0799950274231378	37	diastole	14	B	500.0	streaming
705.2999	0.0799950274231378	37	diastole	15	A	2336.164364177629	streaming
705.7572	0.0799950274231378	37	diastole	16	A	2336.164364177629	streaming
705.9235	0.0799950274231378	37	diastole	17	B	500.0	streaming
706.0897	0.0799950274231378	37	diastole	18	A	2336.164364177629	streaming
706.5372	0.0799950274231378	37	diastole	19	A	2336.164364177629	streaming
706.7036	0.0799950274231378	37	diastole	20	B	500.0	streaming
706.8697	0.0799950274231378	37	diastole	21	A	2336.164364177629	streaming
707.3856	0.0799950274231378	37	diastole	22	A	2336.164364177629	streaming
707.557	0.0799950274231378	37	diastole	23	B	500.0	streaming
707.7281	0.0799950274231378	37	diastole	24	A	2336.164364177629	streaming
708.2056	0.0799950274231378	37	diastole	25	A	2336.164364177629	streaming
708.3769	0.0799950274231378	37	diastole	26	B	500.0	streaming
708.5481	0.0799950274231378	37	diastole	27	A	2336.164364177629	streaming
709.1322	0.0799950274231378	37	diastole	28	A	2336.164364177629	streaming
709.3136	0.0799950274231378	37	diastole	29	B	500.0	streaming
709.4947	0.0799950274231378	37	diastole	30	A	2336.164364177629	streaming
710.0175	0.0799950274231378	37	diastole	31	A	2336.164364177629	streaming
710.2052	0.0799950274231378	37	diastole	32	B	500.0	streaming
710.3926	0.0799950274231378	37	diastole	33	A	2336.164364177629	streaming
710.8484	0.0799950274231378	37	diastole	34	A	2336.164364177629	streaming
711.0398	0.0799950274231378	37	diastole	35	B	500.0	streaming
711.2309	0.0799950274231378	37	diastole	36	A	2336.164364177629	streaming
713.326	0.0950315770751331	38	diastole	1	A	950.4996196948616	coherent
713.5057	0.0950315770751331	38	diastole	2	B	500.0	coherent
713.6861	0.0950315770751331	38	diastole	3	A	950.4996196948616	coherent
714.0316	0.0950315770751331	38	diastole	4	A	950.4996196948616	coherent
714.2087	0.0950315770751331	38	diastole	5	B	500.0	coherent
714.3866	0.0950315770751331	38	diastole	6	A	950.4996196948616	coherent
714.9516	0.0950315770751331	38	diastole	7	A	950.4996196948616	coherent
715.1287	0.0950315770751331	38	diastole	8	B	500.0	coherent
715.3066	0.0950315770751331	38	diastole	9	A	950.4996196948616	coherent
715.8513	0.0950315770751331	38	diastole	10	A	950.4996196948616	coherent
716.0284	0.0950315770751331	38	diastole	11	B	500.0	coherent
716.2063	0.0950315770751331	38	diastole	12	A	950.4996196948616	coherent
716.7511	0.0950315770751331	38	diastole	13	A	950.4996196948616	coherent
716.9282	0.0950315770751331	38	diastole	14	B	500.0	coherent
717.1061	0.0950315770751331	38	diastole	15	A	950.4996196948616	coherent
717.591	0.0950315770751331	38	diastole	16	A	950.4996196948616	coherent
717.7681	0.0950315770751331	38	diastole	17	B	500.0	coherent
717.946	0.0950315770751331	38	diastole	18	A	950.4996196948616	coherent
718.4011	0.0950315770751331	38	diastole	19	A	950.4996196948616	coherent
718.5783	0.0950315770751331	38	diastole	20	B	500.0	coherent
718.7562	0.0950315770751331	38	diastole	21	A	950.4996196948616	coherent
719.2113	0.0950315770751331	38	diastole	22	A	950.4996196948616	coherent
719.3884	0.0950315770751331	38	diastole	23	B	500.0	coherent
719.5663	0.0950315770751331	38	diastole	24	A	950.4996196948616	coherent
720.0822	0.0950315770751331	38	diastole	25	A	950.4996196948616	coherent
720.2719	0.0950315770751331	38	diastole	26	B	500.0	coherent
720.4623	0.0950315770751331	38	diastole	27	A	950.4996196948616	coherent
720.9042	0.0950315770751331	38	diastole	28	A	950.4996196948616	coherent
721.1013	0.0950315770751331	38	diastole	29	B	500.0	coherent
721.2992	0.0950315770751331	38	diastole	30	A	950.4996196948616	coherent
721.6446	0.0950315770751331	38	diastole	31	A	950.4996196948616	coherent
721.8417	0.0950315770751331	38	diastole	32	B	500.0	coherent
722.0395	0.0950315770751331	38	diastole	33	A	950.4996196948616	coherent
722.3546	0.0950315770751331	38	diastole	34	A	950.4996196948616	coherent
722.5517	0.0950315770751331	38	diastole	35	B	500.0	coherent
722.7496	0.0950315770751331	38	diastole	36	A	950.4996196948616	coherent
725.9646	0.0855266573489643	39	diastole	1	A	3620.5291529823535	streaming
726.1356	0.0855266573489643	39	diastole	2	B	500.0	streaming
726.3067	0.0855266573489643	39	diastole	3	A	3620.5291529823535	streaming
726.8142	0.0855266573489643	39	diastole	4	A	3620.5291529823535	streaming
726.9852	0.0855266573489643	39	diastole	5	B	500.0	streaming
727.1563	0.0855266573489643	39	diastole	6	A	3620.5291529823535	streaming
727.6637	0.0855266573489643	39	diastole	7	A	3620.5291529823535	streaming
727.8348	0.0855266573489643	39	diastole	8	B	500.0	streaming
728.0059	0.0855266573489643	39	diastole	9	A	3620.5291529823535	streaming
728.4841	0.0855266573489643	39	diastole	10	A	3620.5291529823535	streaming
728.6551	0.0855266573489643	39	diastole	11	B	500.0	streaming
728.8262	0.0855266573489643	39	diastole	12	A	3620.5291529823535	streaming
729.3432	0.0855266573489643	39	diastole	13	A	3620.5291529823535	streaming
729.5282	0.0855266573489643	39	diastole	14	B	500.0	streaming
729.7132	0.0855266573489643	39	diastole	15	A	3620.5291529823535	streaming
730.1797	0.0855266573489643	39	diastole	16	A	3620.5291529823535	streaming
730.3747	0.0855266573489643	39	diastole	17	B	500.0	streaming
730.5697	0.0855266573489643	39	diastole	18	A	3620.5291529823535	streaming
730.9596	0.0855266573489643	39	diastole	19	A	3620.5291529823535	streaming
731.1546	0.0855266573489643	39	diastole	20	B	500.0	streaming
731.3496	0.0855266573489643	39	diastole	21	A	3620.5291529823535	streaming
731.7097	0.0855266573489643	39	diastole	22	A	3620.5291529823535	streaming
731.9047	0.0855266573489643	39	diastole	23	B	500.0	streaming
732.0997	0.0855266573489643	39	diastole	24	A	3620.5291529823535	streaming
732.4497	0.0855266573489643	39	diastole	25	A	3620.5291529823535	streaming
732.6447	0.0855266573489643	39	diastole	26	B	500.0	streaming
732.8397	0.0855266573489643	39	diastole	27	A	3620.5291529823535	streaming
733.1697	0.0855266573489643	39	diastole	28	A	3620.5291529823535	streaming
733.3646	0.0855266573489643	39	diastole	29	B	500.0	streaming
733.5597	0.0855266573489643	39	diastole	30	A	3620.5291529823535	streaming
733.8484	0.0855266573489643	39	diastole	31	A	3620.5291529823535	streaming
734.0397	0.0855266573489643	39	diastole	32	B	500.0	streaming
734.2309	0.0855266573489643	39	diastole	33	A	3620.5291529823535	streaming
734.5101	0.0855266573489643	39	diastole	34	A	3620.5291529823535	streaming
734.6964	0.0855266573489643	39	diastole	35	B	500.0	streaming
734.8826	0.0855266573489643	39	diastole	36	A	3620.5291529823535	streaming
737.7127	0.0868752374080941	40	diastole	1	A	688.262316600777	coherent
737.8853	0.0868752374080941	40	diastole	2	B	500.0	coherent
738.0576	0.0868752374080941	40	diastole	3	A	688.262316600777	coherent
738.4026	0.0868752374080941	40	diastole	4	A	688.262316600777	coherent
738.5753	0.0868752374080941	40	diastole	5	B	500.0	coherent
738.7476	0.0868752374080941	40	diastole	6	A	688.262316600777	coherent
739.1426	0.0868752374080941	40	diastole	7	A	688.262316600777	coherent
739.3153	0.0868752374080941	40	diastole	8	B	500.0	coherent
739.4876	0.0868752374080941	40	diastole	9	A	688.262316600777	coherent
740.0622	0.0868752374080941	40	diastole	10	A	688.262316600777	coherent
740.2349	0.0868752374080941	40	diastole	11	B	500.0	coherent
740.4072	0.0868752374080941	40	diastole	12	A	688.262316600777	coherent
740.9926	0.0868752374080941	40	diastole	13	A	688.262316600777	coherent
741.1653	0.0868752374080941	40	diastole	14	B	500.0	coherent
741.3376	0.0868752374080941	40	diastole	15	A	688.262316600777	coherent
741.9179	0.0868752374080941	40	diastole	16	A	688.262316600777	coherent
742.0969	0.0868752374080941	40	diastole	17	B	500.0	coherent
742.2754	0.0868752374080941	40	diastole	18	A	688.262316600777	coherent
742.9595	0.0868752374080941	40	diastole	19	A	688.262316600777	coherent
743.1634	0.0868752374080941	40	diastole	20	B	500.0	coherent
743.367	0.0868752374080941	40	diastole	21	A	688.262316600777	coherent
743.9047	0.0868752374080941	40	diastole	22	A	688.262316600777	coherent
744.1236	0.0868752374080941	40	diastole	23	B	500.0	coherent
744.3422	0.0868752374080941	40	diastole	24	A	688.262316600777	coherent
744.6947	0.0868752374080941	40	diastole	25	A	688.262316600777	coherent
744.9136	0.0868752374080941	40	diastole	26	B	500.0	coherent
745.1322	0.0868752374080941	40	diastole	27	A	688.262316600777	coherent
745.4643	0.0868752374080941	40	diastole	28	A	688.262316600777	coherent
745.6832	0.0868752374080941	40	diastole	29	B	500.0	coherent
745.9018	0.0868752374080941	40	diastole	30	A	688.262316600777	coherent
746.2339	0.0868752374080941	40	diastole	31	A	688.262316600777	coherent
746.4528	0.0868752374080941	40	diastole	32	B	500.0	coherent
746.6714	0.0868752374080941	40	diastole	33	A	688.262316600777	coherent
749.2417	0.0944776761753019	41	systole	1	A	1143.0495706741503	coherent
749.4206	0.0944776761753019	41	systole	2	B	500.0	coherent
749.5998	0.0944776761753019	41	systole	3	A	1143.0495706741503	coherent
749.8917	0.0944776761753019	41	systole	4	A	1143.0495706741503	coherent
750.0706	0.0944776761753019	41	systole	5	B	500.0	coherent
750.2497	0.0944776761753019	41	systole	6	A	1143.0495706741503	coherent
750.4935	0.0944776761753019	41	systole	7	A	1143.0495706741503	coherent
750.662	0.0944776761753019	41	systole	8	B	500.0	coherent
750.8307	0.0944776761753019	41	systole	9	A	1143.0495706741503	coherent
751.1335	0.0944776761753019	41	systole	10	A	1143.0495706741503	coherent
751.302	0.0944776761753019	41	systole	11	B	500.0	coherent
751.4707	0.0944776761753019	41	systole	12	A	1143.0495706741503	coherent
751.8232	0.0944776761753019	41	systole	13	A	1143.0495706741503	coherent
751.9917	0.0944776761753019	41	systole	14	B	500.0	coherent
752.1605	0.0944776761753019	41	systole	15	A	1143.0495706741503	coherent
752.6833	0.0944776761753019	41	systole	16	A	1143.0495706741503	coherent
752.8517	0.0944776761753019	41	systole	17	B	500.0	coherent
753.0205	0.0944776761753019	41	systole	18	A	1143.0495706741503	coherent
753.6033	0.0944776761753019	41	systole	19	A	1143.0495706741503	coherent
753.7718	0.0944776761753019	41	systole	20	B	500.0	coherent
753.9405	0.0944776761753019	41	systole	21	A	1143.0495706741503	coherent
754.5233	0.0944776761753019	41	systole	22	A	1143.0495706741503	coherent
754.6918	0.0944776761753019	41	systole	23	B	500.0	coherent
754.8605	0.0944776761753019	41	systole	24	A	1143.0495706741503	coherent
755.3742	0.0944776761753019	41	systole	25	A	1143.0495706741503	coherent
755.5428	0.0944776761753019	41	systole	26	B	500.0	coherent
755.7117	0.0944776761753019	41	systole	27	A	1143.0495706741503	coherent
756.1942	0.0944776761753019	41	systole	28	A	1143.0495706741503	coherent
756.3628	0.0944776761753019	41	systole	29	B	500.0	coherent
756.5317	0.0944776761753019	41	systole	30	A	1143.0495706741503	coherent
757.0431	0.0944776761753019	41	systole	31	A	1143.0495706741503	coherent
757.2279	0.0944776761753019	41	systole	32	B	500.0	coherent
757.413	0.0944776761753019	41	systole	33	A	1143.0495706741503	coherent
757.8328	0.0944776761753019	41	systole	34	A	1143.0495706741503	coherent
758.0176	0.0944776761753019	41	systole	35	B	500.0	coherent
758.2026	0.0944776761753019	41	systole	36	A	1143.0495706741503	coherent
835.9392	0.1006248465855605	42	diastole	1	A	4665.815755436727	coherent
836.1218	0.1006248465855605	42	diastole	2	B	500.0	coherent
836.3042	0.1006248465855605	42	diastole	3	A	4665.815755436727	coherent
836.5584	0.1006248465855605	42	diastole	4	A	4665.815755436727	coherent
836.7285	0.1006248465855605	42	diastole	5	B	500.0	coherent
836.8984	0.1006248465855605	42	diastole	6	A	4665.815755436727	coherent
837.2584	0.1006248465855605	42	diastole	7	A	4665.815755436727	coherent
837.4285	0.1006248465855605	42	diastole	8	B	500.0	coherent
837.5984	0.1006248465855605	42	diastole	9	A	4665.815755436727	coherent
837.9586	0.1006248465855605	42	diastole	10	A	4665.815755436727	coherent
838.1287	0.1006248465855605	42	diastole	11	B	500.0	coherent
838.2986	0.1006248465855605	42	diastole	12	A	4665.815755436727	coherent
838.6589	0.1006248465855605	42	diastole	13	A	4665.815755436727	coherent
838.829	0.1006248465855605	42	diastole	14	B	500.0	coherent
838.9989	0.1006248465855605	42	diastole	15	A	4665.815755436727	coherent
839.3592	0.1006248465855605	42	diastole	16	A	4665.815755436727	coherent
839.5292	0.1006248465855605	42	diastole	17	B	500.0	coherent
839.6992	0.1006248465855605	42	diastole	18	A	4665.815755436727	coherent
839.998	0.1006248465855605	42	diastole	19	A	4665.815755436727	coherent
840.1643	0.1006248465855605	42	diastole	20	B	500.0	coherent
840.3305	0.1006248465855605	42	diastole	21	A	4665.815755436727	coherent
840.6509	0.1006248465855605	42	diastole	22	A	4665.815755436727	coherent
840.816	0.1006248465855605	42	diastole	23	B	500.0	coherent
840.9809	0.1006248465855605	42	diastole	24	A	4665.815755436727	coherent
841.3004	0.1006248465855605	42	diastole	25	A	4665.815755436727	coherent
841.4654	0.1006248465855605	42	diastole	26	B	500.0	coherent
841.6303	0.1006248465855605	42	diastole	27	A	4665.815755436727	coherent
841.9609	0.1006248465855605	42	diastole	28	A	4665.815755436727	coherent
842.126	0.1006248465855605	42	diastole	29	B	500.0	coherent
842.2909	0.1006248465855605	42	diastole	30	A	4665.815755436727	coherent
842.6412	0.1006248465855605	42	diastole	31	A	4665.815755436727	coherent
842.8063	0.1006248465855605	42	diastole	32	B	500.0	coherent
842.9713	0.1006248465855605	42	diastole	33	A	4665.815755436727	coherent
843.3353	0.1006248465855605	42	diastole	34	A	4665.815755436727	coherent
843.5029	0.1006248465855605	42	diastole	35	B	500.0	coherent
843.6704	0.1006248465855605	42	diastole	36	A	4665.815755436727	coherent
844.0253	0.1006248465855605	42	diastole	37	A	4665.815755436727	coherent
844.1929	0.1006248465855605	42	diastole	38	B	500.0	coherent
844.3604	0.1006248465855605	42	diastole	39	A	4665.815755436727	coherent
844.7153	0.1006248465855605	42	diastole	40	A	4665.815755436727	coherent
844.8829	0.1006248465855605	42	diastole	41	B	500.0	coherent
845.0504	0.1006248465855605	42	diastole	42	A	4665.815755436727	coherent
847.137	0.0831224374705925	43	diastole	1	A	4353.967332736322	coherent
847.3033	0.0831224374705925	43	diastole	2	B	500.0	coherent
847.4695	0.0831224374705925	43	diastole	3	A	4353.967332736322	coherent
847.777	0.0831224374705925	43	diastole	4	A	4353.967332736322	coherent
847.9432	0.0831224374705925	43	diastole	5	B	500.0	coherent
848.1095	0.0831224374705925	43	diastole	6	A	4353.967332736322	coherent
848.6913	0.0831224374705925	43	diastole	7	A	4353.967332736322	coherent
848.86	0.0831224374705925	43	diastole	8	B	500.0	coherent
849.0287	0.0831224374705925	43	diastole	9	A	4353.967332736322	coherent
849.5917	0.0831224374705925	43	diastole	10	A	4353.967332736322	coherent
849.7604	0.0831224374705925	43	diastole	11	B	500.0	coherent
849.9291	0.0831224374705925	43	diastole	12	A	4353.967332736322	coherent
850.4921	0.0831224374705925	43	diastole	13	A	4353.967332736322	coherent
850.6607	0.0831224374705925	43	diastole	14	B	500.0	coherent
850.8295	0.0831224374705925	43	diastole	15	A	4353.967332736322	coherent
851.4721	0.0831224374705925	43	diastole	16	A	4353.967332736322	coherent
851.6408	0.0831224374705925	43	diastole	17	B	500.0	coherent
851.8095	0.0831224374705925	43	diastole	18	A	4353.967332736322	coherent
852.5556	0.0831224374705925	43	diastole	19	A	4353.967332736322	coherent
852.7532	0.0831224374705925	43	diastole	20	B	500.0	coherent
852.9507	0.0831224374705925	43	diastole	21	A	4353.967332736322	coherent
853.4757	0.0831224374705925	43	diastole	22	A	4353.967332736322	coherent
853.6732	0.0831224374705925	43	diastole	23	B	500.0	coherent
853.8708	0.0831224374705925	43	diastole	24	A	4353.967332736322	coherent
854.3957	0.0831224374705925	43	diastole	25	A	4353.967332736322	coherent
854.5932	0.0831224374705925	43	diastole	26	B	500.0	coherent
854.7908	0.0831224374705925	43	diastole	27	A	4353.967332736322	coherent
855.3157	0.0831224374705925	43	diastole	28	A	4353.967332736322	coherent
855.5132	0.0831224374705925	43	diastole	29	B	500.0	coherent
855.7108	0.0831224374705925	43	diastole	30	A	4353.967332736322	coherent
856.2361	0.0831224374705925	43	diastole	31	A	4353.967332736322	coherent
856.4549	0.0831224374705925	43	diastole	32	B	500.0	coherent
856.6737	0.0831224374705925	43	diastole	33	A	4353.967332736322	coherent
860.0923	0.1024843649065587	44	diastole	1	A	4157.735780147634	coherent
860.2948	0.1024843649065587	44	diastole	2	B	500.0	coherent
860.4973	0.1024843649065587	44	diastole	3	A	4157.735780147634	coherent
860.892	0.1024843649065587	44	diastole	4	A	4157.735780147634	coherent
861.0944	0.1024843649065587	44	diastole	5	B	500.0	coherent
861.2969	0.1024843649065587	44	diastole	6	A	4157.735780147634	coherent
861.6678	0.1024843649065587	44	diastole	7	A	4157.735780147634	coherent
861.8677	0.1024843649065587	44	diastole	8	B	500.0	coherent
862.0678	0.1024843649065587	44	diastole	9	A	4157.735780147634	coherent
862.4576	0.1024843649065587	44	diastole	10	A	4157.735780147634	coherent
862.6575	0.1024843649065587	44	diastole	11	B	500.0	coherent
862.8576	0.1024843649065587	44	diastole	12	A	4157.735780147634	coherent
863.2775	0.1024843649065587	44	diastole	13	A	4157.735780147634	coherent
863.4775	0.1024843649065587	44	diastole	14	B	500.0	coherent
863.6775	0.1024843649065587	44	diastole	15	A	4157.735780147634	coherent
864.1276	0.1024843649065587	44	diastole	16	A	4157.735780147634	coherent
864.3275	0.1024843649065587	44	diastole	17	B	500.0	coherent
864.5276	0.1024843649065587	44	diastole	18	A	4157.735780147634	coherent
864.9476	0.1024843649065587	44	diastole	19	A	4157.735780147634	coherent
865.1475	0.1024843649065587	44	diastole	20	B	500.0	coherent
865.3476	0.1024843649065587	44	diastole	21	A	4157.735780147634	coherent
865.7373	0.1024843649065587	44	diastole	22	A	4157.735780147634	coherent
865.9372	0.1024843649065587	44	diastole	23	B	500.0	coherent
866.1372	0.1024843649065587	44	diastole	24	A	4157.735780147634	coherent
866.5273	0.1024843649065587	44	diastole	25	A	4157.735780147634	coherent
866.7272	0.1024843649065587	44	diastole	26	B	500.0	coherent
866.9272	0.1024843649065587	44	diastole	27	A	4157.735780147634	coherent
867.3173	0.1024843649065587	44	diastole	28	A	4157.735780147634	coherent
867.5172	0.1024843649065587	44	diastole	29	B	500.0	coherent
867.7172	0.1024843649065587	44	diastole	30	A	4157.735780147634	coherent
868.1175	0.1024843649065587	44	diastole	31	A	4157.735780147634	coherent
868.3174	0.1024843649065587	44	diastole	32	B	500.0	coherent
868.5175	0.1024843649065587	44	diastole	33	A	4157.735780147634	coherent
870.8495	0.0987501312629319	45	systole	1	A	1042.3378445677552	coherent
871.0467	0.0987501312629319	45	systole	2	B	500.0	coherent
871.2445	0.0987501312629319	45	systole	3	A	1042.3378445677552	coherent
871.6195	0.0987501312629319	45	systole	4	A	1042.3378445677552	coherent
871.8167	0.0987501312629319	45	systole	5	B	500.0	coherent
872.0145	0.0987501312629319	45	systole	6	A	1042.3378445677552	coherent
872.3349	0.0987501312629319	45	systole	7	A	1042.3378445677552	coherent
872.5309	0.0987501312629319	45	systole	8	B	500.0	coherent
872.7274	0.0987501312629319	45	systole	9	A	1042.3378445677552	coherent
873.055	0.0987501312629319	45	systole	10	A	1042.3378445677552	coherent
873.251	0.0987501312629319	45	systole	11	B	500.0	coherent
873.4475	0.0987501312629319	45	systole	12	A	1042.3378445677552	coherent
873.7558	0.0987501312629319	45	systole	13	A	1042.3378445677552	coherent
873.9493	0.0987501312629319	45	systole	14	B	500.0	coherent
874.1432	0.0987501312629319	45	systole	15	A	1042.3378445677552	coherent
874.4657	0.0987501312629319	45	systole	16	A	1042.3378445677552	coherent
874.6592	0.0987501312629319	45	systole	17	B	500.0	coherent
874.8533	0.0987501312629319	45	systole	18	A	1042.3378445677552	coherent
875.1757	0.0987501312629319	45	systole	19	A	1042.3378445677552	coherent
875.3692	0.0987501312629319	45	systole	20	B	500.0	coherent
875.5632	0.0987501312629319	45	systole	21	A	1042.3378445677552	coherent
876.0611	0.0987501312629319	45	systole	22	A	1042.3378445677552	coherent
876.2534	0.0987501312629319	45	systole	23	B	500.0	coherent
876.4461	0.0987501312629319	45	systole	24	A	1042.3378445677552	coherent
