onset	duration	trial_num	trial_type	tone_num	tone_type	frequency	response
45.32770000000005	0.106251580058597	1	diastole	1	B	500	systole
46.131000000000085	0.106251580058597	1	diastole	2	B	500	systole
46.9511	0.106251580058597	1	diastole	3	B	500	systole
47.861000000000104	0.106251580058597	1	diastole	4	B	500	systole
48.78110000000015	0.106251580058597	1	diastole	5	B	500	systole
49.7011	0.106251580058597	1	diastole	6	B	500	systole
50.63610000000017	0.106251580058597	1	diastole	7	B	500	systole
51.546100000000024	0.106251580058597	1	diastole	8	B	500	systole
52.521000000000186	0.106251580058597	1	diastole	9	B	500	systole
53.42100000000005	0.106251580058597	1	diastole	10	B	500	systole
54.21070000000009	0.106251580058597	1	diastole	11	B	500	systole
59.23520000000008	0.0987432874972	2	systole	1	B	500	diastole
59.98540000000003	0.0987432874972	2	systole	2	B	500	diastole
60.28880000000004	0.0987432874972	2	systole	3	B	500	diastole
60.7333000000001	0.0987432874972	2	systole	4	B	500	diastole
60.943300000000136	0.0987432874972	2	systole	5	B	500	diastole
61.143200000000206	0.0987432874972	2	systole	6	B	500	diastole
61.343000000000075	0.0987432874972	2	systole	7	B	500	diastole
61.54300000000012	0.0987432874972	2	systole	8	B	500	diastole
61.74290000000019	0.0987432874972	2	systole	9	B	500	diastole
62.60440000000017	0.0987432874972	2	systole	10	B	500	diastole
63.4543000000001	0.0987432874972	2	systole	11	B	500	diastole
64.41430000000014	0.0987432874972	2	systole	12	B	500	diastole
65.3742000000002	0.0987432874972	2	systole	13	B	500	diastole
66.17020000000002	0.0987432874972	2	systole	14	B	500	diastole
66.96040000000016	0.0987432874972	2	systole	15	B	500	diastole
67.49279999999999	0.0987432874972	2	systole	16	B	500	diastole
68.21199999999999	0.0987432874972	2	systole	17	B	500	diastole
73.00710000000004	0.0218902251217514	3	diastole	1	B	500	diastole
73.92700000000013	0.0218902251217514	3	diastole	2	B	500	diastole
74.84700000000021	0.0218902251217514	3	diastole	3	B	500	diastole
76.29340000000002	0.0218902251217514	3	diastole	4	B	500	diastole
77.7935	0.0218902251217514	3	diastole	5	B	500	diastole
78.74330000000009	0.0218902251217514	3	diastole	6	B	500	diastole
79.64020000000005	0.0218902251217514	3	diastole	7	B	500	diastole
80.4103	0.0218902251217514	3	diastole	8	B	500	diastole
80.65340000000015	0.0218902251217514	3	diastole	9	B	500	diastole
81.33190000000013	0.0218902251217514	3	diastole	10	B	500	diastole
82.13840000000005	0.0218902251217514	3	diastole	11	B	500	diastole
82.97840000000019	0.0218902251217514	3	diastole	12	B	500	diastole
93.62290000000007	0.106895744043868	4	diastole	1	B	500	systole
94.52240000000006	0.106895744043868	4	diastole	2	B	500	systole
95.42190000000005	0.106895744043868	4	diastole	3	B	500	systole
96.23030000000017	0.106895744043868	4	diastole	4	B	500	systole
97.05020000000013	0.106895744043868	4	diastole	5	B	500	systole
97.92430000000013	0.106895744043868	4	diastole	6	B	500	systole
98.77580000000012	0.106895744043868	4	diastole	7	B	500	systole
99.62650000000008	0.106895744043868	4	diastole	8	B	500	systole
100.51310000000012	0.106895744043868	4	diastole	9	B	500	systole
101.38300000000004	0.106895744043868	4	diastole	10	B	500	systole
104.04200000000014	0.1051011577947065	5	systole	1	B	500	diastole
104.83200000000011	0.1051011577947065	5	systole	2	B	500	diastole
105.61200000000008	0.1051011577947065	5	systole	3	B	500	diastole
106.3878000000002	0.1051011577947065	5	systole	4	B	500	diastole
107.18790000000013	0.1051011577947065	5	systole	5	B	500	diastole
107.50600000000009	0.1051011577947065	5	systole	6	B	500	diastole
107.76850000000013	0.1051011577947065	5	systole	7	B	500	diastole
108.40550000000007	0.1051011577947065	5	systole	8	B	500	diastole
109.20400000000018	0.1051011577947065	5	systole	9	B	500	diastole
110.07150000000001	0.1051011577947065	5	systole	10	B	500	diastole
110.92150000000015	0.1051011577947065	5	systole	11	B	500	diastole
111.8007	0.1051011577947065	5	systole	12	B	500	diastole
112.68060000000014	0.1051011577947065	5	systole	13	B	500	diastole
113.54020000000014	0.1051011577947065	5	systole	14	B	500	diastole
116.1360000000002	0.1012379446183331	6	systole	1	B	500	systole
116.9059000000002	0.1012379446183331	6	systole	2	B	500	systole
117.60450000000014	0.1012379446183331	6	systole	3	B	500	systole
118.31460000000015	0.1012379446183331	6	systole	4	B	500	systole
119.03290000000015	0.1012379446183331	6	systole	5	B	500	systole
119.81720000000018	0.1012379446183331	6	systole	6	B	500	systole
120.63720000000012	0.1012379446183331	6	systole	7	B	500	systole
121.45720000000006	0.1012379446183331	6	systole	8	B	500	systole
122.33730000000014	0.1012379446183331	6	systole	9	B	500	systole
123.20880000000011	0.1012379446183331	6	systole	10	B	500	systole
124.08430000000021	0.1012379446183331	6	systole	11	B	500	systole
124.90060000000017	0.1012379446183331	6	systole	12	B	500	systole
125.6849000000002	0.1012379446183331	6	systole	13	B	500	systole
129.8043	0.0925204169470816	7	systole	1	B	500	diastole
130.44420000000014	0.0925204169470816	7	systole	2	B	500	diastole
131.27420000000006	0.0925204169470816	7	systole	3	B	500	diastole
132.04500000000007	0.0925204169470816	7	systole	4	B	500	diastole
132.84660000000008	0.0925204169470816	7	systole	5	B	500	diastole
133.75600000000009	0.0925204169470816	7	systole	6	B	500	diastole
134.6477000000002	0.0925204169470816	7	systole	7	B	500	diastole
134.93830000000003	0.0925204169470816	7	systole	8	B	500	diastole
135.6069	0.0925204169470816	7	systole	9	B	500	diastole
136.2867000000001	0.0925204169470816	7	systole	10	B	500	diastole
136.91930000000002	0.0925204169470816	7	systole	11	B	500	diastole
137.5987	0.0925204169470816	7	systole	12	B	500	diastole
138.14460000000008	0.0925204169470816	7	systole	13	B	500	diastole
146.1962000000001	0.0956380282877944	8	diastole	1	B	500	systole
146.88630000000012	0.0956380282877944	8	diastole	2	B	500	systole
147.75930000000017	0.0956380282877944	8	diastole	3	B	500	systole
148.38620000000014	0.0956380282877944	8	diastole	4	B	500	systole
149.11130000000003	0.0956380282877944	8	diastole	5	B	500	systole
149.8614	0.0956380282877944	8	diastole	6	B	500	systole
150.74630000000002	0.0956380282877944	8	diastole	7	B	500	systole
151.60620000000017	0.0956380282877944	8	diastole	8	B	500	systole
152.4494000000002	0.0956380282877944	8	diastole	9	B	500	systole
153.2192	0.0956380282877944	8	diastole	10	B	500	systole
154.08630000000016	0.0956380282877944	8	diastole	11	B	500	systole
154.9367000000002	0.0956380282877944	8	diastole	12	B	500	systole
157.16890000000012	0.021240908652544	9	systole	1	B	500	diastole
157.32900000000018	0.021240908652544	9	systole	2	B	500	diastole
157.51470000000018	0.021240908652544	9	systole	3	B	500	diastole
157.69450000000006	0.021240908652544	9	systole	4	B	500	diastole
157.87210000000005	0.021240908652544	9	systole	5	B	500	diastole
158.02420000000006	0.021240908652544	9	systole	6	B	500	diastole
158.18430000000012	0.021240908652544	9	systole	7	B	500	diastole
158.34450000000015	0.021240908652544	9	systole	8	B	500	diastole
158.5046000000002	0.021240908652544	9	systole	9	B	500	diastole
158.7945000000002	0.021240908652544	9	systole	10	B	500	diastole
159.08450000000016	0.021240908652544	9	systole	11	B	500	diastole
159.7546000000002	0.021240908652544	9	systole	12	B	500	diastole
160.42460000000005	0.021240908652544	9	systole	13	B	500	diastole
160.57330000000002	0.021240908652544	9	systole	14	B	500	diastole
161.32460000000015	0.021240908652544	9	systole	15	B	500	diastole
162.17230000000018	0.021240908652544	9	systole	16	B	500	diastole
163.0023000000001	0.021240908652544	9	systole	17	B	500	diastole
164.14070000000015	0.021240908652544	9	systole	18	B	500	diastole
164.9407000000001	0.021240908652544	9	systole	19	B	500	diastole
165.91160000000013	0.021240908652544	9	systole	20	B	500	diastole
166.64470000000006	0.021240908652544	9	systole	21	B	500	diastole
167.48220000000015	0.021240908652544	9	systole	22	B	500	diastole
170.7125000000001	0.0893771001137793	10	diastole	1	B	500	systole
171.51920000000018	0.0893771001137793	10	diastole	2	B	500	systole
172.30930000000012	0.0893771001137793	10	diastole	3	B	500	systole
173.07460000000015	0.0893771001137793	10	diastole	4	B	500	systole
173.8243	0.0893771001137793	10	diastole	5	B	500	systole
174.57400000000007	0.0893771001137793	10	diastole	6	B	500	systole
175.3524	0.0893771001137793	10	diastole	7	B	500	systole
176.1862000000001	0.0893771001137793	10	diastole	8	B	500	systole
177.00290000000018	0.0893771001137793	10	diastole	9	B	500	systole
177.73630000000003	0.0893771001137793	10	diastole	10	B	500	systole
178.4864	0.0893771001137793	10	diastole	11	B	500	systole
179.18090000000007	0.0893771001137793	10	diastole	12	B	500	systole
181.65620000000013	0.093762299278751	11	systole	1	B	500	diastole
182.33820000000014	0.093762299278751	11	systole	2	B	500	diastole
182.97940000000017	0.093762299278751	11	systole	3	B	500	diastole
183.63790000000017	0.093762299278751	11	systole	4	B	500	diastole
184.30830000000014	0.093762299278751	11	systole	5	B	500	diastole
184.9375	0.093762299278751	11	systole	6	B	500	diastole
185.70800000000008	0.093762299278751	11	systole	7	B	500	diastole
186.4869000000001	0.093762299278751	11	systole	8	B	500	diastole
187.2663	0.093762299278751	11	systole	9	B	500	diastole
188.0163	0.093762299278751	11	systole	10	B	500	diastole
188.66690000000017	0.093762299278751	11	systole	11	B	500	diastole
189.23660000000018	0.093762299278751	11	systole	12	B	500	diastole
189.51040000000012	0.093762299278751	11	systole	13	B	500	diastole
189.6804000000002	0.093762299278751	11	systole	14	B	500	diastole
189.8479000000002	0.093762299278751	11	systole	15	B	500	diastole
190.4421000000002	0.093762299278751	11	systole	16	B	500	diastole
191.13260000000014	0.093762299278751	11	systole	17	B	500	diastole
194.55370000000016	0.0887271233950741	12	diastole	1	B	500	diastole
195.32770000000005	0.0887271233950741	12	diastole	2	B	500	diastole
196.06820000000016	0.0887271233950741	12	diastole	3	B	500	diastole
196.67820000000006	0.0887271233950741	12	diastole	4	B	500	diastole
197.2881000000002	0.0887271233950741	12	diastole	5	B	500	diastole
197.8981000000001	0.0887271233950741	12	diastole	6	B	500	diastole
198.52520000000004	0.0887271233950741	12	diastole	7	B	500	diastole
199.13490000000002	0.0887271233950741	12	diastole	8	B	500	diastole
199.74940000000015	0.0887271233950741	12	diastole	9	B	500	diastole
200.43970000000013	0.0887271233950741	12	diastole	10	B	500	diastole
201.2197000000001	0.0887271233950741	12	diastole	11	B	500	diastole
201.9593000000002	0.0887271233950741	12	diastole	12	B	500	diastole
202.7093000000002	0.0887271233950741	12	diastole	13	B	500	diastole
203.49300000000017	0.0887271233950741	12	diastole	14	B	500	diastole
207.3523	0.0968524570926092	13	diastole	1	B	500	systole
208.1223	0.0968524570926092	13	diastole	2	B	500	systole
208.81410000000005	0.0968524570926092	13	diastole	3	B	500	systole
209.5041000000001	0.0968524570926092	13	diastole	4	B	500	systole
210.19410000000016	0.0968524570926092	13	diastole	5	B	500	systole
210.88400000000001	0.0968524570926092	13	diastole	6	B	500	systole
211.65420000000017	0.0968524570926092	13	diastole	7	B	500	systole
212.34750000000008	0.0968524570926092	13	diastole	8	B	500	systole
213.05750000000012	0.0968524570926092	13	diastole	9	B	500	systole
213.68590000000017	0.0968524570926092	13	diastole	10	B	500	systole
214.3324	0.0968524570926092	13	diastole	11	B	500	systole
214.9757000000002	0.0968524570926092	13	diastole	12	B	500	systole
215.63570000000004	0.0968524570926092	13	diastole	13	B	500	systole
217.86670000000004	0.0831286624306812	14	systole	1	B	500	systole
218.53680000000008	0.0831286624306812	14	systole	2	B	500	systole
219.2011	0.0831286624306812	14	systole	3	B	500	systole
219.92100000000005	0.0831286624306812	14	systole	4	B	500	systole
220.64100000000008	0.0831286624306812	14	systole	5	B	500	systole
221.37850000000003	0.0831286624306812	14	systole	6	B	500	systole
222.1626000000001	0.0831286624306812	14	systole	7	B	500	systole
222.94180000000006	0.0831286624306812	14	systole	8	B	500	systole
223.69190000000003	0.0831286624306812	14	systole	9	B	500	systole
224.5177000000001	0.0831286624306812	14	systole	10	B	500	systole
225.3818000000001	0.0831286624306812	14	systole	11	B	500	systole
226.21180000000004	0.0831286624306812	14	systole	12	B	500	systole
227.0581000000002	0.0831286624306812	14	systole	13	B	500	systole
229.54840000000013	0.0980084871407598	15	systole	1	B	500	systole
230.39830000000006	0.0980084871407598	15	systole	2	B	500	systole
231.2061000000001	0.0980084871407598	15	systole	3	B	500	systole
231.99630000000002	0.0980084871407598	15	systole	4	B	500	systole
232.77610000000004	0.0980084871407598	15	systole	5	B	500	systole
233.55590000000007	0.0980084871407598	15	systole	6	B	500	systole
234.3103000000001	0.0980084871407598	15	systole	7	B	500	systole
234.98500000000013	0.0980084871407598	15	systole	8	B	500	systole
235.73480000000018	0.0980084871407598	15	systole	9	B	500	systole
236.5204000000001	0.0980084871407598	15	systole	10	B	500	systole
237.30010000000016	0.0980084871407598	15	systole	11	B	500	systole
238.11030000000005	0.0980084871407598	15	systole	12	B	500	systole
238.9702000000002	0.0980084871407598	15	systole	13	B	500	systole
242.2518	0.1018837990704923	16	systole	1	B	500	systole
242.99190000000021	0.1018837990704923	16	systole	2	B	500	systole
243.7319	0.1018837990704923	16	systole	3	B	500	systole
244.4719	0.1018837990704923	16	systole	4	B	500	systole
245.2418	0.1018837990704923	16	systole	5	B	500	systole
245.99850000000015	0.1018837990704923	16	systole	6	B	500	systole
246.7786000000001	0.1018837990704923	16	systole	7	B	500	systole
247.55860000000007	0.1018837990704923	16	systole	8	B	500	systole
248.36260000000016	0.1018837990704923	16	systole	9	B	500	systole
249.16250000000014	0.1018837990704923	16	systole	10	B	500	systole
249.82310000000007	0.1018837990704923	16	systole	11	B	500	systole
250.5127	0.1018837990704923	16	systole	12	B	500	systole
253.93780000000015	0.0951265530893579	17	diastole	1	B	500	systole
254.69780000000014	0.0951265530893579	17	diastole	2	B	500	systole
255.4679000000001	0.0951265530893579	17	diastole	3	B	500	systole
256.15430000000015	0.0951265530893579	17	diastole	4	B	500	systole
256.8344000000002	0.0951265530893579	17	diastole	5	B	500	systole
257.5145	0.0951265530893579	17	diastole	6	B	500	systole
258.22450000000003	0.0951265530893579	17	diastole	7	B	500	systole
258.9444000000001	0.0951265530893579	17	diastole	8	B	500	systole
259.6310000000001	0.0951265530893579	17	diastole	9	B	500	systole
260.3709000000001	0.0951265530893579	17	diastole	10	B	500	systole
261.1110000000001	0.0951265530893579	17	diastole	11	B	500	systole
261.8511000000001	0.0951265530893579	17	diastole	12	B	500	systole
266.6943000000001	0.0925025078468024	18	systole	1	B	500	systole
267.46400000000017	0.0925025078468024	18	systole	2	B	500	systole
268.13210000000004	0.0925025078468024	18	systole	3	B	500	systole
268.8117000000002	0.0925025078468024	18	systole	4	B	500	systole
269.47630000000004	0.0925025078468024	18	systole	5	B	500	systole
270.1698000000001	0.0925025078468024	18	systole	6	B	500	systole
270.8959000000002	0.0925025078468024	18	systole	7	B	500	systole
271.6160000000002	0.0925025078468024	18	systole	8	B	500	systole
272.3362000000002	0.0925025078468024	18	systole	9	B	500	systole
272.99300000000017	0.0925025078468024	18	systole	10	B	500	systole
273.6865	0.0925025078468024	18	systole	11	B	500	systole
274.38620000000014	0.0925025078468024	18	systole	12	B	500	systole
275.12620000000015	0.0925025078468024	18	systole	13	B	500	systole
275.86620000000016	0.0925025078468024	18	systole	14	B	500	systole
278.5842	0.091259105480276	19	diastole	1	B	500	systole
279.31410000000005	0.091259105480276	19	diastole	2	B	500	systole
280.0440000000001	0.091259105480276	19	diastole	3	B	500	systole
280.74400000000014	0.091259105480276	19	diastole	4	B	500	systole
281.4245000000001	0.091259105480276	19	diastole	5	B	500	systole
282.105	0.091259105480276	19	diastole	6	B	500	systole
282.8066000000001	0.091259105480276	19	diastole	7	B	500	systole
283.5459000000001	0.091259105480276	19	diastole	8	B	500	systole
284.32590000000005	0.091259105480276	19	diastole	9	B	500	systole
285.06600000000003	0.091259105480276	19	diastole	10	B	500	systole
285.77790000000005	0.091259105480276	19	diastole	11	B	500	systole
286.4979000000001	0.091259105480276	19	diastole	12	B	500	systole
287.1997000000001	0.091259105480276	19	diastole	13	B	500	systole
289.8562000000002	0.089382687699981	20	diastole	1	B	500	systole
290.5476000000001	0.089382687699981	20	diastole	2	B	500	systole
291.24760000000015	0.089382687699981	20	diastole	3	B	500	systole
291.9875000000002	0.089382687699981	20	diastole	4	B	500	systole
292.798	0.089382687699981	20	diastole	5	B	500	systole
293.5980000000002	0.089382687699981	20	diastole	6	B	500	systole
294.41110000000003	0.089382687699981	20	diastole	7	B	500	systole
295.1908000000001	0.089382687699981	20	diastole	8	B	500	systole
295.9824000000001	0.089382687699981	20	diastole	9	B	500	systole
296.6825000000001	0.089382687699981	20	diastole	10	B	500	systole
297.38260000000014	0.089382687699981	20	diastole	11	B	500	systole
298.08270000000016	0.089382687699981	20	diastole	12	B	500	systole
298.7826	0.089382687699981	20	diastole	13	B	500	systole
299.48260000000005	0.089382687699981	20	diastole	14	B	500	systole
305.4593000000002	0.0887440310325473	21	systole	1	B	500	systole
306.2393000000002	0.0887440310325473	21	systole	2	B	500	systole
307.0010000000002	0.0887440310325473	21	systole	3	B	500	systole
307.7510000000002	0.0887440310325473	21	systole	4	B	500	systole
308.4611	0.0887440310325473	21	systole	5	B	500	systole
309.1711	0.0887440310325473	21	systole	6	B	500	systole
309.80950000000007	0.0887440310325473	21	systole	7	B	500	systole
310.4597000000001	0.0887440310325473	21	systole	8	B	500	systole
311.1197000000002	0.0887440310325473	21	systole	9	B	500	systole
311.78960000000006	0.0887440310325473	21	systole	10	B	500	systole
312.452	0.0887440310325473	21	systole	11	B	500	systole
313.17190000000005	0.0887440310325473	21	systole	12	B	500	systole
313.90200000000004	0.0887440310325473	21	systole	13	B	500	systole
314.63210000000004	0.0887440310325473	21	systole	14	B	500	systole
318.60030000000006	0.0931433064397424	22	systole	1	B	500	diastole
319.34030000000007	0.0931433064397424	22	systole	2	B	500	diastole
320.0803000000001	0.0931433064397424	22	systole	3	B	500	diastole
320.47040000000015	0.0931433064397424	22	systole	4	B	500	diastole
321.1509000000001	0.0931433064397424	22	systole	5	B	500	diastole
321.83130000000006	0.0931433064397424	22	systole	6	B	500	diastole
322.5020000000002	0.0931433064397424	22	systole	7	B	500	diastole
323.1473000000001	0.0931433064397424	22	systole	8	B	500	diastole
323.80550000000017	0.0931433064397424	22	systole	9	B	500	diastole
324.5156000000002	0.0931433064397424	22	systole	10	B	500	diastole
325.31560000000013	0.0931433064397424	22	systole	11	B	500	diastole
326.12720000000013	0.0931433064397424	22	systole	12	B	500	diastole
326.92730000000006	0.0931433064397424	22	systole	13	B	500	diastole
327.7021000000002	0.0931433064397424	22	systole	14	B	500	diastole
330.22980000000007	0.093124228704255	23	systole	1	B	500	systole
330.9294000000002	0.093124228704255	23	systole	2	B	500	systole
331.6394	0.093124228704255	23	systole	3	B	500	systole
332.3586	0.093124228704255	23	systole	4	B	500	systole
333.1186	0.093124228704255	23	systole	5	B	500	systole
333.9253000000001	0.093124228704255	23	systole	6	B	500	systole
334.7574000000002	0.093124228704255	23	systole	7	B	500	systole
335.53570000000013	0.093124228704255	23	systole	8	B	500	systole
336.19990000000007	0.093124228704255	23	systole	9	B	500	systole
336.8402000000001	0.093124228704255	23	systole	10	B	500	systole
337.4806000000001	0.093124228704255	23	systole	11	B	500	systole
338.13200000000006	0.093124228704255	23	systole	12	B	500	systole
338.80050000000006	0.093124228704255	23	systole	13	B	500	systole
339.4828	0.093124228704255	23	systole	14	B	500	systole
342.2744	0.0887535757501609	24	diastole	1	B	500	systole
342.95770000000016	0.0887535757501609	24	diastole	2	B	500	systole
343.6577000000002	0.0887535757501609	24	diastole	3	B	500	systole
344.42240000000015	0.0887535757501609	24	diastole	4	B	500	systole
345.1578000000002	0.0887535757501609	24	diastole	5	B	500	systole
345.9190000000001	0.0887535757501609	24	diastole	6	B	500	systole
346.67060000000015	0.0887535757501609	24	diastole	7	B	500	systole
347.4223000000002	0.0887535757501609	24	diastole	8	B	500	systole
348.2058000000002	0.0887535757501609	24	diastole	9	B	500	systole
348.97590000000014	0.0887535757501609	24	diastole	10	B	500	systole
349.7363	0.0887535757501609	24	diastole	11	B	500	systole
350.42550000000006	0.0887535757501609	24	diastole	12	B	500	systole
351.124	0.0887535757501609	24	diastole	13	B	500	systole
353.8691000000001	0.0906235998845659	25	diastole	1	B	500	systole
354.60900000000015	0.0906235998845659	25	diastole	2	B	500	systole
355.34910000000013	0.0906235998845659	25	diastole	3	B	500	systole
356.08910000000014	0.0906235998845659	25	diastole	4	B	500	systole
356.81910000000016	0.0906235998845659	25	diastole	5	B	500	systole
357.5490000000002	0.0906235998845659	25	diastole	6	B	500	systole
358.2311000000002	0.0906235998845659	25	diastole	7	B	500	systole
358.9311	0.0906235998845659	25	diastole	8	B	500	systole
359.63110000000006	0.0906235998845659	25	diastole	9	B	500	systole
360.3678	0.0906235998845659	25	diastole	10	B	500	systole
361.0988000000002	0.0906235998845659	25	diastole	11	B	500	systole
361.7925	0.0906235998845659	25	diastole	12	B	500	systole
362.4757000000002	0.0906235998845659	25	diastole	13	B	500	systole
365.4711000000002	0.0856239688582718	26	diastole	1	B	500	systole
366.10440000000017	0.0856239688582718	26	diastole	2	B	500	systole
366.75440000000003	0.0856239688582718	26	diastole	3	B	500	systole
367.4044000000001	0.0856239688582718	26	diastole	4	B	500	systole
368.06600000000003	0.0856239688582718	26	diastole	5	B	500	systole
368.7741000000001	0.0856239688582718	26	diastole	6	B	500	systole
369.54240000000004	0.0856239688582718	26	diastole	7	B	500	systole
370.35210000000006	0.0856239688582718	26	diastole	8	B	500	systole
371.1604000000002	0.0856239688582718	26	diastole	9	B	500	systole
371.9204000000002	0.0856239688582718	26	diastole	10	B	500	systole
372.67100000000005	0.0856239688582718	26	diastole	11	B	500	systole
373.3211000000001	0.0856239688582718	26	diastole	12	B	500	systole
373.9712000000002	0.0856239688582718	26	diastole	13	B	500	systole
374.5611000000001	0.0856239688582718	26	diastole	14	B	500	systole
377.01060000000007	0.0212335125543177	27	systole	1	B	500	diastole
377.6709000000001	0.0212335125543177	27	systole	2	B	500	diastole
378.3312000000001	0.0212335125543177	27	systole	3	B	500	diastole
379.1621	0.0212335125543177	27	systole	4	B	500	diastole
379.9522000000002	0.0212335125543177	27	systole	5	B	500	diastole
380.81960000000004	0.0212335125543177	27	systole	6	B	500	diastole
380.9797000000001	0.0212335125543177	27	systole	7	B	500	diastole
381.13980000000015	0.0212335125543177	27	systole	8	B	500	diastole
382.21500000000015	0.0212335125543177	27	systole	9	B	500	diastole
383.2348000000002	0.0212335125543177	27	systole	10	B	500	diastole
384.10390000000007	0.0212335125543177	27	systole	11	B	500	diastole
385.0381000000002	0.0212335125543177	27	systole	12	B	500	diastole
385.8564000000001	0.0212335125543177	27	systole	13	B	500	diastole
386.6367	0.0212335125543177	27	systole	14	B	500	diastole
388.6101000000001	0.0243870503036305	28	systole	1	B	500	diastole
389.31010000000015	0.0243870503036305	28	systole	2	B	500	diastole
390.05500000000006	0.0243870503036305	28	systole	3	B	500	diastole
391.0466000000001	0.0243870503036305	28	systole	4	B	500	diastole
392.0264000000002	0.0243870503036305	28	systole	5	B	500	diastole
392.7763	0.0243870503036305	28	systole	6	B	500	diastole
393.57680000000005	0.0243870503036305	28	systole	7	B	500	diastole
394.2669000000001	0.0243870503036305	28	systole	8	B	500	diastole
394.94690000000014	0.0243870503036305	28	systole	9	B	500	diastole
395.6268	0.0243870503036305	28	systole	10	B	500	diastole
395.83400000000006	0.0243870503036305	28	systole	11	B	500	diastole
396.4479000000001	0.0243870503036305	28	systole	12	B	500	diastole
397.0504000000001	0.0243870503036305	28	systole	13	B	500	diastole
397.6704000000002	0.0243870503036305	28	systole	14	B	500	diastole
399.4077000000002	0.0800100312335416	29	systole	1	B	500	systole
400.07770000000005	0.0800100312335416	29	systole	2	B	500	systole
400.7792000000002	0.0800100312335416	29	systole	3	B	500	systole
401.4691	0.0800100312335416	29	systole	4	B	500	systole
402.26240000000007	0.0800100312335416	29	systole	5	B	500	systole
403.04830000000015	0.0800100312335416	29	systole	6	B	500	systole
403.8283000000001	0.0800100312335416	29	systole	7	B	500	systole
404.6732000000002	0.0800100312335416	29	systole	8	B	500	systole
405.4832000000001	0.0800100312335416	29	systole	9	B	500	systole
406.3398000000002	0.0800100312335416	29	systole	10	B	500	systole
407.1346000000001	0.0800100312335416	29	systole	11	B	500	systole
407.8846000000001	0.0800100312335416	29	systole	12	B	500	systole
408.6246000000001	0.0800100312335416	29	systole	13	B	500	systole
409.3646000000001	0.0800100312335416	29	systole	14	B	500	systole
418.3393000000001	0.0793798750964924	30	diastole	1	B	500	diastole
418.96590000000015	0.0793798750964924	30	diastole	2	B	500	diastole
419.6258	0.0793798750964924	30	diastole	3	B	500	diastole
420.2858000000001	0.0793798750964924	30	diastole	4	B	500	diastole
420.9508000000001	0.0793798750964924	30	diastole	5	B	500	diastole
421.7423000000001	0.0793798750964924	30	diastole	6	B	500	diastole
422.5054	0.0793798750964924	30	diastole	7	B	500	diastole
423.06560000000013	0.0793798750964924	30	diastole	8	B	500	diastole
423.6258	0.0793798750964924	30	diastole	9	B	500	diastole
424.18600000000015	0.0793798750964924	30	diastole	10	B	500	diastole
424.9365	0.0793798750964924	30	diastole	11	B	500	diastole
425.7160000000001	0.0793798750964924	30	diastole	12	B	500	diastole
426.5196000000001	0.0793798750964924	30	diastole	13	B	500	diastole
426.779	0.0793798750964924	30	diastole	14	B	500	diastole
429.6622000000002	0.0794188751024194	31	systole	1	B	500	systole
430.36180000000013	0.0794188751024194	31	systole	2	B	500	systole
431.1170000000002	0.0794188751024194	31	systole	3	B	500	systole
431.8375000000001	0.0794188751024194	31	systole	4	B	500	systole
432.6318000000001	0.0794188751024194	31	systole	5	B	500	systole
433.39790000000016	0.0794188751024194	31	systole	6	B	500	systole
434.18780000000015	0.0794188751024194	31	systole	7	B	500	systole
434.8700000000001	0.0794188751024194	31	systole	8	B	500	systole
435.54010000000017	0.0794188751024194	31	systole	9	B	500	systole
436.2102000000002	0.0794188751024194	31	systole	10	B	500	systole
436.94100000000003	0.0794188751024194	31	systole	11	B	500	systole
437.7015000000001	0.0794188751024194	31	systole	12	B	500	systole
438.4615000000001	0.0794188751024194	31	systole	13	B	500	systole
442.0779	0.0949004930444061	32	diastole	1	B	500	diastole
442.7995000000001	0.0949004930444061	32	diastole	2	B	500	diastole
443.0914	0.0949004930444061	32	diastole	3	B	500	diastole
443.2514000000001	0.0949004930444061	32	diastole	4	B	500	diastole
443.4114000000002	0.0949004930444061	32	diastole	5	B	500	diastole
443.7704000000001	0.0949004930444061	32	diastole	6	B	500	diastole
444.2876000000001	0.0949004930444061	32	diastole	7	B	500	diastole
444.8629000000001	0.0949004930444061	32	diastole	8	B	500	diastole
445.53290000000015	0.0949004930444061	32	diastole	9	B	500	diastole
446.3126000000002	0.0949004930444061	32	diastole	10	B	500	diastole
447.0923	0.0949004930444061	32	diastole	11	B	500	diastole
447.84730000000013	0.0949004930444061	32	diastole	12	B	500	diastole
448.5971000000002	0.0949004930444061	32	diastole	13	B	500	diastole
449.2971	0.0949004930444061	32	diastole	14	B	500	diastole
450.1355000000001	0.0949004930444061	32	diastole	15	B	500	diastole
450.9556	0.0949004930444061	32	diastole	16	B	500	diastole
453.4141000000002	0.0962528404779732	33	diastole	1	B	500	systole
454.04740000000015	0.0962528404779732	33	diastole	2	B	500	systole
454.6974	0.0962528404779732	33	diastole	3	B	500	systole
455.29420000000005	0.0962528404779732	33	diastole	4	B	500	systole
455.9091000000001	0.0962528404779732	33	diastole	5	B	500	systole
456.5491000000002	0.0962528404779732	33	diastole	6	B	500	systole
457.18910000000005	0.0962528404779732	33	diastole	7	B	500	systole
457.7927000000002	0.0962528404779732	33	diastole	8	B	500	systole
458.5127	0.0962528404779732	33	diastole	9	B	500	systole
459.2627	0.0962528404779732	33	diastole	10	B	500	systole
460.0226	0.0962528404779732	33	diastole	11	B	500	systole
460.74260000000004	0.0962528404779732	33	diastole	12	B	500	systole
461.52930000000015	0.0962528404779732	33	diastole	13	B	500	systole
462.4009000000001	0.0962528404779732	33	diastole	14	B	500	systole
465.1861000000001	0.0956014811526984	34	diastole	1	B	500	diastole
465.9060000000002	0.0956014811526984	34	diastole	2	B	500	diastole
466.6259	0.0956014811526984	34	diastole	3	B	500	diastole
467.3457000000001	0.0956014811526984	34	diastole	4	B	500	diastole
467.9094	0.0956014811526984	34	diastole	5	B	500	diastole
468.2939000000001	0.0956014811526984	34	diastole	6	B	500	diastole
468.5738000000001	0.0956014811526984	34	diastole	7	B	500	diastole
468.70630000000006	0.0956014811526984	34	diastole	8	B	500	diastole
468.75880000000006	0.0956014811526984	34	diastole	9	B	500	diastole
468.9238	0.0956014811526984	34	diastole	10	B	500	diastole
469.11530000000016	0.0956014811526984	34	diastole	11	B	500	diastole
469.28520000000026	0.0956014811526984	34	diastole	12	B	500	diastole
469.4363000000003	0.0956014811526984	34	diastole	13	B	500	diastole
469.5738000000001	0.0956014811526984	34	diastole	14	B	500	diastole
469.7428	0.0956014811526984	34	diastole	15	B	500	diastole
469.9126000000001	0.0956014811526984	34	diastole	16	B	500	diastole
470.08240000000023	0.0956014811526984	34	diastole	17	B	500	diastole
470.6809000000003	0.0956014811526984	34	diastole	18	B	500	diastole
471.2709	0.0956014811526984	34	diastole	19	B	500	diastole
472.01760000000013	0.0956014811526984	34	diastole	20	B	500	diastole
472.7177999999999	0.0956014811526984	34	diastole	21	B	500	diastole
473.4180000000001	0.0956014811526984	34	diastole	22	B	500	diastole
474.7750000000001	0.0956014811526984	34	diastole	23	B	500	diastole
479.45380000000023	0.0918701413320377	35	systole	1	B	500	systole
480.2434000000003	0.0918701413320377	35	systole	2	B	500	systole
480.94309999999996	0.0918701413320377	35	systole	3	B	500	systole
481.6636000000003	0.0918701413320377	35	systole	4	B	500	systole
482.4751000000001	0.0918701413320377	35	systole	5	B	500	systole
483.2751000000003	0.0918701413320377	35	systole	6	B	500	systole
484.1424999999999	0.0918701413320377	35	systole	7	B	500	systole
484.9925000000003	0.0918701413320377	35	systole	8	B	500	systole
485.8895000000002	0.0918701413320377	35	systole	9	B	500	systole
486.62750000000005	0.0918701413320377	35	systole	10	B	500	systole
487.37750000000005	0.0918701413320377	35	systole	11	B	500	systole
488.0547999999999	0.0918701413320377	35	systole	12	B	500	systole
490.9318000000003	0.0218550189165398	36	diastole	1	B	500	diastole
491.6618000000003	0.0218550189165398	36	diastole	2	B	500	diastole
491.89660000000003	0.0218550189165398	36	diastole	3	B	500	diastole
492.1067000000003	0.0218550189165398	36	diastole	4	B	500	diastole
492.31680000000006	0.0218550189165398	36	diastole	5	B	500	diastole
492.52700000000004	0.0218550189165398	36	diastole	6	B	500	diastole
492.6456000000003	0.0218550189165398	36	diastole	7	B	500	diastole
492.8058000000001	0.0218550189165398	36	diastole	8	B	500	diastole
492.9659999999999	0.0218550189165398	36	diastole	9	B	500	diastole
493.15610000000015	0.0218550189165398	36	diastole	10	B	500	diastole
493.8161	0.0218550189165398	36	diastole	11	B	500	diastole
494.4761000000003	0.0218550189165398	36	diastole	12	B	500	diastole
495.2640000000001	0.0218550189165398	36	diastole	13	B	500	diastole
496.04359999999997	0.0218550189165398	36	diastole	14	B	500	diastole
496.7636000000002	0.0218550189165398	36	diastole	15	B	500	diastole
496.971	0.0218550189165398	36	diastole	16	B	500	diastole
497.1489999999999	0.0218550189165398	36	diastole	17	B	500	diastole
497.3188	0.0218550189165398	36	diastole	18	B	500	diastole
497.6372000000001	0.0218550189165398	36	diastole	19	B	500	diastole
498.8285000000001	0.0218550189165398	36	diastole	20	B	500	diastole
499.52840000000015	0.0218550189165398	36	diastole	21	B	500	diastole
500.2283000000002	0.0218550189165398	36	diastole	22	B	500	diastole
502.0129999999999	0.0237416438758373	37	systole	1	B	500	diastole
502.1731	0.0237416438758373	37	systole	2	B	500	diastole
502.33320000000003	0.0237416438758373	37	systole	3	B	500	diastole
502.4934000000003	0.0237416438758373	37	systole	4	B	500	diastole
502.6534999999999	0.0237416438758373	37	systole	5	B	500	diastole
502.81359999999995	0.0237416438758373	37	systole	6	B	500	diastole
503.01929999999993	0.0237416438758373	37	systole	7	B	500	diastole
503.1795000000002	0.0237416438758373	37	systole	8	B	500	diastole
503.3283999999999	0.0237416438758373	37	systole	9	B	500	diastole
503.471	0.0237416438758373	37	systole	10	B	500	diastole
503.6289999999999	0.0237416438758373	37	systole	11	B	500	diastole
503.81899999999996	0.0237416438758373	37	systole	12	B	500	diastole
504.0091000000002	0.0237416438758373	37	systole	13	B	500	diastole
504.6492000000003	0.0237416438758373	37	systole	14	B	500	diastole
505.2892999999999	0.0237416438758373	37	systole	15	B	500	diastole
505.9295000000002	0.0237416438758373	37	systole	16	B	500	diastole
506.1412	0.0237416438758373	37	systole	17	B	500	diastole
506.3412000000003	0.0237416438758373	37	systole	18	B	500	diastole
506.49929999999995	0.0237416438758373	37	systole	19	B	500	diastole
506.6594	0.0237416438758373	37	systole	20	B	500	diastole
506.8137999999999	0.0237416438758373	37	systole	21	B	500	diastole
506.9836	0.0237416438758373	37	systole	22	B	500	diastole
507.1379999999999	0.0237416438758373	37	systole	23	B	500	diastole
507.2981	0.0237416438758373	37	systole	24	B	500	diastole
507.45820000000003	0.0237416438758373	37	systole	25	B	500	diastole
507.6183000000001	0.0237416438758373	37	systole	26	B	500	diastole
507.77829999999994	0.0237416438758373	37	systole	27	B	500	diastole
508.3782000000001	0.0237416438758373	37	systole	28	B	500	diastole
508.97800000000007	0.0237416438758373	37	systole	29	B	500	diastole
509.71810000000005	0.0237416438758373	37	systole	30	B	500	diastole
510.53549999999996	0.0237416438758373	37	systole	31	B	500	diastole
511.3393000000001	0.0237416438758373	37	systole	32	B	500	diastole
512.6623	0.0237416438758373	37	systole	33	B	500	diastole
516.1521000000002	0.0893530123867094	38	diastole	1	B	500	systole
516.8922000000002	0.0893530123867094	38	diastole	2	B	500	systole
517.6422000000002	0.0893530123867094	38	diastole	3	B	500	systole
518.3923	0.0893530123867094	38	diastole	4	B	500	systole
519.0959000000003	0.0893530123867094	38	diastole	5	B	500	systole
519.8160000000003	0.0893530123867094	38	diastole	6	B	500	systole
520.5361000000003	0.0893530123867094	38	diastole	7	B	500	systole
521.2562000000003	0.0893530123867094	38	diastole	8	B	500	systole
521.9028000000003	0.0893530123867094	38	diastole	9	B	500	systole
522.5129000000002	0.0893530123867094	38	diastole	10	B	500	systole
523.1129000000001	0.0893530123867094	38	diastole	11	B	500	systole
523.6827000000003	0.0893530123867094	38	diastole	12	B	500	systole
524.3026	0.0893530123867094	38	diastole	13	B	500	systole
527.1288	0.080618517124094	39	diastole	1	B	500	systole
527.9083	0.080618517124094	39	diastole	2	B	500	systole
528.8038999999999	0.080618517124094	39	diastole	3	B	500	systole
529.5806000000002	0.080618517124094	39	diastole	4	B	500	systole
530.5018	0.080618517124094	39	diastole	5	B	500	systole
531.3823000000002	0.080618517124094	39	diastole	6	B	500	systole
532.2020000000002	0.080618517124094	39	diastole	7	B	500	systole
532.9322000000002	0.080618517124094	39	diastole	8	B	500	systole
533.6623	0.080618517124094	39	diastole	9	B	500	systole
534.3722000000002	0.080618517124094	39	diastole	10	B	500	systole
535.0223000000001	0.080618517124094	39	diastole	11	B	500	systole
535.6356000000001	0.080618517124094	39	diastole	12	B	500	systole
536.2625000000003	0.080618517124094	39	diastole	13	B	500	systole
539.6962000000003	0.0937462813453748	40	diastole	1	B	500	systole
540.5266000000001	0.0937462813453748	40	diastole	2	B	500	systole
541.3569000000002	0.0937462813453748	40	diastole	3	B	500	systole
542.1611000000003	0.0937462813453748	40	diastole	4	B	500	systole
542.8516	0.0937462813453748	40	diastole	5	B	500	systole
543.5332000000003	0.0937462813453748	40	diastole	6	B	500	systole
544.2411999999999	0.0937462813453748	40	diastole	7	B	500	systole
545.1077	0.0937462813453748	40	diastole	8	B	500	systole
545.8910000000001	0.0937462813453748	40	diastole	9	B	500	systole
546.4758999999999	0.0937462813453748	40	diastole	10	B	500	systole
547.0109000000002	0.0937462813453748	40	diastole	11	B	500	systole
547.2883000000002	0.0937462813453748	40	diastole	12	B	500	systole
548.0662000000002	0.0937462813453748	40	diastole	13	B	500	systole
548.8847000000001	0.0937462813453748	40	diastole	14	B	500	systole
557.0735	0.0637740439269691	41	systole	1	B	500	systole
557.8234000000002	0.0637740439269691	41	systole	2	B	500	systole
558.5844000000002	0.0637740439269691	41	systole	3	B	500	systole
559.2867000000001	0.0637740439269691	41	systole	4	B	500	systole
560.0066000000002	0.0637740439269691	41	systole	5	B	500	systole
560.7586000000001	0.0637740439269691	41	systole	6	B	500	systole
561.5371	0.0637740439269691	41	systole	7	B	500	systole
562.3777	0.0637740439269691	41	systole	8	B	500	systole
563.1134999999999	0.0637740439269691	41	systole	9	B	500	systole
563.8435	0.0637740439269691	41	systole	10	B	500	systole
564.5736000000002	0.0637740439269691	41	systole	11	B	500	systole
565.3564000000001	0.0637740439269691	41	systole	12	B	500	systole
566.1881000000003	0.0637740439269691	41	systole	13	B	500	systole
566.9812999999999	0.0637740439269691	41	systole	14	B	500	systole
570.9509000000003	0.0831389188533648	42	systole	1	B	500	systole
571.6111000000001	0.0831389188533648	42	systole	2	B	500	systole
572.2510000000002	0.0831389188533648	42	systole	3	B	500	systole
572.8807999999999	0.0831389188533648	42	systole	4	B	500	systole
573.5133000000001	0.0831389188533648	42	systole	5	B	500	systole
574.1316999999999	0.0831389188533648	42	systole	6	B	500	systole
574.7617	0.0831389188533648	42	systole	7	B	500	systole
575.4733000000001	0.0831389188533648	42	systole	8	B	500	systole
576.2049000000002	0.0831389188533648	42	systole	9	B	500	systole
576.9149000000002	0.0831389188533648	42	systole	10	B	500	systole
577.6404000000002	0.0831389188533648	42	systole	11	B	500	systole
578.3600999999999	0.0831389188533648	42	systole	12	B	500	systole
579.1327000000001	0.0831389188533648	42	systole	13	B	500	systole
579.8483000000001	0.0831389188533648	42	systole	14	B	500	systole
580.5581999999999	0.0831389188533648	42	systole	15	B	500	systole
584.3053	0.0887365581002086	43	diastole	1	B	500	systole
585.0554000000002	0.0887365581002086	43	diastole	2	B	500	systole
585.8056000000001	0.0887365581002086	43	diastole	3	B	500	systole
586.6453999999999	0.0887365581002086	43	diastole	4	B	500	systole
587.5055000000002	0.0887365581002086	43	diastole	5	B	500	systole
588.3974000000003	0.0887365581002086	43	diastole	6	B	500	systole
589.2474000000002	0.0887365581002086	43	diastole	7	B	500	systole
590.0897	0.0887365581002086	43	diastole	8	B	500	systole
590.8399	0.0887365581002086	43	diastole	9	B	500	systole
591.5396000000001	0.0887365581002086	43	diastole	10	B	500	systole
592.1896000000002	0.0887365581002086	43	diastole	11	B	500	systole
592.8296	0.0887365581002086	43	diastole	12	B	500	systole
597.5087000000003	0.021876849932596	44	diastole	1	B	500	systole
598.2787000000003	0.021876849932596	44	diastole	2	B	500	systole
599.2368999999999	0.021876849932596	44	diastole	3	B	500	systole
600.3119999999999	0.021876849932596	44	diastole	4	B	500	systole
601.4284000000002	0.021876849932596	44	diastole	5	B	500	systole
602.2284	0.021876849932596	44	diastole	6	B	500	systole
603.1884	0.021876849932596	44	diastole	7	B	500	systole
603.8585000000003	0.021876849932596	44	diastole	8	B	500	systole
604.5286000000001	0.021876849932596	44	diastole	9	B	500	systole
605.1387	0.021876849932596	44	diastole	10	B	500	systole
605.7488000000003	0.021876849932596	44	diastole	11	B	500	systole
606.2491	0.021876849932596	44	diastole	12	B	500	systole
606.7873	0.021876849932596	44	diastole	13	B	500	systole
607.4174000000003	0.021876849932596	44	diastole	14	B	500	systole
610.0634	0.021224457770586	45	diastole	1	B	500	diastole
610.2332000000001	0.021224457770586	45	diastole	2	B	500	diastole
610.3852000000002	0.021224457770586	45	diastole	3	B	500	diastole
610.5453000000002	0.021224457770586	45	diastole	4	B	500	diastole
610.7231999999999	0.021224457770586	45	diastole	5	B	500	diastole
610.9032000000002	0.021224457770586	45	diastole	6	B	500	diastole
611.0832	0.021224457770586	45	diastole	7	B	500	diastole
611.2931000000003	0.021224457770586	45	diastole	8	B	500	diastole
611.4450999999999	0.021224457770586	45	diastole	9	B	500	diastole
611.6052	0.021224457770586	45	diastole	10	B	500	diastole
611.7653	0.021224457770586	45	diastole	11	B	500	diastole
611.9351000000001	0.021224457770586	45	diastole	12	B	500	diastole
612.1433999999999	0.021224457770586	45	diastole	13	B	500	diastole
612.3035	0.021224457770586	45	diastole	14	B	500	diastole
612.4725000000003	0.021224457770586	45	diastole	15	B	500	diastole
612.6325999999999	0.021224457770586	45	diastole	16	B	500	diastole
612.8248000000003	0.021224457770586	45	diastole	17	B	500	diastole
613.0251000000003	0.021224457770586	45	diastole	18	B	500	diastole
613.1774	0.021224457770586	45	diastole	19	B	500	diastole
613.3375000000001	0.021224457770586	45	diastole	20	B	500	diastole
613.5151000000001	0.021224457770586	45	diastole	21	B	500	diastole
613.6779999999999	0.021224457770586	45	diastole	22	B	500	diastole
613.8458	0.021224457770586	45	diastole	23	B	500	diastole
614.0522000000001	0.021224457770586	45	diastole	24	B	500	diastole
614.2058000000002	0.021224457770586	45	diastole	25	B	500	diastole
614.3659000000002	0.021224457770586	45	diastole	26	B	500	diastole
614.5426000000002	0.021224457770586	45	diastole	27	B	500	diastole
614.7027000000003	0.021224457770586	45	diastole	28	B	500	diastole
614.8627999999999	0.021224457770586	45	diastole	29	B	500	diastole
615.0329999999999	0.021224457770586	45	diastole	30	B	500	diastole
615.2031000000002	0.021224457770586	45	diastole	31	B	500	diastole
615.3633	0.021224457770586	45	diastole	32	B	500	diastole
615.5338999999999	0.021224457770586	45	diastole	33	B	500	diastole
615.6935000000003	0.021224457770586	45	diastole	34	B	500	diastole
615.9034999999999	0.021224457770586	45	diastole	35	B	500	diastole
616.1134999999999	0.021224457770586	45	diastole	36	B	500	diastole
616.3235	0.021224457770586	45	diastole	37	B	500	diastole
616.4755	0.021224457770586	45	diastole	38	B	500	diastole
616.645	0.021224457770586	45	diastole	39	B	500	diastole
616.8144000000002	0.021224457770586	45	diastole	40	B	500	diastole
616.9674	0.021224457770586	45	diastole	41	B	500	diastole
617.1654000000003	0.021224457770586	45	diastole	42	B	500	diastole
617.3652999999999	0.021224457770586	45	diastole	43	B	500	diastole
617.5653000000002	0.021224457770586	45	diastole	44	B	500	diastole
617.7631000000001	0.021224457770586	45	diastole	45	B	500	diastole
617.9324000000001	0.021224457770586	45	diastole	46	B	500	diastole
618.0925000000002	0.021224457770586	45	diastole	47	B	500	diastole
618.2628	0.021224457770586	45	diastole	48	B	500	diastole
618.4229	0.021224457770586	45	diastole	49	B	500	diastole
618.5830000000001	0.021224457770586	45	diastole	50	B	500	diastole
618.7352000000001	0.021224457770586	45	diastole	51	B	500	diastole
618.9131000000002	0.021224457770586	45	diastole	52	B	500	diastole
619.0828999999999	0.021224457770586	45	diastole	53	B	500	diastole
619.2350999999999	0.021224457770586	45	diastole	54	B	500	diastole
619.3953000000001	0.021224457770586	45	diastole	55	B	500	diastole
619.5646999999999	0.021224457770586	45	diastole	56	B	500	diastole
619.7177000000001	0.021224457770586	45	diastole	57	B	500	diastole
619.8877000000002	0.021224457770586	45	diastole	58	B	500	diastole
621.9052000000001	0.0206182686379179	46	diastole	1	B	500	systole
622.5653000000002	0.0206182686379179	46	diastole	2	B	500	systole
623.2254000000003	0.0206182686379179	46	diastole	3	B	500	systole
623.873	0.0206182686379179	46	diastole	4	B	500	systole
624.9151999999999	0.0206182686379179	46	diastole	5	B	500	systole
625.9286999999999	0.0206182686379179	46	diastole	6	B	500	systole
626.5765000000001	0.0206182686379179	46	diastole	7	B	500	systole
627.2065000000002	0.0206182686379179	46	diastole	8	B	500	systole
627.7652000000003	0.0206182686379179	46	diastole	9	B	500	systole
628.2384000000002	0.0206182686379179	46	diastole	10	B	500	systole
628.7868000000003	0.0206182686379179	46	diastole	11	B	500	systole
629.4169000000002	0.0206182686379179	46	diastole	12	B	500	systole
630.0468000000001	0.0206182686379179	46	diastole	13	B	500	systole
630.6768000000002	0.0206182686379179	46	diastole	14	B	500	systole
631.2885000000001	0.0206182686379179	46	diastole	15	B	500	systole
637.4972000000002	0.0968846880132332	47	systole	1	B	500	diastole
638.3172	0.0968846880132332	47	systole	2	B	500	diastole
639.0171	0.0968846880132332	47	systole	3	B	500	diastole
639.7170000000001	0.0968846880132332	47	systole	4	B	500	diastole
640.3469	0.0968846880132332	47	systole	5	B	500	diastole
640.9868999999999	0.0968846880132332	47	systole	6	B	500	diastole
641.6269000000002	0.0968846880132332	47	systole	7	B	500	diastole
642.2669000000001	0.0968846880132332	47	systole	8	B	500	diastole
642.9069	0.0968846880132332	47	systole	9	B	500	diastole
643.6008999999999	0.0968846880132332	47	systole	10	B	500	diastole
644.4005999999999	0.0968846880132332	47	systole	11	B	500	diastole
644.6876000000002	0.0968846880132332	47	systole	12	B	500	diastole
644.8976000000002	0.0968846880132332	47	systole	13	B	500	diastole
645.1376	0.0968846880132332	47	systole	14	B	500	diastole
645.7197000000001	0.0968846880132332	47	systole	15	B	500	diastole
646.3197	0.0968846880132332	47	systole	16	B	500	diastole
650.0673000000002	0.0812451092642732	48	diastole	1	B	500	systole
650.7806	0.0812451092642732	48	diastole	2	B	500	systole
651.4506000000001	0.0812451092642732	48	diastole	3	B	500	systole
652.1206999999999	0.0812451092642732	48	diastole	4	B	500	systole
652.7908000000002	0.0812451092642732	48	diastole	5	B	500	systole
653.4608000000003	0.0812451092642732	48	diastole	6	B	500	systole
654.0362	0.0812451092642732	48	diastole	7	B	500	systole
654.5725000000002	0.0812451092642732	48	diastole	8	B	500	systole
655.1504	0.0812451092642732	48	diastole	9	B	500	systole
655.7105999999999	0.0812451092642732	48	diastole	10	B	500	systole
656.2820000000002	0.0812451092642732	48	diastole	11	B	500	systole
656.8143	0.0812451092642732	48	diastole	12	B	500	systole
657.3409000000001	0.0812451092642732	48	diastole	13	B	500	systole
657.8906000000002	0.0812451092642732	48	diastole	14	B	500	systole
658.6905000000002	0.0812451092642732	48	diastole	15	B	500	systole
659.5406000000003	0.0812451092642732	48	diastole	16	B	500	systole
662.2361000000001	0.0751506801461801	49	diastole	1	B	500	diastole
663.0860000000002	0.0751506801461801	49	diastole	2	B	500	diastole
664.0454	0.0751506801461801	49	diastole	3	B	500	diastole
664.8053	0.0751506801461801	49	diastole	4	B	500	diastole
665.5651000000003	0.0751506801461801	49	diastole	5	B	500	diastole
666.2752	0.0751506801461801	49	diastole	6	B	500	diastole
666.9551000000001	0.0751506801461801	49	diastole	7	B	500	diastole
667.6551	0.0751506801461801	49	diastole	8	B	500	diastole
668.2705000000001	0.0751506801461801	49	diastole	9	B	500	diastole
668.8872000000001	0.0751506801461801	49	diastole	10	B	500	diastole
669.4522999999999	0.0751506801461801	49	diastole	11	B	500	diastole
669.7125000000001	0.0751506801461801	49	diastole	12	B	500	diastole
669.855	0.0751506801461801	49	diastole	13	B	500	diastole
670.0150000000003	0.0751506801461801	49	diastole	14	B	500	diastole
670.1775000000002	0.0751506801461801	49	diastole	15	B	500	diastole
670.3575000000001	0.0751506801461801	49	diastole	16	B	500	diastole
671.1929	0.0751506801461801	49	diastole	17	B	500	diastole
671.9629	0.0751506801461801	49	diastole	18	B	500	diastole
674.2579000000001	0.0506236561341211	50	systole	1	B	500	systole
674.9779000000003	0.0506236561341211	50	systole	2	B	500	systole
675.6979000000001	0.0506236561341211	50	systole	3	B	500	systole
676.3787000000002	0.0506236561341211	50	systole	4	B	500	systole
677.0586000000003	0.0506236561341211	50	systole	5	B	500	systole
677.8319999999999	0.0506236561341211	50	systole	6	B	500	systole
678.712	0.0506236561341211	50	systole	7	B	500	systole
679.6319000000003	0.0506236561341211	50	systole	8	B	500	systole
680.5518000000002	0.0506236561341211	50	systole	9	B	500	systole
681.4918000000002	0.0506236561341211	50	systole	10	B	500	systole
682.4277999999999	0.0506236561341211	50	systole	11	B	500	systole
683.3537000000001	0.0506236561341211	50	systole	12	B	500	systole
686.1921000000002	0.1062511247582733	51	systole	1	B	500	diastole
686.9421000000002	0.1062511247582733	51	systole	2	B	500	diastole
687.5457000000001	0.1062511247582733	51	systole	3	B	500	diastole
688.2658000000001	0.1062511247582733	51	systole	4	B	500	diastole
688.9955	0.1062511247582733	51	systole	5	B	500	diastole
689.7455	0.1062511247582733	51	systole	6	B	500	diastole
690.4038	0.1062511247582733	51	systole	7	B	500	diastole
691.0740000000001	0.1062511247582733	51	systole	8	B	500	diastole
691.3723	0.1062511247582733	51	systole	9	B	500	diastole
692.0614	0.1062511247582733	51	systole	10	B	500	diastole
692.9014999999999	0.1062511247582733	51	systole	11	B	500	diastole
693.7744000000002	0.1062511247582733	51	systole	12	B	500	diastole
694.5613000000003	0.1062511247582733	51	systole	13	B	500	diastole
699.3418999999999	0.0956377321854233	52	diastole	1	B	500	diastole
700.1219000000001	0.0956377321854233	52	diastole	2	B	500	diastole
700.9016999999999	0.0956377321854233	52	diastole	3	B	500	diastole
701.6815999999999	0.0956377321854233	52	diastole	4	B	500	diastole
702.4367000000002	0.0956377321854233	52	diastole	5	B	500	diastole
703.2516	0.0956377321854233	52	diastole	6	B	500	diastole
704.0418	0.0956377321854233	52	diastole	7	B	500	diastole
704.8402000000001	0.0956377321854233	52	diastole	8	B	500	diastole
705.6102000000001	0.0956377321854233	52	diastole	9	B	500	diastole
706.3517999999999	0.0956377321854233	52	diastole	10	B	500	diastole
707.0819000000001	0.0956377321854233	52	diastole	11	B	500	diastole
707.8119000000002	0.0956377321854233	52	diastole	12	B	500	diastole
731.3621000000003	0.0937588486121967	53	systole	1	B	500	diastole
732.0720000000001	0.0937588486121967	53	systole	2	B	500	diastole
732.7820000000002	0.0937588486121967	53	systole	3	B	500	diastole
733.4527000000003	0.0937588486121967	53	systole	4	B	500	diastole
734.1313	0.0937588486121967	53	systole	5	B	500	diastole
734.8054000000002	0.0937588486121967	53	systole	6	B	500	diastole
735.48	0.0937588486121967	53	systole	7	B	500	diastole
735.7521000000002	0.0937588486121967	53	systole	8	B	500	diastole
735.9171000000001	0.0937588486121967	53	systole	9	B	500	diastole
736.0945999999999	0.0937588486121967	53	systole	10	B	500	diastole
736.6739000000002	0.0937588486121967	53	systole	11	B	500	diastole
737.3540000000003	0.0937588486121967	53	systole	12	B	500	diastole
738.0637000000002	0.0937588486121967	53	systole	13	B	500	diastole
738.8137000000002	0.0937588486121967	53	systole	14	B	500	diastole
739.0796	0.0937588486121967	53	systole	15	B	500	diastole
739.1664000000001	0.0937588486121967	53	systole	16	B	500	diastole
739.3846000000003	0.0937588486121967	53	systole	17	B	500	diastole
739.5446000000002	0.0937588486121967	53	systole	18	B	500	diastole
739.7046	0.0937588486121967	53	systole	19	B	500	diastole
739.8645999999999	0.0937588486121967	53	systole	20	B	500	diastole
740.6984000000002	0.0937588486121967	53	systole	21	B	500	diastole
743.7219	0.0862338937586173	54	diastole	1	B	500	systole
744.4920000000002	0.0862338937586173	54	diastole	2	B	500	systole
745.2620000000002	0.0862338937586173	54	diastole	3	B	500	systole
746.0320999999999	0.0862338937586173	54	diastole	4	B	500	systole
746.7202000000002	0.0862338937586173	54	diastole	5	B	500	systole
746.982	0.0862338937586173	54	diastole	6	B	500	systole
747.1869999999999	0.0862338937586173	54	diastole	7	B	500	systole
747.3920000000003	0.0862338937586173	54	diastole	8	B	500	systole
747.4247	0.0862338937586173	54	diastole	9	B	500	systole
748.0347000000002	0.0862338937586173	54	diastole	10	B	500	systole
748.6448	0.0862338937586173	54	diastole	11	B	500	systole
749.2847000000002	0.0862338937586173	54	diastole	12	B	500	systole
749.9247	0.0862338937586173	54	diastole	13	B	500	systole
750.5646999999999	0.0862338937586173	54	diastole	14	B	500	systole
750.9665	0.0862338937586173	54	diastole	15	B	500	systole
751.2766000000001	0.0862338937586173	54	diastole	16	B	500	systole
751.4483	0.0862338937586173	54	diastole	17	B	500	systole
751.6282000000001	0.0862338937586173	54	diastole	18	B	500	systole
751.7883000000002	0.0862338937586173	54	diastole	19	B	500	systole
751.9665	0.0862338937586173	54	diastole	20	B	500	systole
752.6642999999999	0.0862338937586173	54	diastole	21	B	500	systole
755.6252	0.0206189999589696	55	diastole	1	B	500	diastole
755.7951000000003	0.0206189999589696	55	diastole	2	B	500	diastole
755.9951000000001	0.0206189999589696	55	diastole	3	B	500	diastole
756.1471999999999	0.0206189999589696	55	diastole	4	B	500	diastole
756.3072999999999	0.0206189999589696	55	diastole	5	B	500	diastole
756.4674	0.0206189999589696	55	diastole	6	B	500	diastole
756.6275	0.0206189999589696	55	diastole	7	B	500	diastole
756.8053	0.0206189999589696	55	diastole	8	B	500	diastole
756.9574000000002	0.0206189999589696	55	diastole	9	B	500	diastole
757.1175000000003	0.0206189999589696	55	diastole	10	B	500	diastole
757.2872000000002	0.0206189999589696	55	diastole	11	B	500	diastole
757.4674	0.0206189999589696	55	diastole	12	B	500	diastole
757.6275	0.0206189999589696	55	diastole	13	B	500	diastole
757.8054000000002	0.0206189999589696	55	diastole	14	B	500	diastole
757.9574000000002	0.0206189999589696	55	diastole	15	B	500	diastole
758.1175000000003	0.0206189999589696	55	diastole	16	B	500	diastole
758.3253	0.0206189999589696	55	diastole	17	B	500	diastole
758.4774000000002	0.0206189999589696	55	diastole	18	B	500	diastole
758.6375000000003	0.0206189999589696	55	diastole	19	B	500	diastole
758.8353999999999	0.0206189999589696	55	diastole	20	B	500	diastole
759.0522000000001	0.0206189999589696	55	diastole	21	B	500	diastole
759.2521999999999	0.0206189999589696	55	diastole	22	B	500	diastole
759.4504999999999	0.0206189999589696	55	diastole	23	B	500	diastole
759.6576	0.0206189999589696	55	diastole	24	B	500	diastole
759.8274000000001	0.0206189999589696	55	diastole	25	B	500	diastole
759.9973	0.0206189999589696	55	diastole	26	B	500	diastole
760.1573000000003	0.0206189999589696	55	diastole	27	B	500	diastole
760.3004000000001	0.0206189999589696	55	diastole	28	B	500	diastole
760.4603999999999	0.0206189999589696	55	diastole	29	B	500	diastole
760.6773000000003	0.0206189999589696	55	diastole	30	B	500	diastole
760.8605000000002	0.0206189999589696	55	diastole	31	B	500	diastole
761.0604000000003	0.0206189999589696	55	diastole	32	B	500	diastole
761.2035000000001	0.0206189999589696	55	diastole	33	B	500	diastole
761.3634999999999	0.0206189999589696	55	diastole	34	B	500	diastole
761.5333	0.0206189999589696	55	diastole	35	B	500	diastole
761.6950999999999	0.0206189999589696	55	diastole	36	B	500	diastole
761.8649	0.0206189999589696	55	diastole	37	B	500	diastole
762.0250000000001	0.0206189999589696	55	diastole	38	B	500	diastole
762.1851000000001	0.0206189999589696	55	diastole	39	B	500	diastole
762.3548000000001	0.0206189999589696	55	diastole	40	B	500	diastole
762.5248000000001	0.0206189999589696	55	diastole	41	B	500	diastole
762.6948000000002	0.0206189999589696	55	diastole	42	B	500	diastole
762.8471	0.0206189999589696	55	diastole	43	B	500	diastole
763.0250000000001	0.0206189999589696	55	diastole	44	B	500	diastole
763.1948000000002	0.0206189999589696	55	diastole	45	B	500	diastole
763.3650000000002	0.0206189999589696	55	diastole	46	B	500	diastole
763.5351	0.0206189999589696	55	diastole	47	B	500	diastole
763.7051999999999	0.0206189999589696	55	diastole	48	B	500	diastole
763.8753000000002	0.0206189999589696	55	diastole	49	B	500	diastole
764.0353	0.0206189999589696	55	diastole	50	B	500	diastole
764.1954000000001	0.0206189999589696	55	diastole	51	B	500	diastole
764.4039000000002	0.0206189999589696	55	diastole	52	B	500	diastole
764.5640000000003	0.0206189999589696	55	diastole	53	B	500	diastole
764.7240999999999	0.0206189999589696	55	diastole	54	B	500	diastole
764.8842	0.0206189999589696	55	diastole	55	B	500	diastole
765.7339999999999	0.0206189999589696	55	diastole	56	B	500	diastole
767.9391	0.0243903251830488	56	diastole	1	B	500	diastole
768.5789	0.0243903251830488	56	diastole	2	B	500	diastole
769.2186999999999	0.0243903251830488	56	diastole	3	B	500	diastole
770.1886	0.0243903251830488	56	diastole	4	B	500	diastole
770.7986000000001	0.0243903251830488	56	diastole	5	B	500	diastole
771.0187000000001	0.0243903251830488	56	diastole	6	B	500	diastole
771.2067000000002	0.0243903251830488	56	diastole	7	B	500	diastole
771.4182000000001	0.0243903251830488	56	diastole	8	B	500	diastole
771.5767000000001	0.0243903251830488	56	diastole	9	B	500	diastole
771.7353000000003	0.0243903251830488	56	diastole	10	B	500	diastole
771.8953999999999	0.0243903251830488	56	diastole	11	B	500	diastole
772.0554999999999	0.0243903251830488	56	diastole	12	B	500	diastole
772.2332000000001	0.0243903251830488	56	diastole	13	B	500	diastole
772.3852999999999	0.0243903251830488	56	diastole	14	B	500	diastole
772.5454	0.0243903251830488	56	diastole	15	B	500	diastole
772.7048	0.0243903251830488	56	diastole	16	B	500	diastole
772.8652999999999	0.0243903251830488	56	diastole	17	B	500	diastole
773.0251000000003	0.0243903251830488	56	diastole	18	B	500	diastole
773.1851999999999	0.0243903251830488	56	diastole	19	B	500	diastole
773.3453	0.0243903251830488	56	diastole	20	B	500	diastole
773.5054	0.0243903251830488	56	diastole	21	B	500	diastole
773.7056000000002	0.0243903251830488	56	diastole	22	B	500	diastole
773.9055000000003	0.0243903251830488	56	diastole	23	B	500	diastole
774.0655999999999	0.0243903251830488	56	diastole	24	B	500	diastole
774.2629999999999	0.0243903251830488	56	diastole	25	B	500	diastole
774.4153000000001	0.0243903251830488	56	diastole	26	B	500	diastole
774.5927000000001	0.0243903251830488	56	diastole	27	B	500	diastole
774.7528000000002	0.0243903251830488	56	diastole	28	B	500	diastole
774.9512	0.0243903251830488	56	diastole	29	B	500	diastole
775.1412	0.0243903251830488	56	diastole	30	B	500	diastole
775.3013000000001	0.0243903251830488	56	diastole	31	B	500	diastole
775.4614999999999	0.0243903251830488	56	diastole	32	B	500	diastole
775.6216	0.0243903251830488	56	diastole	33	B	500	diastole
775.7817	0.0243903251830488	56	diastole	34	B	500	diastole
775.9418000000001	0.0243903251830488	56	diastole	35	B	500	diastole
776.1019000000001	0.0243903251830488	56	diastole	36	B	500	diastole
776.2620999999999	0.0243903251830488	56	diastole	37	B	500	diastole
776.4519	0.0243903251830488	56	diastole	38	B	500	diastole
776.6417000000001	0.0243903251830488	56	diastole	39	B	500	diastole
776.8018999999999	0.0243903251830488	56	diastole	40	B	500	diastole
776.9717	0.0243903251830488	56	diastole	41	B	500	diastole
777.1318000000001	0.0243903251830488	56	diastole	42	B	500	diastole
778.4929000000002	0.0206300874706357	57	systole	1	B	500	diastole
778.6530000000002	0.0206300874706357	57	systole	2	B	500	diastole
778.8131000000003	0.0206300874706357	57	systole	3	B	500	diastole
778.9731999999999	0.0206300874706357	57	systole	4	B	500	diastole
779.1429000000003	0.0206300874706357	57	systole	5	B	500	diastole
779.3127	0.0206300874706357	57	systole	6	B	500	diastole
779.5027	0.0206300874706357	57	systole	7	B	500	diastole
779.6628000000001	0.0206300874706357	57	systole	8	B	500	diastole
779.8229000000001	0.0206300874706357	57	systole	9	B	500	diastole
779.9927000000002	0.0206300874706357	57	systole	10	B	500	diastole
780.1683000000003	0.0206300874706357	57	systole	11	B	500	diastole
780.3582000000001	0.0206300874706357	57	systole	12	B	500	diastole
780.5583000000001	0.0206300874706357	57	systole	13	B	500	diastole
780.7545	0.0206300874706357	57	systole	14	B	500	diastole
780.9187999999999	0.0206300874706357	57	systole	15	B	500	diastole
781.0889000000002	0.0206300874706357	57	systole	16	B	500	diastole
781.2586000000001	0.0206300874706357	57	systole	17	B	500	diastole
781.4186	0.0206300874706357	57	systole	18	B	500	diastole
781.5789	0.0206300874706357	57	systole	19	B	500	diastole
781.7483000000002	0.0206300874706357	57	systole	20	B	500	diastole
781.9184	0.0206300874706357	57	systole	21	B	500	diastole
782.0885000000003	0.0206300874706357	57	systole	22	B	500	diastole
782.6088	0.0206300874706357	57	systole	23	B	500	diastole
783.3088000000002	0.0206300874706357	57	systole	24	B	500	diastole
784.0087000000003	0.0206300874706357	57	systole	25	B	500	diastole
784.7087000000001	0.0206300874706357	57	systole	26	B	500	diastole
785.4987000000001	0.0206300874706357	57	systole	27	B	500	diastole
786.5028000000002	0.0206300874706357	57	systole	28	B	500	diastole
787.6019000000001	0.0206300874706357	57	systole	29	B	500	diastole
788.3917999999999	0.0206300874706357	57	systole	30	B	500	diastole
790.1732000000002	0.0200188937596976	58	diastole	1	B	500	systole
790.8212000000003	0.0200188937596976	58	diastole	2	B	500	systole
791.5008000000003	0.0200188937596976	58	diastole	3	B	500	systole
792.1305000000002	0.0200188937596976	58	diastole	4	B	500	systole
792.9653000000003	0.0200188937596976	58	diastole	5	B	500	systole
794.3306000000002	0.0200188937596976	58	diastole	6	B	500	systole
795.0907000000002	0.0200188937596976	58	diastole	7	B	500	systole
796.0311999999999	0.0200188937596976	58	diastole	8	B	500	systole
796.9112	0.0200188937596976	58	diastole	9	B	500	systole
797.8926999999999	0.0200188937596976	58	diastole	10	B	500	systole
798.8526999999999	0.0200188937596976	58	diastole	11	B	500	systole
799.7778000000003	0.0200188937596976	58	diastole	12	B	500	systole
803.3036000000002	0.0399983624229207	59	systole	1	B	500	systole
803.9735000000001	0.0399983624229207	59	systole	2	B	500	systole
804.6435000000001	0.0399983624229207	59	systole	3	B	500	systole
805.2835	0.0399983624229207	59	systole	4	B	500	systole
805.9234999999999	0.0399983624229207	59	systole	5	B	500	systole
806.0889999999999	0.0399983624229207	59	systole	6	B	500	systole
806.5990000000002	0.0399983624229207	59	systole	7	B	500	systole
807.299	0.0399983624229207	59	systole	8	B	500	systole
808.049	0.0399983624229207	59	systole	9	B	500	systole
809.0673000000002	0.0399983624229207	59	systole	10	B	500	systole
810.2060999999999	0.0399983624229207	59	systole	11	B	500	systole
811.0361000000003	0.0399983624229207	59	systole	12	B	500	systole
812.0136000000002	0.0399983624229207	59	systole	13	B	500	systole
812.8071	0.0399983624229207	59	systole	14	B	500	systole
817.2402000000002	0.0250028609298169	60	diastole	1	B	500	diastole
817.4099000000001	0.0250028609298169	60	diastole	2	B	500	diastole
817.5533	0.0250028609298169	60	diastole	3	B	500	diastole
817.7231999999999	0.0250028609298169	60	diastole	4	B	500	diastole
817.8832000000002	0.0250028609298169	60	diastole	5	B	500	diastole
818.0432000000001	0.0250028609298169	60	diastole	6	B	500	diastole
818.3632000000002	0.0250028609298169	60	diastole	7	B	500	diastole
818.6831999999999	0.0250028609298169	60	diastole	8	B	500	diastole
819.3632000000002	0.0250028609298169	60	diastole	9	B	500	diastole
820.0333	0.0250028609298169	60	diastole	10	B	500	diastole
820.7033999999999	0.0250028609298169	60	diastole	11	B	500	diastole
821.4033	0.0250028609298169	60	diastole	12	B	500	diastole
822.2784999999999	0.0250028609298169	60	diastole	13	B	500	diastole
823.1439	0.0250028609298169	60	diastole	14	B	500	diastole
823.5340000000001	0.0250028609298169	60	diastole	15	B	500	diastole
823.7038000000002	0.0250028609298169	60	diastole	16	B	500	diastole
823.8735999999999	0.0250028609298169	60	diastole	17	B	500	diastole
824.0974000000001	0.0250028609298169	60	diastole	18	B	500	diastole
824.2837	0.0250028609298169	60	diastole	19	B	500	diastole
825.0636	0.0250028609298169	60	diastole	20	B	500	diastole
825.9136000000003	0.0250028609298169	60	diastole	21	B	500	diastole
826.2836000000002	0.0250028609298169	60	diastole	22	B	500	diastole
826.6537000000003	0.0250028609298169	60	diastole	23	B	500	diastole
826.8957	0.0250028609298169	60	diastole	24	B	500	diastole
827.0957000000003	0.0250028609298169	60	diastole	25	B	500	diastole
828.6788999999999	0.0212487748358398	61	systole	1	B	500	diastole
829.2706000000003	0.0212487748358398	61	systole	2	B	500	diastole
829.8506000000002	0.0212487748358398	61	systole	3	B	500	diastole
830.4306999999999	0.0212487748358398	61	systole	4	B	500	diastole
830.5789	0.0212487748358398	61	systole	5	B	500	diastole
830.7389000000003	0.0212487748358398	61	systole	6	B	500	diastole
830.8989999999999	0.0212487748358398	61	systole	7	B	500	diastole
831.0849000000003	0.0212487748358398	61	systole	8	B	500	diastole
831.7824	0.0212487748358398	61	systole	9	B	500	diastole
832.4623999999999	0.0212487748358398	61	systole	10	B	500	diastole
833.1922	0.0212487748358398	61	systole	11	B	500	diastole
834.0392000000002	0.0212487748358398	61	systole	12	B	500	diastole
834.8027999999999	0.0212487748358398	61	systole	13	B	500	diastole
835.3625000000002	0.0212487748358398	61	systole	14	B	500	diastole
835.5225	0.0212487748358398	61	systole	15	B	500	diastole
835.6923000000002	0.0212487748358398	61	systole	16	B	500	diastole
835.8525	0.0212487748358398	61	systole	17	B	500	diastole
836.1660999999999	0.0212487748358398	61	systole	18	B	500	diastole
836.8959	0.0212487748358398	61	systole	19	B	500	diastole
837.6257	0.0212487748358398	61	systole	20	B	500	diastole
838.3823000000002	0.0212487748358398	61	systole	21	B	500	diastole
840.6220000000003	0.0237549161538481	62	systole	1	B	500	diastole
840.8118	0.0237549161538481	62	systole	2	B	500	diastole
840.9719	0.0237549161538481	62	systole	3	B	500	diastole
841.1300000000001	0.0237549161538481	62	systole	4	B	500	diastole
841.2901000000002	0.0237549161538481	62	systole	5	B	500	diastole
841.4385000000002	0.0237549161538481	62	systole	6	B	500	diastole
841.6082000000001	0.0237549161538481	62	systole	7	B	500	diastole
841.7626	0.0237549161538481	62	systole	8	B	500	diastole
841.9725000000003	0.0237549161538481	62	systole	9	B	500	diastole
842.1722	0.0237549161538481	62	systole	10	B	500	diastole
842.3720000000003	0.0237549161538481	62	systole	11	B	500	diastole
842.5718000000002	0.0237549161538481	62	systole	12	B	500	diastole
842.7716	0.0237549161538481	62	systole	13	B	500	diastole
842.9713999999999	0.0237549161538481	62	systole	14	B	500	diastole
843.7418000000002	0.0237549161538481	62	systole	15	B	500	diastole
844.5120999999999	0.0237549161538481	62	systole	16	B	500	diastole
845.2775999999999	0.0237549161538481	62	systole	17	B	500	diastole
845.9151000000002	0.0237549161538481	62	systole	18	B	500	diastole
846.0768000000003	0.0237549161538481	62	systole	19	B	500	diastole
846.2451000000001	0.0237549161538481	62	systole	20	B	500	diastole
846.4132	0.0237549161538481	62	systole	21	B	500	diastole
846.9854	0.0237549161538481	62	systole	22	B	500	diastole
847.7058999999999	0.0237549161538481	62	systole	23	B	500	diastole
848.4263000000001	0.0237549161538481	62	systole	24	B	500	diastole
848.5864999999999	0.0237549161538481	62	systole	25	B	500	diastole
848.7478000000001	0.0237549161538481	62	systole	26	B	500	diastole
848.9082000000003	0.0237549161538481	62	systole	27	B	500	diastole
849.1181999999999	0.0237549161538481	62	systole	28	B	500	diastole
849.3281000000002	0.0237549161538481	62	systole	29	B	500	diastole
849.4964	0.0237549161538481	62	systole	30	B	500	diastole
849.6456000000003	0.0237549161538481	62	systole	31	B	500	diastole
850.1206000000002	0.0237549161538481	62	systole	32	B	500	diastole
850.5902000000001	0.0237549161538481	62	systole	33	B	500	diastole
853.5025	0.0200205584405921	63	systole	1	B	500	diastole
854.2022999999999	0.0200205584405921	63	systole	2	B	500	diastole
854.9021000000002	0.0200205584405921	63	systole	3	B	500	diastole
855.6179999999999	0.0200205584405921	63	systole	4	B	500	diastole
856.328	0.0200205584405921	63	systole	5	B	500	diastole
856.9699	0.0200205584405921	63	systole	6	B	500	diastole
857.1876000000002	0.0200205584405921	63	systole	7	B	500	diastole
857.3360000000002	0.0200205584405921	63	systole	8	B	500	diastole
857.5534000000002	0.0200205584405921	63	systole	9	B	500	diastole
858.0434	0.0200205584405921	63	systole	10	B	500	diastole
858.7434000000003	0.0200205584405921	63	systole	11	B	500	diastole
859.4634000000001	0.0200205584405921	63	systole	12	B	500	diastole
860.1833000000001	0.0200205584405921	63	systole	13	B	500	diastole
860.9432000000002	0.0200205584405921	63	systole	14	B	500	diastole
861.8525	0.0200205584405921	63	systole	15	B	500	diastole
862.9841000000001	0.0200205584405921	63	systole	16	B	500	diastole
863.9382	0.0200205584405921	63	systole	17	B	500	diastole
868.8975	0.0862536933273077	64	systole	1	B	500	diastole
869.4975	0.0862536933273077	64	systole	2	B	500	diastole
870.0976	0.0862536933273077	64	systole	3	B	500	diastole
870.3663000000001	0.0862536933273077	64	systole	4	B	500	diastole
870.5363000000002	0.0862536933273077	64	systole	5	B	500	diastole
870.7213000000002	0.0862536933273077	64	systole	6	B	500	diastole
871.3776000000003	0.0862536933273077	64	systole	7	B	500	diastole
872.1775000000002	0.0862536933273077	64	systole	8	B	500	diastole
872.9774000000002	0.0862536933273077	64	systole	9	B	500	diastole
873.8672000000001	0.0862536933273077	64	systole	10	B	500	diastole
874.5464999999999	0.0862536933273077	64	systole	11	B	500	diastole
875.1965	0.0862536933273077	64	systole	12	B	500	diastole
875.8466000000003	0.0862536933273077	64	systole	13	B	500	diastole
876.0622000000003	0.0862536933273077	64	systole	14	B	500	diastole
877.1774	0.0862536933273077	64	systole	15	B	500	diastole
877.9856	0.0862536933273077	64	systole	16	B	500	diastole
882.1963000000001	0.052488075220026	65	systole	1	B	500	systole
882.9363000000003	0.052488075220026	65	systole	2	B	500	systole
883.5945999999999	0.052488075220026	65	systole	3	B	500	systole
883.8335999999999	0.052488075220026	65	systole	4	B	500	systole
883.9936000000002	0.052488075220026	65	systole	5	B	500	systole
884.1536000000001	0.052488075220026	65	systole	6	B	500	systole
884.482	0.052488075220026	65	systole	7	B	500	systole
885.1220000000003	0.052488075220026	65	systole	8	B	500	systole
885.7620000000002	0.052488075220026	65	systole	9	B	500	systole
886.5837999999999	0.052488075220026	65	systole	10	B	500	systole
887.2339000000002	0.052488075220026	65	systole	11	B	500	systole
887.8939	0.052488075220026	65	systole	12	B	500	systole
888.5338999999999	0.052488075220026	65	systole	13	B	500	systole
889.2172	0.052488075220026	65	systole	14	B	500	systole
889.8571999999999	0.052488075220026	65	systole	15	B	500	systole
890.4873000000002	0.052488075220026	65	systole	16	B	500	systole
891.1172000000001	0.052488075220026	65	systole	17	B	500	systole
891.7472000000002	0.052488075220026	65	systole	18	B	500	systole
895.6475	0.0725153875537216	66	systole	1	B	500	diastole
896.2975000000001	0.0725153875537216	66	systole	2	B	500	diastole
896.5212000000001	0.0725153875537216	66	systole	3	B	500	diastole
896.6612	0.0725153875537216	66	systole	4	B	500	diastole
897.3893000000003	0.0725153875537216	66	systole	5	B	500	diastole
897.6037000000001	0.0725153875537216	66	systole	6	B	500	diastole
897.7262000000001	0.0725153875537216	66	systole	7	B	500	diastole
897.8569000000002	0.0725153875537216	66	systole	8	B	500	diastole
898.0187000000001	0.0725153875537216	66	systole	9	B	500	diastole
898.1859	0.0725153875537216	66	systole	10	B	500	diastole
898.3307	0.0725153875537216	66	systole	11	B	500	diastole
898.4908	0.0725153875537216	66	systole	12	B	500	diastole
898.6509000000001	0.0725153875537216	66	systole	13	B	500	diastole
899.0454	0.0725153875537216	66	systole	14	B	500	diastole
899.4353000000001	0.0725153875537216	66	systole	15	B	500	diastole
899.8252000000002	0.0725153875537216	66	systole	16	B	500	diastole
900.5453000000002	0.0725153875537216	66	systole	17	B	500	diastole
901.2653	0.0725153875537216	66	systole	18	B	500	diastole
902.0452	0.0725153875537216	66	systole	19	B	500	diastole
902.2051999999999	0.0725153875537216	66	systole	20	B	500	diastole
902.375	0.0725153875537216	66	systole	21	B	500	diastole
902.5599000000002	0.0725153875537216	66	systole	22	B	500	diastole
903.0369000000001	0.0725153875537216	66	systole	23	B	500	diastole
903.8069	0.0725153875537216	66	systole	24	B	500	diastole
904.5869000000002	0.0725153875537216	66	systole	25	B	500	diastole
905.3669	0.0725153875537216	66	systole	26	B	500	diastole
907.4263000000001	0.0656146344263106	67	systole	1	B	500	systole
908.1764000000003	0.0656146344263106	67	systole	2	B	500	systole
909.0257000000001	0.0656146344263106	67	systole	3	B	500	systole
909.8173999999999	0.0656146344263106	67	systole	4	B	500	systole
910.1257	0.0656146344263106	67	systole	5	B	500	systole
910.3861000000002	0.0656146344263106	67	systole	6	B	500	systole
910.935	0.0656146344263106	67	systole	7	B	500	systole
911.7548000000002	0.0656146344263106	67	systole	8	B	500	systole
912.5745999999999	0.0656146344263106	67	systole	9	B	500	systole
913.6555000000003	0.0656146344263106	67	systole	10	B	500	systole
914.4855000000002	0.0656146344263106	67	systole	11	B	500	systole
915.5122000000001	0.0656146344263106	67	systole	12	B	500	systole
916.3487	0.0656146344263106	67	systole	13	B	500	systole
917.1287000000002	0.0656146344263106	67	systole	14	B	500	systole
921.1082000000001	0.0987634107004851	68	systole	1	B	500	systole
921.8099000000002	0.0987634107004851	68	systole	2	B	500	systole
922.1109999999999	0.0987634107004851	68	systole	3	B	500	systole
922.2635	0.0987634107004851	68	systole	4	B	500	systole
922.4110000000001	0.0987634107004851	68	systole	5	B	500	systole
922.531	0.0987634107004851	68	systole	6	B	500	systole
923.1653000000001	0.0987634107004851	68	systole	7	B	500	systole
923.8935999999999	0.0987634107004851	68	systole	8	B	500	systole
924.1235000000001	0.0987634107004851	68	systole	9	B	500	systole
924.3810000000003	0.0987634107004851	68	systole	10	B	500	systole
924.5133000000001	0.0987634107004851	68	systole	11	B	500	systole
924.6734000000001	0.0987634107004851	68	systole	12	B	500	systole
924.8634000000002	0.0987634107004851	68	systole	13	B	500	systole
925.0534000000002	0.0987634107004851	68	systole	14	B	500	systole
925.3532	0.0987634107004851	68	systole	15	B	500	systole
925.6531	0.0987634107004851	68	systole	16	B	500	systole
926.3430000000003	0.0987634107004851	68	systole	17	B	500	systole
927.0329000000002	0.0987634107004851	68	systole	18	B	500	systole
927.7628	0.0987634107004851	68	systole	19	B	500	systole
928.5045	0.0987634107004851	68	systole	20	B	500	systole
929.3444	0.0987634107004851	68	systole	21	B	500	systole
930.1143000000002	0.0987634107004851	68	systole	22	B	500	systole
938.7471	0.0687443375354632	69	diastole	1	B	500	diastole
939.6267000000003	0.0687443375354632	69	diastole	2	B	500	diastole
940.4435000000003	0.0687443375354632	69	diastole	3	B	500	diastole
941.2435	0.0687443375354632	69	diastole	4	B	500	diastole
941.5183999999999	0.0687443375354632	69	diastole	5	B	500	diastole
942.3020999999999	0.0687443375354632	69	diastole	6	B	500	diastole
943.0621000000001	0.0687443375354632	69	diastole	7	B	500	diastole
943.7121999999999	0.0687443375354632	69	diastole	8	B	500	diastole
944.3623000000002	0.0687443375354632	69	diastole	9	B	500	diastole
945.0823	0.0687443375354632	69	diastole	10	B	500	diastole
946.2326000000003	0.0687443375354632	69	diastole	11	B	500	diastole
946.4576000000002	0.0687443375354632	69	diastole	12	B	500	diastole
946.6384000000003	0.0687443375354632	69	diastole	13	B	500	diastole
946.7984000000001	0.0687443375354632	69	diastole	14	B	500	diastole
946.9634000000001	0.0687443375354632	69	diastole	15	B	500	diastole
947.1067000000003	0.0687443375354632	69	diastole	16	B	500	diastole
947.2605000000003	0.0687443375354632	69	diastole	17	B	500	diastole
947.4304999999999	0.0687443375354632	69	diastole	18	B	500	diastole
951.9279000000001	0.0230853187385946	70	diastole	1	B	500	diastole
952.0799999999999	0.0230853187385946	70	diastole	2	B	500	diastole
952.2406000000001	0.0230853187385946	70	diastole	3	B	500	diastole
952.4124999999999	0.0230853187385946	70	diastole	4	B	500	diastole
952.5565000000001	0.0230853187385946	70	diastole	5	B	500	diastole
952.7085999999999	0.0230853187385946	70	diastole	6	B	500	diastole
952.8690999999999	0.0230853187385946	70	diastole	7	B	500	diastole
953.0565999999999	0.0230853187385946	70	diastole	8	B	500	diastole
953.2091	0.0230853187385946	70	diastole	9	B	500	diastole
953.3692000000001	0.0230853187385946	70	diastole	10	B	500	diastole
953.5292	0.0230853187385946	70	diastole	11	B	500	diastole
953.7090000000003	0.0230853187385946	70	diastole	12	B	500	diastole
953.8688000000002	0.0230853187385946	70	diastole	13	B	500	diastole
954.0289000000002	0.0230853187385946	70	diastole	14	B	500	diastole
954.1885000000002	0.0230853187385946	70	diastole	15	B	500	diastole
954.3667	0.0230853187385946	70	diastole	16	B	500	diastole
954.5369000000001	0.0230853187385946	70	diastole	17	B	500	diastole
954.7064	0.0230853187385946	70	diastole	18	B	500	diastole
954.8759	0.0230853187385946	70	diastole	19	B	500	diastole
955.0284999999999	0.0230853187385946	70	diastole	20	B	500	diastole
955.1965	0.0230853187385946	70	diastole	21	B	500	diastole
955.3566000000001	0.0230853187385946	70	diastole	22	B	500	diastole
955.5866000000001	0.0230853187385946	70	diastole	23	B	500	diastole
955.8166000000001	0.0230853187385946	70	diastole	24	B	500	diastole
956.0466000000001	0.0230853187385946	70	diastole	25	B	500	diastole
956.7561000000001	0.0230853187385946	70	diastole	26	B	500	diastole
956.9146000000001	0.0230853187385946	70	diastole	27	B	500	diastole
957.0835999999999	0.0230853187385946	70	diastole	28	B	500	diastole
957.2395999999999	0.0230853187385946	70	diastole	29	B	500	diastole
957.3920000000003	0.0230853187385946	70	diastole	30	B	500	diastole
957.5976	0.0230853187385946	70	diastole	31	B	500	diastole
957.75	0.0230853187385946	70	diastole	32	B	500	diastole
957.9100000000003	0.0230853187385946	70	diastole	33	B	500	diastole
958.0700999999999	0.0230853187385946	70	diastole	34	B	500	diastole
958.2302	0.0230853187385946	70	diastole	35	B	500	diastole
958.9806000000003	0.0230853187385946	70	diastole	36	B	500	diastole
959.1500000000001	0.0230853187385946	70	diastole	37	B	500	diastole
959.3101000000001	0.0230853187385946	70	diastole	38	B	500	diastole
959.4701	0.0230853187385946	70	diastole	39	B	500	diastole
959.6833000000001	0.0230853187385946	70	diastole	40	B	500	diastole
959.8355999999999	0.0230853187385946	70	diastole	41	B	500	diastole
960.0147999999999	0.0230853187385946	70	diastole	42	B	500	diastole
960.1651999999999	0.0230853187385946	70	diastole	43	B	500	diastole
960.3252000000002	0.0230853187385946	70	diastole	44	B	500	diastole
960.5353	0.0230853187385946	70	diastole	45	B	500	diastole
960.7453	0.0230853187385946	70	diastole	46	B	500	diastole
960.9553000000001	0.0230853187385946	70	diastole	47	B	500	diastole
961.6145000000001	0.0230853187385946	70	diastole	48	B	500	diastole
963.7370000000001	0.0256533289793878	71	diastole	1	B	500	diastole
963.8971000000001	0.0256533289793878	71	diastole	2	B	500	diastole
964.0572000000002	0.0256533289793878	71	diastole	3	B	500	diastole
964.2173000000003	0.0256533289793878	71	diastole	4	B	500	diastole
964.3537000000001	0.0256533289793878	71	diastole	5	B	500	diastole
964.5235000000002	0.0256533289793878	71	diastole	6	B	500	diastole
964.6556	0.0256533289793878	71	diastole	7	B	500	diastole
964.8253	0.0256533289793878	71	diastole	8	B	500	diastole
965.0051000000003	0.0256533289793878	71	diastole	9	B	500	diastole
965.1572000000001	0.0256533289793878	71	diastole	10	B	500	diastole
965.3270000000002	0.0256533289793878	71	diastole	11	B	500	diastole
965.4871000000003	0.0256533289793878	71	diastole	12	B	500	diastole
965.6572000000001	0.0256533289793878	71	diastole	13	B	500	diastole
965.8173000000002	0.0256533289793878	71	diastole	14	B	500	diastole
965.9774000000002	0.0256533289793878	71	diastole	15	B	500	diastole
966.1375000000003	0.0256533289793878	71	diastole	16	B	500	diastole
966.8353999999999	0.0256533289793878	71	diastole	17	B	500	diastole
967.3955000000001	0.0256533289793878	71	diastole	18	B	500	diastole
967.9556000000002	0.0256533289793878	71	diastole	19	B	500	diastole
968.1334000000002	0.0256533289793878	71	diastole	20	B	500	diastole
968.2935000000002	0.0256533289793878	71	diastole	21	B	500	diastole
968.4632999999999	0.0256533289793878	71	diastole	22	B	500	diastole
968.6331	0.0256533289793878	71	diastole	23	B	500	diastole
968.8032000000003	0.0256533289793878	71	diastole	24	B	500	diastole
968.9551999999999	0.0256533289793878	71	diastole	25	B	500	diastole
969.1633000000002	0.0256533289793878	71	diastole	26	B	500	diastole
969.3632000000002	0.0256533289793878	71	diastole	27	B	500	diastole
969.5631000000003	0.0256533289793878	71	diastole	28	B	500	diastole
969.7231999999999	0.0256533289793878	71	diastole	29	B	500	diastole
969.8833	0.0256533289793878	71	diastole	30	B	500	diastole
970.0434	0.0256533289793878	71	diastole	31	B	500	diastole
970.2130999999999	0.0256533289793878	71	diastole	32	B	500	diastole
970.3732	0.0256533289793878	71	diastole	33	B	500	diastole
970.5253000000002	0.0256533289793878	71	diastole	34	B	500	diastole
970.6950999999999	0.0256533289793878	71	diastole	35	B	500	diastole
970.8552	0.0256533289793878	71	diastole	36	B	500	diastole
971.0073000000002	0.0256533289793878	71	diastole	37	B	500	diastole
971.1673000000001	0.0256533289793878	71	diastole	38	B	500	diastole
971.3672999999999	0.0256533289793878	71	diastole	39	B	500	diastole
971.5274	0.0256533289793878	71	diastole	40	B	500	diastole
971.7172	0.0256533289793878	71	diastole	41	B	500	diastole
971.9072000000001	0.0256533289793878	71	diastole	42	B	500	diastole
972.0673000000002	0.0256533289793878	71	diastole	43	B	500	diastole
972.2273	0.0256533289793878	71	diastole	44	B	500	diastole
972.3874000000001	0.0256533289793878	71	diastole	45	B	500	diastole
972.9673000000003	0.0256533289793878	71	diastole	46	B	500	diastole
975.4918000000002	0.0231028002453967	72	systole	1	B	500	diastole
976.0418	0.0231028002453967	72	systole	2	B	500	diastole
976.5918000000001	0.0231028002453967	72	systole	3	B	500	diastole
977.1936000000001	0.0231028002453967	72	systole	4	B	500	diastole
977.7837	0.0231028002453967	72	systole	5	B	500	diastole
977.9417000000003	0.0231028002453967	72	systole	6	B	500	diastole
978.0843	0.0231028002453967	72	systole	7	B	500	diastole
978.3117000000002	0.0231028002453967	72	systole	8	B	500	diastole
978.4659999999999	0.0231028002453967	72	systole	9	B	500	diastole
978.6028000000001	0.0231028002453967	72	systole	10	B	500	diastole
978.8319999999999	0.0231028002453967	72	systole	11	B	500	diastole
979.0320000000002	0.0231028002453967	72	systole	12	B	500	diastole
979.232	0.0231028002453967	72	systole	13	B	500	diastole
979.3921	0.0231028002453967	72	systole	14	B	500	diastole
979.5819999999999	0.0231028002453967	72	systole	15	B	500	diastole
979.7879000000003	0.0231028002453967	72	systole	16	B	500	diastole
979.9719	0.0231028002453967	72	systole	17	B	500	diastole
980.1320000000001	0.0231028002453967	72	systole	18	B	500	diastole
980.2921000000001	0.0231028002453967	72	systole	19	B	500	diastole
980.4522000000002	0.0231028002453967	72	systole	20	B	500	diastole
980.6123000000002	0.0231028002453967	72	systole	21	B	500	diastole
980.7724000000003	0.0231028002453967	72	systole	22	B	500	diastole
981.4621999999999	0.0231028002453967	72	systole	23	B	500	diastole
981.6049000000003	0.0231028002453967	72	systole	24	B	500	diastole
981.7476000000001	0.0231028002453967	72	systole	25	B	500	diastole
981.9231	0.0231028002453967	72	systole	26	B	500	diastole
982.1073000000001	0.0231028002453967	72	systole	27	B	500	diastole
982.2772	0.0231028002453967	72	systole	28	B	500	diastole
982.4470000000001	0.0231028002453967	72	systole	29	B	500	diastole
982.6071000000002	0.0231028002453967	72	systole	30	B	500	diastole
982.8072000000002	0.0231028002453967	72	systole	31	B	500	diastole
983.1622000000002	0.0231028002453967	72	systole	32	B	500	diastole
983.5105000000003	0.0231028002453967	72	systole	33	B	500	diastole
983.8589000000002	0.0231028002453967	72	systole	34	B	500	diastole
984.2073	0.0231028002453967	72	systole	35	B	500	diastole
984.9371000000001	0.0231028002453967	72	systole	36	B	500	diastole
985.6234	0.0231028002453967	72	systole	37	B	500	diastole
988.9000000000001	0.0224916312145069	73	diastole	1	B	500	diastole
989.6498999999999	0.0224916312145069	73	diastole	2	B	500	diastole
990.3202000000001	0.0224916312145069	73	diastole	3	B	500	diastole
990.9904000000001	0.0224916312145069	73	diastole	4	B	500	diastole
991.1505000000002	0.0224916312145069	73	diastole	5	B	500	diastole
991.3271	0.0224916312145069	73	diastole	6	B	500	diastole
991.4871000000003	0.0224916312145069	73	diastole	7	B	500	diastole
991.6074000000003	0.0224916312145069	73	diastole	8	B	500	diastole
991.7855	0.0224916312145069	73	diastole	9	B	500	diastole
991.9855000000002	0.0224916312145069	73	diastole	10	B	500	diastole
992.1375000000003	0.0224916312145069	73	diastole	11	B	500	diastole
992.2977000000001	0.0224916312145069	73	diastole	12	B	500	diastole
992.4578999999999	0.0224916312145069	73	diastole	13	B	500	diastole
992.6179999999999	0.0224916312145069	73	diastole	14	B	500	diastole
992.7782000000002	0.0224916312145069	73	diastole	15	B	500	diastole
992.9383000000003	0.0224916312145069	73	diastole	16	B	500	diastole
993.6261	0.0224916312145069	73	diastole	17	B	500	diastole
994.3442	0.0224916312145069	73	diastole	18	B	500	diastole
995.0145000000002	0.0224916312145069	73	diastole	19	B	500	diastole
995.6846	0.0224916312145069	73	diastole	20	B	500	diastole
996.4498000000003	0.0224916312145069	73	diastole	21	B	500	diastole
997.2865999999999	0.0224916312145069	73	diastole	22	B	500	diastole
997.4467	0.0224916312145069	73	diastole	23	B	500	diastole
997.6068	0.0224916312145069	73	diastole	24	B	500	diastole
997.7670000000003	0.0224916312145069	73	diastole	25	B	500	diastole
997.9270999999999	0.0224916312145069	73	diastole	26	B	500	diastole
998.1696999999999	0.0224916312145069	73	diastole	27	B	500	diastole
998.3676	0.0224916312145069	73	diastole	28	B	500	diastole
998.5576000000001	0.0224916312145069	73	diastole	29	B	500	diastole
1002.2013999999999	0.0231132875196635	74	systole	1	B	500	diastole
1003.011	0.0231132875196635	74	systole	2	B	500	diastole
1003.5054	0.0231132875196635	74	systole	3	B	500	diastole
1003.8876	0.0231132875196635	74	systole	4	B	500	diastole
1004.0423000000001	0.0231132875196635	74	systole	5	B	500	diastole
1004.2312000000002	0.0231132875196635	74	systole	6	B	500	diastole
1004.3863000000001	0.0231132875196635	74	systole	7	B	500	diastole
1004.5415000000003	0.0231132875196635	74	systole	8	B	500	diastole
1004.7233000000001	0.0231132875196635	74	systole	9	B	500	diastole
1004.8818000000001	0.0231132875196635	74	systole	10	B	500	diastole
1005.0875000000001	0.0231132875196635	74	systole	11	B	500	diastole
1005.2874000000002	0.0231132875196635	74	systole	12	B	500	diastole
1005.4419000000003	0.0231132875196635	74	systole	13	B	500	diastole
1005.6172999999999	0.0231132875196635	74	systole	14	B	500	diastole
1005.7778000000003	0.0231132875196635	74	systole	15	B	500	diastole
1005.9321	0.0231132875196635	74	systole	16	B	500	diastole
1006.1074000000003	0.0231132875196635	74	systole	17	B	500	diastole
1006.2772	0.0231132875196635	74	systole	18	B	500	diastole
1006.4373	0.0231132875196635	74	systole	19	B	500	diastole
1006.5972999999999	0.0231132875196635	74	systole	20	B	500	diastole
1006.7517000000003	0.0231132875196635	74	systole	21	B	500	diastole
1006.9273000000003	0.0231132875196635	74	systole	22	B	500	diastole
1007.0971	0.0231132875196635	74	systole	23	B	500	diastole
1007.2521000000002	0.0231132875196635	74	systole	24	B	500	diastole
1007.9817000000003	0.0231132875196635	74	systole	25	B	500	diastole
1008.7671	0.0231132875196635	74	systole	26	B	500	diastole
1009.5372000000002	0.0231132875196635	74	systole	27	B	500	diastole
1010.3427000000001	0.0231132875196635	74	systole	28	B	500	diastole
1011.1428000000001	0.0231132875196635	74	systole	29	B	500	diastole
1011.7719999999999	0.0231132875196635	74	systole	30	B	500	diastole
1014.6383000000001	0.0206214454956352	75	systole	1	B	500	diastole
1014.8083999999999	0.0206214454956352	75	systole	2	B	500	diastole
1014.9686000000002	0.0206214454956352	75	systole	3	B	500	diastole
1015.1384000000003	0.0206214454956352	75	systole	4	B	500	diastole
1015.2928999999999	0.0206214454956352	75	systole	5	B	500	diastole
1015.4473000000003	0.0206214454956352	75	systole	6	B	500	diastole
1015.6228000000001	0.0206214454956352	75	systole	7	B	500	diastole
1015.7926000000002	0.0206214454956352	75	systole	8	B	500	diastole
1015.9623999999999	0.0206214454956352	75	systole	9	B	500	diastole
1016.1322	0.0206214454956352	75	systole	10	B	500	diastole
1016.8322000000003	0.0206214454956352	75	systole	11	B	500	diastole
1017.578	0.0206214454956352	75	systole	12	B	500	diastole
1018.3181	0.0206214454956352	75	systole	13	B	500	diastole
1018.4782	0.0206214454956352	75	systole	14	B	500	diastole
1018.6525000000001	0.0206214454956352	75	systole	15	B	500	diastole
1018.8126000000002	0.0206214454956352	75	systole	16	B	500	diastole
1018.9727000000003	0.0206214454956352	75	systole	17	B	500	diastole
1019.1271000000002	0.0206214454956352	75	systole	18	B	500	diastole
1019.2969000000003	0.0206214454956352	75	systole	19	B	500	diastole
1019.4569999999999	0.0206214454956352	75	systole	20	B	500	diastole
1019.6369	0.0206214454956352	75	systole	21	B	500	diastole
1019.7971000000002	0.0206214454956352	75	systole	22	B	500	diastole
1020.1426000000001	0.0206214454956352	75	systole	23	B	500	diastole
1020.4824000000003	0.0206214454956352	75	systole	24	B	500	diastole
1021.1827000000003	0.0206214454956352	75	systole	25	B	500	diastole
1021.8829000000001	0.0206214454956352	75	systole	26	B	500	diastole
1022.5831000000003	0.0206214454956352	75	systole	27	B	500	diastole
1022.8062	0.0206214454956352	75	systole	28	B	500	diastole
1023.0081	0.0206214454956352	75	systole	29	B	500	diastole
1023.1982000000003	0.0206214454956352	75	systole	30	B	500	diastole
1023.8505	0.0206214454956352	75	systole	31	B	500	diastole
1024.5203000000001	0.0206214454956352	75	systole	32	B	500	diastole
1028.2801	0.0231177394161932	76	systole	1	B	500	diastole
1028.7535000000003	0.0231177394161932	76	systole	2	B	500	diastole
1029.2735000000002	0.0231177394161932	76	systole	3	B	500	diastole
1030.0535	0.0231177394161932	76	systole	4	B	500	diastole
1030.2234000000003	0.0231177394161932	76	systole	5	B	500	diastole
1030.3835	0.0231177394161932	76	systole	6	B	500	diastole
1030.5435000000002	0.0231177394161932	76	systole	7	B	500	diastole
1030.7116	0.0231177394161932	76	systole	8	B	500	diastole
1030.8427000000001	0.0231177394161932	76	systole	9	B	500	diastole
1031.1127999999999	0.0231177394161932	76	systole	10	B	500	diastole
1031.3829	0.0231177394161932	76	systole	11	B	500	diastole
1031.6530000000002	0.0231177394161932	76	systole	12	B	500	diastole
1031.9232000000002	0.0231177394161932	76	systole	13	B	500	diastole
1032.6546000000003	0.0231177394161932	76	systole	14	B	500	diastole
1033.3746	0.0231177394161932	76	systole	15	B	500	diastole
1033.9367000000002	0.0231177394161932	76	systole	16	B	500	diastole
1034.4286000000002	0.0231177394161932	76	systole	17	B	500	diastole
1034.5968000000003	0.0231177394161932	76	systole	18	B	500	diastole
1034.7650000000003	0.0231177394161932	76	systole	19	B	500	diastole
1034.9651	0.0231177394161932	76	systole	20	B	500	diastole
1035.1651000000002	0.0231177394161932	76	systole	21	B	500	diastole
1035.2843000000003	0.0231177394161932	76	systole	22	B	500	diastole
1035.4444000000003	0.0231177394161932	76	systole	23	B	500	diastole
1035.5778	0.0231177394161932	76	systole	24	B	500	diastole
1035.8693000000003	0.0231177394161932	76	systole	25	B	500	diastole
1036.5862000000002	0.0231177394161932	76	systole	26	B	500	diastole
1037.2847000000002	0.0231177394161932	76	systole	27	B	500	diastole
1037.9832000000001	0.0231177394161932	76	systole	28	B	500	diastole
1038.6817	0.0231177394161932	76	systole	29	B	500	diastole
1041.6316000000002	0.0225902501260861	77	diastole	1	B	500	diastole
1042.4416	0.0225902501260861	77	diastole	2	B	500	diastole
1042.7422000000001	0.0225902501260861	77	diastole	3	B	500	diastole
1042.9023000000002	0.0225902501260861	77	diastole	4	B	500	diastole
1043.0624000000003	0.0225902501260861	77	diastole	5	B	500	diastole
1043.216	0.0225902501260861	77	diastole	6	B	500	diastole
1043.3862	0.0225902501260861	77	diastole	7	B	500	diastole
1043.5754000000002	0.0225902501260861	77	diastole	8	B	500	diastole
1043.7377000000001	0.0225902501260861	77	diastole	9	B	500	diastole
1043.9074	0.0225902501260861	77	diastole	10	B	500	diastole
1044.0772000000002	0.0225902501260861	77	diastole	11	B	500	diastole
1044.2375000000002	0.0225902501260861	77	diastole	12	B	500	diastole
1044.4374000000003	0.0225902501260861	77	diastole	13	B	500	diastole
1044.5975000000003	0.0225902501260861	77	diastole	14	B	500	diastole
1044.7576	0.0225902501260861	77	diastole	15	B	500	diastole
1044.9556000000002	0.0225902501260861	77	diastole	16	B	500	diastole
1045.1639	0.0225902501260861	77	diastole	17	B	500	diastole
1045.364	0.0225902501260861	77	diastole	18	B	500	diastole
1045.7004000000002	0.0225902501260861	77	diastole	19	B	500	diastole
1046.0201000000002	0.0225902501260861	77	diastole	20	B	500	diastole
1046.3399	0.0225902501260861	77	diastole	21	B	500	diastole
1047.0851000000002	0.0225902501260861	77	diastole	22	B	500	diastole
1047.8533000000002	0.0225902501260861	77	diastole	23	B	500	diastole
1048.6131	0.0225902501260861	77	diastole	24	B	500	diastole
1049.3034000000002	0.0225902501260861	77	diastole	25	B	500	diastole
1049.9935	0.0225902501260861	77	diastole	26	B	500	diastole
1050.1535	0.0225902501260861	77	diastole	27	B	500	diastole
1050.3238000000001	0.0225902501260861	77	diastole	28	B	500	diastole
1050.4592000000002	0.0225902501260861	77	diastole	29	B	500	diastole
1051.2126000000003	0.0225902501260861	77	diastole	30	B	500	diastole
1051.8326000000002	0.0225902501260861	77	diastole	31	B	500	diastole
1054.0262000000002	0.021231512306258	78	systole	1	B	500	systole
1054.3962999999999	0.021231512306258	78	systole	2	B	500	systole
1055.0064000000002	0.021231512306258	78	systole	3	B	500	systole
1055.6163000000001	0.021231512306258	78	systole	4	B	500	systole
1056.2263000000003	0.021231512306258	78	systole	5	B	500	systole
1056.4106000000002	0.021231512306258	78	systole	6	B	500	systole
1056.6006000000002	0.021231512306258	78	systole	7	B	500	systole
1056.7488000000003	0.021231512306258	78	systole	8	B	500	systole
1056.8976000000002	0.021231512306258	78	systole	9	B	500	systole
1057.0577000000003	0.021231512306258	78	systole	10	B	500	systole
1057.2332000000001	0.021231512306258	78	systole	11	B	500	systole
1057.4030000000002	0.021231512306258	78	systole	12	B	500	systole
1057.5574000000001	0.021231512306258	78	systole	13	B	500	systole
1057.7175000000002	0.021231512306258	78	systole	14	B	500	systole
1057.9131000000002	0.021231512306258	78	systole	15	B	500	systole
1058.0733	0.021231512306258	78	systole	16	B	500	systole
1058.2431000000001	0.021231512306258	78	systole	17	B	500	systole
1058.3975	0.021231512306258	78	systole	18	B	500	systole
1058.5576	0.021231512306258	78	systole	19	B	500	systole
1058.7632000000003	0.021231512306258	78	systole	20	B	500	systole
1058.9176000000002	0.021231512306258	78	systole	21	B	500	systole
1059.0778	0.021231512306258	78	systole	22	B	500	systole
1059.2379	0.021231512306258	78	systole	23	B	500	systole
1059.3980000000001	0.021231512306258	78	systole	24	B	500	systole
1059.5581000000002	0.021231512306258	78	systole	25	B	500	systole
1059.7182000000003	0.021231512306258	78	systole	26	B	500	systole
1059.888	0.021231512306258	78	systole	27	B	500	systole
1060.058	0.021231512306258	78	systole	28	B	500	systole
1060.6636000000003	0.021231512306258	78	systole	29	B	500	systole
1061.2636000000002	0.021231512306258	78	systole	30	B	500	systole
1062.0694000000003	0.021231512306258	78	systole	31	B	500	systole
1062.8695000000002	0.021231512306258	78	systole	32	B	500	systole
1063.7094000000002	0.021231512306258	78	systole	33	B	500	systole
1064.5493000000001	0.021231512306258	78	systole	34	B	500	systole
1069.3328000000001	0.0214249205309897	79	diastole	1	B	500	systole
1070.0325000000003	0.0214249205309897	79	diastole	2	B	500	systole
1070.7322	0.0214249205309897	79	diastole	3	B	500	systole
1071.4825	0.0214249205309897	79	diastole	4	B	500	systole
1072.2328000000002	0.0214249205309897	79	diastole	5	B	500	systole
1072.6228	0.0214249205309897	79	diastole	6	B	500	systole
1072.7746000000002	0.0214249205309897	79	diastole	7	B	500	systole
1072.9812000000002	0.0214249205309897	79	diastole	8	B	500	systole
1073.1400000000003	0.0214249205309897	79	diastole	9	B	500	systole
1073.3001	0.0214249205309897	79	diastole	10	B	500	systole
1073.4535	0.0214249205309897	79	diastole	11	B	500	systole
1074.1634	0.0214249205309897	79	diastole	12	B	500	systole
1074.8733000000002	0.0214249205309897	79	diastole	13	B	500	systole
1075.5637000000002	0.0214249205309897	79	diastole	14	B	500	systole
1076.3400000000001	0.0214249205309897	79	diastole	15	B	500	systole
1077.0996	0.0214249205309897	79	diastole	16	B	500	systole
1078.2517000000003	0.0214249205309897	79	diastole	17	B	500	systole
1078.4215	0.0214249205309897	79	diastole	18	B	500	systole
1078.5913	0.0214249205309897	79	diastole	19	B	500	systole
1079.6975000000002	0.0214249205309897	79	diastole	20	B	500	systole
1081.1282	0.0899865590617992	80	systole	1	B	500	diastole
1081.2899000000002	0.0899865590617992	80	systole	2	B	500	diastole
1081.4324000000001	0.0899865590617992	80	systole	3	B	500	diastole
1081.5922	0.0899865590617992	80	systole	4	B	500	diastole
1081.7523	0.0899865590617992	80	systole	5	B	500	diastole
1082.2003	0.0899865590617992	80	systole	6	B	500	diastole
1082.9506000000001	0.0899865590617992	80	systole	7	B	500	diastole
1083.7008	0.0899865590617992	80	systole	8	B	500	diastole
1083.9185000000002	0.0899865590617992	80	systole	9	B	500	diastole
1084.1184000000003	0.0899865590617992	80	systole	10	B	500	diastole
1084.2624	0.0899865590617992	80	systole	11	B	500	diastole
1084.4161	0.0899865590617992	80	systole	12	B	500	diastole
1084.5906	0.0899865590617992	80	systole	13	B	500	diastole
1084.7508000000003	0.0899865590617992	80	systole	14	B	500	diastole
1085.2507	0.0899865590617992	80	systole	15	B	500	diastole
1085.7506000000003	0.0899865590617992	80	systole	16	B	500	diastole
1086.2505	0.0899865590617992	80	systole	17	B	500	diastole
1087.0005	0.0899865590617992	80	systole	18	B	500	diastole
1087.7804	0.0899865590617992	80	systole	19	B	500	diastole
1088.6304	0.0899865590617992	80	systole	20	B	500	diastole
1089.7031000000002	0.0899865590617992	80	systole	21	B	500	diastole
1090.5832	0.0899865590617992	80	systole	22	B	500	diastole
1091.7116	0.0899865590617992	80	systole	23	B	500	diastole
1093.7075	0.0212049684487283	81	diastole	1	B	500	diastole
1093.9074	0.0212049684487283	81	diastole	2	B	500	diastole
1094.1151	0.0212049684487283	81	diastole	3	B	500	diastole
1094.2752	0.0212049684487283	81	diastole	4	B	500	diastole
1094.4352	0.0212049684487283	81	diastole	5	B	500	diastole
1094.6251000000002	0.0212049684487283	81	diastole	6	B	500	diastole
1094.8394000000003	0.0212049684487283	81	diastole	7	B	500	diastole
1095.0292	0.0212049684487283	81	diastole	8	B	500	diastole
1095.2191000000003	0.0212049684487283	81	diastole	9	B	500	diastole
