onset	duration	trial_num	trial_type	tone_num	tone_type	frequency	response
278.8004	0.103749914385844	1	diastole	1	A	1578.5670027440333	streaming
279.0081	0.103749914385844	1	diastole	2	B	500.0	streaming
279.2154	0.103749914385844	1	diastole	3	A	1578.5670027440333	streaming
279.5578	0.103749914385844	1	diastole	4	A	1578.5670027440333	streaming
279.7615	0.103749914385844	1	diastole	5	B	500.0	streaming
279.9649	0.103749914385844	1	diastole	6	A	1578.5670027440333	streaming
280.3378	0.103749914385844	1	diastole	7	A	1578.5670027440333	streaming
280.5415	0.103749914385844	1	diastole	8	B	500.0	streaming
280.7448	0.103749914385844	1	diastole	9	A	1578.5670027440333	streaming
281.2361	0.103749914385844	1	diastole	10	A	1578.5670027440333	streaming
281.4413	0.103749914385844	1	diastole	11	B	500.0	streaming
281.6461	0.103749914385844	1	diastole	12	A	1578.5670027440333	streaming
282.1261	0.103749914385844	1	diastole	13	A	1578.5670027440333	streaming
282.3313	0.103749914385844	1	diastole	14	B	500.0	streaming
282.5361	0.103749914385844	1	diastole	15	A	1578.5670027440333	streaming
283.0202	0.103749914385844	1	diastole	16	A	1578.5670027440333	streaming
283.2279	0.103749914385844	1	diastole	17	B	500.0	streaming
283.4352	0.103749914385844	1	diastole	18	A	1578.5670027440333	streaming
283.8972	0.103749914385844	1	diastole	19	A	1578.5670027440333	streaming
284.1061	0.103749914385844	1	diastole	20	B	500.0	streaming
284.3147	0.103749914385844	1	diastole	21	A	1578.5670027440333	streaming
284.7202	0.103749914385844	1	diastole	22	A	1578.5670027440333	streaming
284.9279	0.103749914385844	1	diastole	23	B	500.0	streaming
285.1352	0.103749914385844	1	diastole	24	A	1578.5670027440333	streaming
285.5503	0.103749914385844	1	diastole	25	A	1578.5670027440333	streaming
285.7579	0.103749914385844	1	diastole	26	B	500.0	streaming
285.9653	0.103749914385844	1	diastole	27	A	1578.5670027440333	streaming
286.3803	0.103749914385844	1	diastole	28	A	1578.5670027440333	streaming
286.5879	0.103749914385844	1	diastole	29	B	500.0	streaming
286.7953	0.103749914385844	1	diastole	30	A	1578.5670027440333	streaming
287.2103	0.103749914385844	1	diastole	31	A	1578.5670027440333	streaming
287.4179	0.103749914385844	1	diastole	32	B	500.0	streaming
287.6253	0.103749914385844	1	diastole	33	A	1578.5670027440333	streaming
315.6303	0.0968747498700395	2	diastole	1	A	1169.7126981694591	coherent
315.8288	0.0968747498700395	2	diastole	2	B	500.0	coherent
316.0274	0.0968747498700395	2	diastole	3	A	1169.7126981694591	coherent
316.3799	0.0968747498700395	2	diastole	4	A	1169.7126981694591	coherent
316.5784	0.0968747498700395	2	diastole	5	B	500.0	coherent
316.777	0.0968747498700395	2	diastole	6	A	1169.7126981694591	coherent
317.1295	0.0968747498700395	2	diastole	7	A	1169.7126981694591	coherent
317.3279	0.0968747498700395	2	diastole	8	B	500.0	coherent
317.5266	0.0968747498700395	2	diastole	9	A	1169.7126981694591	coherent
317.8791	0.0968747498700395	2	diastole	10	A	1169.7126981694591	coherent
318.0775	0.0968747498700395	2	diastole	11	B	500.0	coherent
318.2762	0.0968747498700395	2	diastole	12	A	1169.7126981694591	coherent
318.6286	0.0968747498700395	2	diastole	13	A	1169.7126981694591	coherent
318.8271	0.0968747498700395	2	diastole	14	B	500.0	coherent
319.0258	0.0968747498700395	2	diastole	15	A	1169.7126981694591	coherent
319.3987	0.0968747498700395	2	diastole	16	A	1169.7126981694591	coherent
319.5971	0.0968747498700395	2	diastole	17	B	500.0	coherent
319.7958	0.0968747498700395	2	diastole	18	A	1169.7126981694591	coherent
320.2129	0.0968747498700395	2	diastole	19	A	1169.7126981694591	coherent
320.4139	0.0968747498700395	2	diastole	20	B	500.0	coherent
320.6151	0.0968747498700395	2	diastole	21	A	1169.7126981694591	coherent
320.9727	0.0968747498700395	2	diastole	22	A	1169.7126981694591	coherent
321.1702	0.0968747498700395	2	diastole	23	B	500.0	coherent
321.3678	0.0968747498700395	2	diastole	24	A	1169.7126981694591	coherent
321.7528	0.0968747498700395	2	diastole	25	A	1169.7126981694591	coherent
321.9502	0.0968747498700395	2	diastole	26	B	500.0	coherent
322.1478	0.0968747498700395	2	diastole	27	A	1169.7126981694591	coherent
322.5628	0.0968747498700395	2	diastole	28	A	1169.7126981694591	coherent
322.7602	0.0968747498700395	2	diastole	29	B	500.0	coherent
322.9578	0.0968747498700395	2	diastole	30	A	1169.7126981694591	coherent
323.3728	0.0968747498700395	2	diastole	31	A	1169.7126981694591	coherent
323.5702	0.0968747498700395	2	diastole	32	B	500.0	coherent
323.7678	0.0968747498700395	2	diastole	33	A	1169.7126981694591	coherent
324.1115	0.0968747498700395	2	diastole	34	A	1169.7126981694591	coherent
324.3052	0.0968747498700395	2	diastole	35	B	500.0	coherent
324.4991	0.0968747498700395	2	diastole	36	A	1169.7126981694591	coherent
329.881	0.0993729624897241	3	diastole	1	A	2034.3166651064248	streaming
330.0797	0.0993729624897241	3	diastole	2	B	500.0	streaming
330.2785	0.0993729624897241	3	diastole	3	A	2034.3166651064248	streaming
330.6309	0.0993729624897241	3	diastole	4	A	2034.3166651064248	streaming
330.8296	0.0993729624897241	3	diastole	5	B	500.0	streaming
331.0284	0.0993729624897241	3	diastole	6	A	2034.3166651064248	streaming
331.3909	0.0993729624897241	3	diastole	7	A	2034.3166651064248	streaming
331.5897	0.0993729624897241	3	diastole	8	B	500.0	streaming
331.7884	0.0993729624897241	3	diastole	9	A	2034.3166651064248	streaming
332.151	0.0993729624897241	3	diastole	10	A	2034.3166651064248	streaming
332.3497	0.0993729624897241	3	diastole	11	B	500.0	streaming
332.5485	0.0993729624897241	3	diastole	12	A	2034.3166651064248	streaming
332.941	0.0993729624897241	3	diastole	13	A	2034.3166651064248	streaming
333.1398	0.0993729624897241	3	diastole	14	B	500.0	streaming
333.3385	0.0993729624897241	3	diastole	15	A	2034.3166651064248	streaming
333.7481	0.0993729624897241	3	diastole	16	A	2034.3166651064248	streaming
333.9481	0.0993729624897241	3	diastole	17	B	500.0	streaming
334.1481	0.0993729624897241	3	diastole	18	A	2034.3166651064248	streaming
334.531	0.0993729624897241	3	diastole	19	A	2034.3166651064248	streaming
334.7297	0.0993729624897241	3	diastole	20	B	500.0	streaming
334.9285	0.0993729624897241	3	diastole	21	A	2034.3166651064248	streaming
335.3209	0.0993729624897241	3	diastole	22	A	2034.3166651064248	streaming
335.5196	0.0993729624897241	3	diastole	23	B	500.0	streaming
335.7184	0.0993729624897241	3	diastole	24	A	2034.3166651064248	streaming
336.1209	0.0993729624897241	3	diastole	25	A	2034.3166651064248	streaming
336.3197	0.0993729624897241	3	diastole	26	B	500.0	streaming
336.5184	0.0993729624897241	3	diastole	27	A	2034.3166651064248	streaming
336.921	0.0993729624897241	3	diastole	28	A	2034.3166651064248	streaming
337.1197	0.0993729624897241	3	diastole	29	B	500.0	streaming
337.3185	0.0993729624897241	3	diastole	30	A	2034.3166651064248	streaming
337.7439	0.0993729624897241	3	diastole	31	A	2034.3166651064248	streaming
337.9414	0.0993729624897241	3	diastole	32	B	500.0	streaming
338.1389	0.0993729624897241	3	diastole	33	A	2034.3166651064248	streaming
338.574	0.0993729624897241	3	diastole	34	A	2034.3166651064248	streaming
338.7714	0.0993729624897241	3	diastole	35	B	500.0	streaming
338.9689	0.0993729624897241	3	diastole	36	A	2034.3166651064248	streaming
343.7972	0.1006310179363936	4	systole	1	A	1578.5670027440333	streaming
343.9998	0.1006310179363936	4	systole	2	B	500.0	streaming
344.2022	0.1006310179363936	4	systole	3	A	1578.5670027440333	streaming
344.5572	0.1006310179363936	4	systole	4	A	1578.5670027440333	streaming
344.7598	0.1006310179363936	4	systole	5	B	500.0	streaming
344.9622	0.1006310179363936	4	systole	6	A	1578.5670027440333	streaming
345.3381	0.1006310179363936	4	systole	7	A	1578.5670027440333	streaming
345.5382	0.1006310179363936	4	systole	8	B	500.0	streaming
345.7381	0.1006310179363936	4	systole	9	A	1578.5670027440333	streaming
346.208	0.1006310179363936	4	systole	10	A	1578.5670027440333	streaming
346.4082	0.1006310179363936	4	systole	11	B	500.0	streaming
346.608	0.1006310179363936	4	systole	12	A	1578.5670027440333	streaming
347.018	0.1006310179363936	4	systole	13	A	1578.5670027440333	streaming
347.2181	0.1006310179363936	4	systole	14	B	500.0	streaming
347.418	0.1006310179363936	4	systole	15	A	1578.5670027440333	streaming
347.7659	0.1006310179363936	4	systole	16	A	1578.5670027440333	streaming
347.9623	0.1006310179363936	4	systole	17	B	500.0	streaming
348.1584	0.1006310179363936	4	systole	18	A	1578.5670027440333	streaming
348.5391	0.1006310179363936	4	systole	19	A	1578.5670027440333	streaming
348.734	0.1006310179363936	4	systole	20	B	500.0	streaming
348.9287	0.1006310179363936	4	systole	21	A	1578.5670027440333	streaming
349.3086	0.1006310179363936	4	systole	22	A	1578.5670027440333	streaming
349.5036	0.1006310179363936	4	systole	23	B	500.0	streaming
349.6983	0.1006310179363936	4	systole	24	A	1578.5670027440333	streaming
350.0291	0.1006310179363936	4	systole	25	A	1578.5670027440333	streaming
350.2241	0.1006310179363936	4	systole	26	B	500.0	streaming
350.4187	0.1006310179363936	4	systole	27	A	1578.5670027440333	streaming
350.744	0.1006310179363936	4	systole	28	A	1578.5670027440333	streaming
350.9376	0.1006310179363936	4	systole	29	B	500.0	streaming
351.131	0.1006310179363936	4	systole	30	A	1578.5670027440333	streaming
351.4636	0.1006310179363936	4	systole	31	A	1578.5670027440333	streaming
351.6572	0.1006310179363936	4	systole	32	B	500.0	streaming
351.8506	0.1006310179363936	4	systole	33	A	1578.5670027440333	streaming
352.1858	0.1006310179363936	4	systole	34	A	1578.5670027440333	streaming
352.3774	0.1006310179363936	4	systole	35	B	500.0	streaming
352.5687	0.1006310179363936	4	systole	36	A	1578.5670027440333	streaming
352.9262	0.1006310179363936	4	systole	37	A	1578.5670027440333	streaming
353.1178	0.1006310179363936	4	systole	38	B	500.0	streaming
353.309	0.1006310179363936	4	systole	39	A	1578.5670027440333	streaming
357.5403	0.0931210685521364	5	systole	1	A	1169.7126981694591	streaming
357.7266	0.0931210685521364	5	systole	2	B	500.0	streaming
357.9132	0.0931210685521364	5	systole	3	A	1169.7126981694591	streaming
358.2703	0.0931210685521364	5	systole	4	A	1169.7126981694591	streaming
358.4567	0.0931210685521364	5	systole	5	B	500.0	streaming
358.6432	0.0931210685521364	5	systole	6	A	1169.7126981694591	streaming
358.9884	0.0931210685521364	5	systole	7	A	1169.7126981694591	streaming
359.1747	0.0931210685521364	5	systole	8	B	500.0	streaming
359.3613	0.0931210685521364	5	systole	9	A	1169.7126981694591	streaming
359.7064	0.0931210685521364	5	systole	10	A	1169.7126981694591	streaming
359.8927	0.0931210685521364	5	systole	11	B	500.0	streaming
360.0793	0.0931210685521364	5	systole	12	A	1169.7126981694591	streaming
360.3964	0.0931210685521364	5	systole	13	A	1169.7126981694591	streaming
360.5827	0.0931210685521364	5	systole	14	B	500.0	streaming
360.7693	0.0931210685521364	5	systole	15	A	1169.7126981694591	streaming
361.0974	0.0931210685521364	5	systole	16	A	1169.7126981694591	streaming
361.2813	0.0931210685521364	5	systole	17	B	500.0	streaming
361.4654	0.0931210685521364	5	systole	18	A	1169.7126981694591	streaming
361.8074	0.0931210685521364	5	systole	19	A	1169.7126981694591	streaming
361.9913	0.0931210685521364	5	systole	20	B	500.0	streaming
362.1754	0.0931210685521364	5	systole	21	A	1169.7126981694591	streaming
362.5173	0.0931210685521364	5	systole	22	A	1169.7126981694591	streaming
362.7012	0.0931210685521364	5	systole	23	B	500.0	streaming
362.8853	0.0931210685521364	5	systole	24	A	1169.7126981694591	streaming
363.2419	0.0931210685521364	5	systole	25	A	1169.7126981694591	streaming
363.4243	0.0931210685521364	5	systole	26	B	500.0	streaming
363.6069	0.0931210685521364	5	systole	27	A	1169.7126981694591	streaming
363.9719	0.0931210685521364	5	systole	28	A	1169.7126981694591	streaming
364.1543	0.0931210685521364	5	systole	29	B	500.0	streaming
364.3369	0.0931210685521364	5	systole	30	A	1169.7126981694591	streaming
364.7319	0.0931210685521364	5	systole	31	A	1169.7126981694591	streaming
364.9143	0.0931210685521364	5	systole	32	B	500.0	streaming
365.0969	0.0931210685521364	5	systole	33	A	1169.7126981694591	streaming
365.4919	0.0931210685521364	5	systole	34	A	1169.7126981694591	streaming
365.6743	0.0931210685521364	5	systole	35	B	500.0	streaming
365.8569	0.0931210685521364	5	systole	36	A	1169.7126981694591	streaming
366.2519	0.0931210685521364	5	systole	37	A	1169.7126981694591	streaming
366.4343	0.0931210685521364	5	systole	38	B	500.0	streaming
366.6169	0.0931210685521364	5	systole	39	A	1169.7126981694591	streaming
366.8919	0.0931210685521364	5	systole	40	A	1169.7126981694591	streaming
367.0743	0.0931210685521364	5	systole	41	B	500.0	streaming
367.2569	0.0931210685521364	5	systole	42	A	1169.7126981694591	streaming
373.463	0.0906297925394028	6	systole	1	A	1282.731510155574	streaming
373.648	0.0906297925394028	6	systole	2	B	500.0	streaming
373.833	0.0906297925394028	6	systole	3	A	1282.731510155574	streaming
374.183	0.0906297925394028	6	systole	4	A	1282.731510155574	streaming
374.368	0.0906297925394028	6	systole	5	B	500.0	streaming
374.553	0.0906297925394028	6	systole	6	A	1282.731510155574	streaming
374.893	0.0906297925394028	6	systole	7	A	1282.731510155574	streaming
375.078	0.0906297925394028	6	systole	8	B	500.0	streaming
375.263	0.0906297925394028	6	systole	9	A	1282.731510155574	streaming
375.603	0.0906297925394028	6	systole	10	A	1282.731510155574	streaming
375.788	0.0906297925394028	6	systole	11	B	500.0	streaming
375.973	0.0906297925394028	6	systole	12	A	1282.731510155574	streaming
376.2793	0.0906297925394028	6	systole	13	A	1282.731510155574	streaming
376.4606	0.0906297925394028	6	systole	14	B	500.0	streaming
376.6419	0.0906297925394028	6	systole	15	A	1282.731510155574	streaming
376.9847	0.0906297925394028	6	systole	16	A	1282.731510155574	streaming
377.1647	0.0906297925394028	6	systole	17	B	500.0	streaming
377.3447	0.0906297925394028	6	systole	18	A	1282.731510155574	streaming
377.7447	0.0906297925394028	6	systole	19	A	1282.731510155574	streaming
377.9247	0.0906297925394028	6	systole	20	B	500.0	streaming
378.1047	0.0906297925394028	6	systole	21	A	1282.731510155574	streaming
378.5047	0.0906297925394028	6	systole	22	A	1282.731510155574	streaming
378.6847	0.0906297925394028	6	systole	23	B	500.0	streaming
378.8647	0.0906297925394028	6	systole	24	A	1282.731510155574	streaming
379.2894	0.0906297925394028	6	systole	25	A	1282.731510155574	streaming
379.4706	0.0906297925394028	6	systole	26	B	500.0	streaming
379.6519	0.0906297925394028	6	systole	27	A	1282.731510155574	streaming
380.0694	0.0906297925394028	6	systole	28	A	1282.731510155574	streaming
380.2507	0.0906297925394028	6	systole	29	B	500.0	streaming
380.432	0.0906297925394028	6	systole	30	A	1282.731510155574	streaming
380.9632	0.0906297925394028	6	systole	31	A	1282.731510155574	streaming
381.1482	0.0906297925394028	6	systole	32	B	500.0	streaming
381.3332	0.0906297925394028	6	systole	33	A	1282.731510155574	streaming
381.8431	0.0906297925394028	6	systole	34	A	1282.731510155574	streaming
382.0281	0.0906297925394028	6	systole	35	B	500.0	streaming
382.2131	0.0906297925394028	6	systole	36	A	1282.731510155574	streaming
382.7298	0.0906297925394028	6	systole	37	A	1282.731510155574	streaming
382.9248	0.0906297925394028	6	systole	38	B	500.0	streaming
383.1198	0.0906297925394028	6	systole	39	A	1282.731510155574	streaming
389.238	0.1012543468968942	7	systole	1	A	846.9957848672357	coherent
389.4399	0.1012543468968942	7	systole	2	B	500.0	coherent
389.643	0.1012543468968942	7	systole	3	A	846.9957848672357	coherent
390.078	0.1012543468968942	7	systole	4	A	846.9957848672357	coherent
390.28	0.1012543468968942	7	systole	5	B	500.0	coherent
390.483	0.1012543468968942	7	systole	6	A	846.9957848672357	coherent
390.8642	0.1012543468968942	7	systole	7	A	846.9957848672357	coherent
391.0624	0.1012543468968942	7	systole	8	B	500.0	coherent
391.2618	0.1012543468968942	7	systole	9	A	846.9957848672357	coherent
391.6014	0.1012543468968942	7	systole	10	A	846.9957848672357	coherent
391.7933	0.1012543468968942	7	systole	11	B	500.0	coherent
391.9864	0.1012543468968942	7	systole	12	A	846.9957848672357	coherent
392.3813	0.1012543468968942	7	systole	13	A	846.9957848672357	coherent
392.5733	0.1012543468968942	7	systole	14	B	500.0	coherent
392.7664	0.1012543468968942	7	systole	15	A	846.9957848672357	coherent
393.1313	0.1012543468968942	7	systole	16	A	846.9957848672357	coherent
393.3232	0.1012543468968942	7	systole	17	B	500.0	coherent
393.5163	0.1012543468968942	7	systole	18	A	846.9957848672357	coherent
393.8567	0.1012543468968942	7	systole	19	A	846.9957848672357	coherent
394.0474	0.1012543468968942	7	systole	20	B	500.0	coherent
394.2392	0.1012543468968942	7	systole	21	A	846.9957848672357	coherent
394.5866	0.1012543468968942	7	systole	22	A	846.9957848672357	coherent
394.7773	0.1012543468968942	7	systole	23	B	500.0	coherent
394.9691	0.1012543468968942	7	systole	24	A	846.9957848672357	coherent
395.3276	0.1012543468968942	7	systole	25	A	846.9957848672357	coherent
395.5158	0.1012543468968942	7	systole	26	B	500.0	coherent
395.7051	0.1012543468968942	7	systole	27	A	846.9957848672357	coherent
396.0376	0.1012543468968942	7	systole	28	A	846.9957848672357	coherent
396.2258	0.1012543468968942	7	systole	29	B	500.0	coherent
396.4151	0.1012543468968942	7	systole	30	A	846.9957848672357	coherent
396.723	0.1012543468968942	7	systole	31	A	846.9957848672357	coherent
396.91	0.1012543468968942	7	systole	32	B	500.0	coherent
397.0981	0.1012543468968942	7	systole	33	A	846.9957848672357	coherent
397.4035	0.1012543468968942	7	systole	34	A	846.9957848672357	coherent
397.5879	0.1012543468968942	7	systole	35	B	500.0	coherent
397.7735	0.1012543468968942	7	systole	36	A	846.9957848672357	coherent
398.1046	0.1012543468968942	7	systole	37	A	846.9957848672357	coherent
398.2866	0.1012543468968942	7	systole	38	B	500.0	coherent
398.4696	0.1012543468968942	7	systole	39	A	846.9957848672357	coherent
398.9038	0.1012543468968942	7	systole	40	A	846.9957848672357	coherent
399.0883	0.1012543468968942	7	systole	41	B	500.0	coherent
399.2738	0.1012543468968942	7	systole	42	A	846.9957848672357	coherent
403.0568	0.0998771361773833	8	systole	1	A	1542.5842068661057	coherent
403.2594	0.0998771361773833	8	systole	2	B	500.0	coherent
403.4617	0.0998771361773833	8	systole	3	A	1542.5842068661057	coherent
403.8568	0.0998771361773833	8	systole	4	A	1542.5842068661057	coherent
404.0595	0.0998771361773833	8	systole	5	B	500.0	coherent
404.2618	0.0998771361773833	8	systole	6	A	1542.5842068661057	coherent
404.5969	0.0998771361773833	8	systole	7	A	1542.5842068661057	coherent
404.7995	0.0998771361773833	8	systole	8	B	500.0	coherent
405.0018	0.0998771361773833	8	systole	9	A	1542.5842068661057	coherent
405.3269	0.0998771361773833	8	systole	10	A	1542.5842068661057	coherent
405.5295	0.0998771361773833	8	systole	11	B	500.0	coherent
405.7318	0.0998771361773833	8	systole	12	A	1542.5842068661057	coherent
406.0569	0.0998771361773833	8	systole	13	A	1542.5842068661057	coherent
406.2595	0.0998771361773833	8	systole	14	B	500.0	coherent
406.4618	0.0998771361773833	8	systole	15	A	1542.5842068661057	coherent
406.7869	0.0998771361773833	8	systole	16	A	1542.5842068661057	coherent
406.9895	0.0998771361773833	8	systole	17	B	500.0	coherent
407.1918	0.0998771361773833	8	systole	18	A	1542.5842068661057	coherent
407.4816	0.0998771361773833	8	systole	19	A	1542.5842068661057	coherent
407.6828	0.0998771361773833	8	systole	20	B	500.0	coherent
407.8836	0.0998771361773833	8	systole	21	A	1542.5842068661057	coherent
408.1816	0.0998771361773833	8	systole	22	A	1542.5842068661057	coherent
408.3827	0.0998771361773833	8	systole	23	B	500.0	coherent
408.5836	0.0998771361773833	8	systole	24	A	1542.5842068661057	coherent
408.8183	0.0998771361773833	8	systole	25	A	1542.5842068661057	coherent
409.0022	0.0998771361773833	8	systole	26	B	500.0	coherent
409.1858	0.0998771361773833	8	systole	27	A	1542.5842068661057	coherent
409.5184	0.0998771361773833	8	systole	28	A	1542.5842068661057	coherent
409.7023	0.0998771361773833	8	systole	29	B	500.0	coherent
409.8859	0.0998771361773833	8	systole	30	A	1542.5842068661057	coherent
410.2184	0.0998771361773833	8	systole	31	A	1542.5842068661057	coherent
410.4023	0.0998771361773833	8	systole	32	B	500.0	coherent
410.5859	0.0998771361773833	8	systole	33	A	1542.5842068661057	coherent
410.8893	0.0998771361773833	8	systole	34	A	1542.5842068661057	coherent
411.0707	0.0998771361773833	8	systole	35	B	500.0	coherent
411.2518	0.0998771361773833	8	systole	36	A	1542.5842068661057	coherent
411.5455	0.0998771361773833	8	systole	37	A	1542.5842068661057	coherent
411.7232	0.0998771361773833	8	systole	38	B	500.0	coherent
411.9005	0.0998771361773833	8	systole	39	A	1542.5842068661057	coherent
412.1963	0.0998771361773833	8	systole	40	A	1542.5842068661057	coherent
412.3715	0.0998771361773833	8	systole	41	B	500.0	coherent
412.5463	0.0998771361773833	8	systole	42	A	1542.5842068661057	coherent
417.7166	0.0912615123670548	9	diastole	1	A	972.6712675344384	coherent
417.9	0.0912615123670548	9	diastole	2	B	500.0	coherent
418.0841	0.0912615123670548	9	diastole	3	A	972.6712675344384	coherent
418.4265	0.0912615123670548	9	diastole	4	A	972.6712675344384	coherent
418.61	0.0912615123670548	9	diastole	5	B	500.0	coherent
418.7941	0.0912615123670548	9	diastole	6	A	972.6712675344384	coherent
419.1365	0.0912615123670548	9	diastole	7	A	972.6712675344384	coherent
419.3199	0.0912615123670548	9	diastole	8	B	500.0	coherent
419.504	0.0912615123670548	9	diastole	9	A	972.6712675344384	coherent
419.8168	0.0912615123670548	9	diastole	10	A	972.6712675344384	coherent
420.0003	0.0912615123670548	9	diastole	11	B	500.0	coherent
420.1844	0.0912615123670548	9	diastole	12	A	972.6712675344384	coherent
420.5294	0.0912615123670548	9	diastole	13	A	972.6712675344384	coherent
420.7116	0.0912615123670548	9	diastole	14	B	500.0	coherent
420.8944	0.0912615123670548	9	diastole	15	A	972.6712675344384	coherent
421.308	0.0912615123670548	9	diastole	16	A	972.6712675344384	coherent
421.4915	0.0912615123670548	9	diastole	17	B	500.0	coherent
421.6756	0.0912615123670548	9	diastole	18	A	972.6712675344384	coherent
422.0283	0.0912615123670548	9	diastole	19	A	972.6712675344384	coherent
422.2103	0.0912615123670548	9	diastole	20	B	500.0	coherent
422.393	0.0912615123670548	9	diastole	21	A	972.6712675344384	coherent
422.8053	0.0912615123670548	9	diastole	22	A	972.6712675344384	coherent
422.9885	0.0912615123670548	9	diastole	23	B	500.0	coherent
423.1724	0.0912615123670548	9	diastole	24	A	972.6712675344384	coherent
423.6035	0.0912615123670548	9	diastole	25	A	972.6712675344384	coherent
423.7881	0.0912615123670548	9	diastole	26	B	500.0	coherent
423.9735	0.0912615123670548	9	diastole	27	A	972.6712675344384	coherent
424.3935	0.0912615123670548	9	diastole	28	A	972.6712675344384	coherent
424.5781	0.0912615123670548	9	diastole	29	B	500.0	coherent
424.7635	0.0912615123670548	9	diastole	30	A	972.6712675344384	coherent
425.1335	0.0912615123670548	9	diastole	31	A	972.6712675344384	coherent
425.3182	0.0912615123670548	9	diastole	32	B	500.0	coherent
425.5035	0.0912615123670548	9	diastole	33	A	972.6712675344384	coherent
425.8735	0.0912615123670548	9	diastole	34	A	972.6712675344384	coherent
426.0581	0.0912615123670548	9	diastole	35	B	500.0	coherent
426.2435	0.0912615123670548	9	diastole	36	A	972.6712675344384	coherent
428.0232	0.0931283848476596	10	diastole	1	A	2130.3297690552017	streaming
428.2082	0.0931283848476596	10	diastole	2	B	500.0	streaming
428.3932	0.0931283848476596	10	diastole	3	A	2130.3297690552017	streaming
428.7731	0.0931283848476596	10	diastole	4	A	2130.3297690552017	streaming
428.9582	0.0931283848476596	10	diastole	5	B	500.0	streaming
429.1431	0.0931283848476596	10	diastole	6	A	2130.3297690552017	streaming
429.5299	0.0931283848476596	10	diastole	7	A	2130.3297690552017	streaming
429.7162	0.0931283848476596	10	diastole	8	B	500.0	streaming
429.9024	0.0931283848476596	10	diastole	9	A	2130.3297690552017	streaming
430.2797	0.0931283848476596	10	diastole	10	A	2130.3297690552017	streaming
430.466	0.0931283848476596	10	diastole	11	B	500.0	streaming
430.6522	0.0931283848476596	10	diastole	12	A	2130.3297690552017	streaming
431.0227	0.0931283848476596	10	diastole	13	A	2130.3297690552017	streaming
431.2078	0.0931283848476596	10	diastole	14	B	500.0	streaming
431.3927	0.0931283848476596	10	diastole	15	A	2130.3297690552017	streaming
431.82	0.0931283848476596	10	diastole	16	A	2130.3297690552017	streaming
432.0063	0.0931283848476596	10	diastole	17	B	500.0	streaming
432.1925	0.0931283848476596	10	diastole	18	A	2130.3297690552017	streaming
432.6104	0.0931283848476596	10	diastole	19	A	2130.3297690552017	streaming
432.7967	0.0931283848476596	10	diastole	20	B	500.0	streaming
432.9829	0.0931283848476596	10	diastole	21	A	2130.3297690552017	streaming
433.4376	0.0931283848476596	10	diastole	22	A	2130.3297690552017	streaming
433.6251	0.0931283848476596	10	diastole	23	B	500.0	streaming
433.8126	0.0931283848476596	10	diastole	24	A	2130.3297690552017	streaming
434.2576	0.0931283848476596	10	diastole	25	A	2130.3297690552017	streaming
434.4451	0.0931283848476596	10	diastole	26	B	500.0	streaming
434.6326	0.0931283848476596	10	diastole	27	A	2130.3297690552017	streaming
435.1376	0.0931283848476596	10	diastole	28	A	2130.3297690552017	streaming
435.3251	0.0931283848476596	10	diastole	29	B	500.0	streaming
435.5126	0.0931283848476596	10	diastole	30	A	2130.3297690552017	streaming
435.9842	0.0931283848476596	10	diastole	31	A	2130.3297690552017	streaming
436.1817	0.0931283848476596	10	diastole	32	B	500.0	streaming
436.3791	0.0931283848476596	10	diastole	33	A	2130.3297690552017	streaming
436.7442	0.0931283848476596	10	diastole	34	A	2130.3297690552017	streaming
436.9417	0.0931283848476596	10	diastole	35	B	500.0	streaming
437.1392	0.0931283848476596	10	diastole	36	A	2130.3297690552017	streaming
437.5043	0.0931283848476596	10	diastole	37	A	2130.3297690552017	streaming
437.7018	0.0931283848476596	10	diastole	38	B	500.0	streaming
437.8993	0.0931283848476596	10	diastole	39	A	2130.3297690552017	streaming
440.4135	0.098136112676002	11	diastole	1	A	928.8333655934664	coherent
440.6069	0.098136112676002	11	diastole	2	B	500.0	coherent
440.8012	0.098136112676002	11	diastole	3	A	928.8333655934664	coherent
441.1536	0.098136112676002	11	diastole	4	A	928.8333655934664	coherent
441.3469	0.098136112676002	11	diastole	5	B	500.0	coherent
441.5411	0.098136112676002	11	diastole	6	A	928.8333655934664	coherent
441.9088	0.098136112676002	11	diastole	7	A	928.8333655934664	coherent
442.0997	0.098136112676002	11	diastole	8	B	500.0	coherent
442.2913	0.098136112676002	11	diastole	9	A	928.8333655934664	coherent
442.6247	0.098136112676002	11	diastole	10	A	928.8333655934664	coherent
442.813	0.098136112676002	11	diastole	11	B	500.0	coherent
443.0022	0.098136112676002	11	diastole	12	A	928.8333655934664	coherent
443.3546	0.098136112676002	11	diastole	13	A	928.8333655934664	coherent
443.5429	0.098136112676002	11	diastole	14	B	500.0	coherent
443.7321	0.098136112676002	11	diastole	15	A	928.8333655934664	coherent
444.1714	0.098136112676002	11	diastole	16	A	928.8333655934664	coherent
444.3609	0.098136112676002	11	diastole	17	B	500.0	coherent
444.5513	0.098136112676002	11	diastole	18	A	928.8333655934664	coherent
444.9812	0.098136112676002	11	diastole	19	A	928.8333655934664	coherent
445.1707	0.098136112676002	11	diastole	20	B	500.0	coherent
445.3611	0.098136112676002	11	diastole	21	A	928.8333655934664	coherent
445.7554	0.098136112676002	11	diastole	22	A	928.8333655934664	coherent
445.9475	0.098136112676002	11	diastole	23	B	500.0	coherent
446.1404	0.098136112676002	11	diastole	24	A	928.8333655934664	coherent
446.5155	0.098136112676002	11	diastole	25	A	928.8333655934664	coherent
446.7075	0.098136112676002	11	diastole	26	B	500.0	coherent
446.9004	0.098136112676002	11	diastole	27	A	928.8333655934664	coherent
447.2855	0.098136112676002	11	diastole	28	A	928.8333655934664	coherent
447.4775	0.098136112676002	11	diastole	29	B	500.0	coherent
447.6704	0.098136112676002	11	diastole	30	A	928.8333655934664	coherent
447.9851	0.098136112676002	11	diastole	31	A	928.8333655934664	coherent
448.1772	0.098136112676002	11	diastole	32	B	500.0	coherent
448.3701	0.098136112676002	11	diastole	33	A	928.8333655934664	coherent
448.6855	0.098136112676002	11	diastole	34	A	928.8333655934664	coherent
448.8775	0.098136112676002	11	diastole	35	B	500.0	coherent
449.0704	0.098136112676002	11	diastole	36	A	928.8333655934664	coherent
449.3858	0.098136112676002	11	diastole	37	A	928.8333655934664	coherent
449.5779	0.098136112676002	11	diastole	38	B	500.0	coherent
449.7708	0.098136112676002	11	diastole	39	A	928.8333655934664	coherent
451.666	0.0937547201174311	12	diastole	1	A	1987.9452401467304	streaming
451.8532	0.0937547201174311	12	diastole	2	B	500.0	streaming
452.0405	0.0937547201174311	12	diastole	3	A	1987.9452401467304	streaming
452.4241	0.0937547201174311	12	diastole	4	A	1987.9452401467304	streaming
452.6113	0.0937547201174311	12	diastole	5	B	500.0	streaming
452.7986	0.0937547201174311	12	diastole	6	A	1987.9452401467304	streaming
453.1822	0.0937547201174311	12	diastole	7	A	1987.9452401467304	streaming
453.3695	0.0937547201174311	12	diastole	8	B	500.0	streaming
453.5568	0.0937547201174311	12	diastole	9	A	1987.9452401467304	streaming
453.8855	0.0937547201174311	12	diastole	10	A	1987.9452401467304	streaming
454.068	0.0937547201174311	12	diastole	11	B	500.0	streaming
454.2506	0.0937547201174311	12	diastole	12	A	1987.9452401467304	streaming
454.6157	0.0937547201174311	12	diastole	13	A	1987.9452401467304	streaming
454.7982	0.0937547201174311	12	diastole	14	B	500.0	streaming
454.9808	0.0937547201174311	12	diastole	15	A	1987.9452401467304	streaming
455.3458	0.0937547201174311	12	diastole	16	A	1987.9452401467304	streaming
455.5283	0.0937547201174311	12	diastole	17	B	500.0	streaming
455.7108	0.0937547201174311	12	diastole	18	A	1987.9452401467304	streaming
456.0921	0.0937547201174311	12	diastole	19	A	1987.9452401467304	streaming
456.2758	0.0937547201174311	12	diastole	20	B	500.0	streaming
456.4595	0.0937547201174311	12	diastole	21	A	1987.9452401467304	streaming
456.8317	0.0937547201174311	12	diastole	22	A	1987.9452401467304	streaming
457.0153	0.0937547201174311	12	diastole	23	B	500.0	streaming
457.1991	0.0937547201174311	12	diastole	24	A	1987.9452401467304	streaming
457.5891	0.0937547201174311	12	diastole	25	A	1987.9452401467304	streaming
457.774	0.0937547201174311	12	diastole	26	B	500.0	streaming
457.959	0.0937547201174311	12	diastole	27	A	1987.9452401467304	streaming
458.3065	0.0937547201174311	12	diastole	28	A	1987.9452401467304	streaming
458.4927	0.0937547201174311	12	diastole	29	B	500.0	streaming
458.679	0.0937547201174311	12	diastole	30	A	1987.9452401467304	streaming
459.0166	0.0937547201174311	12	diastole	31	A	1987.9452401467304	streaming
459.2028	0.0937547201174311	12	diastole	32	B	500.0	streaming
459.3891	0.0937547201174311	12	diastole	33	A	1987.9452401467304	streaming
459.7668	0.0937547201174311	12	diastole	34	A	1987.9452401467304	streaming
459.953	0.0937547201174311	12	diastole	35	B	500.0	streaming
460.1392	0.0937547201174311	12	diastole	36	A	1987.9452401467304	streaming
460.517	0.0937547201174311	12	diastole	37	A	1987.9452401467304	streaming
460.7032	0.0937547201174311	12	diastole	38	B	500.0	streaming
460.8895	0.0937547201174311	12	diastole	39	A	1987.9452401467304	streaming
462.8682	0.0937689875718206	13	diastole	1	A	972.6712675344384	coherent
463.0554	0.0937689875718206	13	diastole	2	B	500.0	coherent
463.2433	0.0937689875718206	13	diastole	3	A	972.6712675344384	coherent
463.6282	0.0937689875718206	13	diastole	4	A	972.6712675344384	coherent
463.8154	0.0937689875718206	13	diastole	5	B	500.0	coherent
464.0033	0.0937689875718206	13	diastole	6	A	972.6712675344384	coherent
464.3882	0.0937689875718206	13	diastole	7	A	972.6712675344384	coherent
464.5754	0.0937689875718206	13	diastole	8	B	500.0	coherent
464.7634	0.0937689875718206	13	diastole	9	A	972.6712675344384	coherent
465.0879	0.0937689875718206	13	diastole	10	A	972.6712675344384	coherent
465.2751	0.0937689875718206	13	diastole	11	B	500.0	coherent
465.463	0.0937689875718206	13	diastole	12	A	972.6712675344384	coherent
465.7733	0.0937689875718206	13	diastole	13	A	972.6712675344384	coherent
465.9579	0.0937689875718206	13	diastole	14	B	500.0	coherent
466.1432	0.0937689875718206	13	diastole	15	A	972.6712675344384	coherent
466.4734	0.0937689875718206	13	diastole	16	A	972.6712675344384	coherent
466.658	0.0937689875718206	13	diastole	17	B	500.0	coherent
466.8433	0.0937689875718206	13	diastole	18	A	972.6712675344384	coherent
467.1934	0.0937689875718206	13	diastole	19	A	972.6712675344384	coherent
467.378	0.0937689875718206	13	diastole	20	B	500.0	coherent
467.5633	0.0937689875718206	13	diastole	21	A	972.6712675344384	coherent
467.8537	0.0937689875718206	13	diastole	22	A	972.6712675344384	coherent
468.0346	0.0937689875718206	13	diastole	23	B	500.0	coherent
468.2161	0.0937689875718206	13	diastole	24	A	972.6712675344384	coherent
468.6237	0.0937689875718206	13	diastole	25	A	972.6712675344384	coherent
468.8046	0.0937689875718206	13	diastole	26	B	500.0	coherent
468.9861	0.0937689875718206	13	diastole	27	A	972.6712675344384	coherent
469.3937	0.0937689875718206	13	diastole	28	A	972.6712675344384	coherent
469.5745	0.0937689875718206	13	diastole	29	B	500.0	coherent
469.7561	0.0937689875718206	13	diastole	30	A	972.6712675344384	coherent
470.144	0.0937689875718206	13	diastole	31	A	972.6712675344384	coherent
470.3249	0.0937689875718206	13	diastole	32	B	500.0	coherent
470.5065	0.0937689875718206	13	diastole	33	A	972.6712675344384	coherent
470.894	0.0937689875718206	13	diastole	34	A	972.6712675344384	coherent
471.0749	0.0937689875718206	13	diastole	35	B	500.0	coherent
471.2565	0.0937689875718206	13	diastole	36	A	972.6712675344384	coherent
471.6441	0.0937689875718206	13	diastole	37	A	972.6712675344384	coherent
471.825	0.0937689875718206	13	diastole	38	B	500.0	coherent
472.0066	0.0937689875718206	13	diastole	39	A	972.6712675344384	coherent
474.3954	0.0955261999042704	14	systole	1	A	2561.886903957566	streaming
474.5864	0.0955261999042704	14	systole	2	B	500.0	streaming
474.7775	0.0955261999042704	14	systole	3	A	2561.886903957566	streaming
475.1416	0.0955261999042704	14	systole	4	A	2561.886903957566	streaming
475.3314	0.0955261999042704	14	systole	5	B	500.0	streaming
475.5216	0.0955261999042704	14	systole	6	A	2561.886903957566	streaming
475.8915	0.0955261999042704	14	systole	7	A	2561.886903957566	streaming
476.0814	0.0955261999042704	14	systole	8	B	500.0	streaming
476.2716	0.0955261999042704	14	systole	9	A	2561.886903957566	streaming
476.6214	0.0955261999042704	14	systole	10	A	2561.886903957566	streaming
476.8113	0.0955261999042704	14	systole	11	B	500.0	streaming
477.0014	0.0955261999042704	14	systole	12	A	2561.886903957566	streaming
477.3515	0.0955261999042704	14	systole	13	A	2561.886903957566	streaming
477.5413	0.0955261999042704	14	systole	14	B	500.0	streaming
477.7314	0.0955261999042704	14	systole	15	A	2561.886903957566	streaming
478.1169	0.0955261999042704	14	systole	16	A	2561.886903957566	streaming
478.3055	0.0955261999042704	14	systole	17	B	500.0	streaming
478.4944	0.0955261999042704	14	systole	18	A	2561.886903957566	streaming
478.8624	0.0955261999042704	14	systole	19	A	2561.886903957566	streaming
479.0497	0.0955261999042704	14	systole	20	B	500.0	streaming
479.2374	0.0955261999042704	14	systole	21	A	2561.886903957566	streaming
479.6123	0.0955261999042704	14	systole	22	A	2561.886903957566	streaming
479.7997	0.0955261999042704	14	systole	23	B	500.0	streaming
479.9873	0.0955261999042704	14	systole	24	A	2561.886903957566	streaming
480.4023	0.0955261999042704	14	systole	25	A	2561.886903957566	streaming
480.5897	0.0955261999042704	14	systole	26	B	500.0	streaming
480.7773	0.0955261999042704	14	systole	27	A	2561.886903957566	streaming
481.1669	0.0955261999042704	14	systole	28	A	2561.886903957566	streaming
481.3555	0.0955261999042704	14	systole	29	B	500.0	streaming
481.5444	0.0955261999042704	14	systole	30	A	2561.886903957566	streaming
481.9269	0.0955261999042704	14	systole	31	A	2561.886903957566	streaming
482.1155	0.0955261999042704	14	systole	32	B	500.0	streaming
482.3044	0.0955261999042704	14	systole	33	A	2561.886903957566	streaming
482.6769	0.0955261999042704	14	systole	34	A	2561.886903957566	streaming
482.8655	0.0955261999042704	14	systole	35	B	500.0	streaming
483.0544	0.0955261999042704	14	systole	36	A	2561.886903957566	streaming
483.3885	0.0955261999042704	14	systole	37	A	2561.886903957566	streaming
483.5771	0.0955261999042704	14	systole	38	B	500.0	streaming
483.766	0.0955261999042704	14	systole	39	A	2561.886903957566	streaming
485.6607	0.0950006759376265	15	systole	1	A	2503.4897289455444	streaming
485.8503	0.0950006759376265	15	systole	2	B	500.0	streaming
486.0402	0.0950006759376265	15	systole	3	A	2503.4897289455444	streaming
486.3907	0.0950006759376265	15	systole	4	A	2503.4897289455444	streaming
486.5803	0.0950006759376265	15	systole	5	B	500.0	streaming
486.7702	0.0950006759376265	15	systole	6	A	2503.4897289455444	streaming
487.0807	0.0950006759376265	15	systole	7	A	2503.4897289455444	streaming
487.2703	0.0950006759376265	15	systole	8	B	500.0	streaming
487.4602	0.0950006759376265	15	systole	9	A	2503.4897289455444	streaming
487.7862	0.0950006759376265	15	systole	10	A	2503.4897289455444	streaming
487.9745	0.0950006759376265	15	systole	11	B	500.0	streaming
488.1632	0.0950006759376265	15	systole	12	A	2503.4897289455444	streaming
488.5087	0.0950006759376265	15	systole	13	A	2503.4897289455444	streaming
488.6924	0.0950006759376265	15	systole	14	B	500.0	streaming
488.8762	0.0950006759376265	15	systole	15	A	2503.4897289455444	streaming
489.2096	0.0950006759376265	15	systole	16	A	2503.4897289455444	streaming
489.3906	0.0950006759376265	15	systole	17	B	500.0	streaming
489.5721	0.0950006759376265	15	systole	18	A	2503.4897289455444	streaming
489.9195	0.0950006759376265	15	systole	19	A	2503.4897289455444	streaming
490.1006	0.0950006759376265	15	systole	20	B	500.0	streaming
490.282	0.0950006759376265	15	systole	21	A	2503.4897289455444	streaming
490.7187	0.0950006759376265	15	systole	22	A	2503.4897289455444	streaming
490.9023	0.0950006759376265	15	systole	23	B	500.0	streaming
491.0862	0.0950006759376265	15	systole	24	A	2503.4897289455444	streaming
491.4888	0.0950006759376265	15	systole	25	A	2503.4897289455444	streaming
491.6723	0.0950006759376265	15	systole	26	B	500.0	streaming
491.8562	0.0950006759376265	15	systole	27	A	2503.4897289455444	streaming
492.2588	0.0950006759376265	15	systole	28	A	2503.4897289455444	streaming
492.4424	0.0950006759376265	15	systole	29	B	500.0	streaming
492.6263	0.0950006759376265	15	systole	30	A	2503.4897289455444	streaming
493.0188	0.0950006759376265	15	systole	31	A	2503.4897289455444	streaming
493.2024	0.0950006759376265	15	systole	32	B	500.0	streaming
493.3863	0.0950006759376265	15	systole	33	A	2503.4897289455444	streaming
493.7789	0.0950006759376265	15	systole	34	A	2503.4897289455444	streaming
493.9625	0.0950006759376265	15	systole	35	B	500.0	streaming
494.1464	0.0950006759376265	15	systole	36	A	2503.4897289455444	streaming
494.5579	0.0950006759376265	15	systole	37	A	2503.4897289455444	streaming
494.744	0.0950006759376265	15	systole	38	B	500.0	streaming
494.9304	0.0950006759376265	15	systole	39	A	2503.4897289455444	streaming
497.2459	0.0956210376461967	16	diastole	1	A	1771.4696608628924	streaming
497.4382	0.0956210376461967	16	diastole	2	B	500.0	streaming
497.6309	0.0956210376461967	16	diastole	3	A	1771.4696608628924	streaming
498.0164	0.0956210376461967	16	diastole	4	A	1771.4696608628924	streaming
498.2087	0.0956210376461967	16	diastole	5	B	500.0	streaming
498.4014	0.0956210376461967	16	diastole	6	A	1771.4696608628924	streaming
498.7869	0.0956210376461967	16	diastole	7	A	1771.4696608628924	streaming
498.9792	0.0956210376461967	16	diastole	8	B	500.0	streaming
499.1718	0.0956210376461967	16	diastole	9	A	1771.4696608628924	streaming
499.5869	0.0956210376461967	16	diastole	10	A	1771.4696608628924	streaming
499.7792	0.0956210376461967	16	diastole	11	B	500.0	streaming
499.9719	0.0956210376461967	16	diastole	12	A	1771.4696608628924	streaming
500.4068	0.0956210376461967	16	diastole	13	A	1771.4696608628924	streaming
500.5991	0.0956210376461967	16	diastole	14	B	500.0	streaming
500.7918	0.0956210376461967	16	diastole	15	A	1771.4696608628924	streaming
501.1941	0.0956210376461967	16	diastole	16	A	1771.4696608628924	streaming
501.3877	0.0956210376461967	16	diastole	17	B	500.0	streaming
501.5817	0.0956210376461967	16	diastole	18	A	1771.4696608628924	streaming
501.9942	0.0956210376461967	16	diastole	19	A	1771.4696608628924	streaming
502.1878	0.0956210376461967	16	diastole	20	B	500.0	streaming
502.3818	0.0956210376461967	16	diastole	21	A	1771.4696608628924	streaming
502.7942	0.0956210376461967	16	diastole	22	A	1771.4696608628924	streaming
502.9878	0.0956210376461967	16	diastole	23	B	500.0	streaming
503.1818	0.0956210376461967	16	diastole	24	A	1771.4696608628924	streaming
503.5982	0.0956210376461967	16	diastole	25	A	1771.4696608628924	streaming
503.7942	0.0956210376461967	16	diastole	26	B	500.0	streaming
503.9907	0.0956210376461967	16	diastole	27	A	1771.4696608628924	streaming
504.3682	0.0956210376461967	16	diastole	28	A	1771.4696608628924	streaming
504.5642	0.0956210376461967	16	diastole	29	B	500.0	streaming
504.7607	0.0956210376461967	16	diastole	30	A	1771.4696608628924	streaming
505.1382	0.0956210376461967	16	diastole	31	A	1771.4696608628924	streaming
505.3343	0.0956210376461967	16	diastole	32	B	500.0	streaming
505.5307	0.0956210376461967	16	diastole	33	A	1771.4696608628924	streaming
505.9082	0.0956210376461967	16	diastole	34	A	1771.4696608628924	streaming
506.1043	0.0956210376461967	16	diastole	35	B	500.0	streaming
506.3007	0.0956210376461967	16	diastole	36	A	1771.4696608628924	streaming
508.2413	0.0950001382734626	17	systole	1	A	559.276710600066	coherent
508.4313	0.0950001382734626	17	systole	2	B	500.0	coherent
508.6212	0.0950001382734626	17	systole	3	A	559.276710600066	coherent
508.9674	0.0950001382734626	17	systole	4	A	559.276710600066	coherent
509.1538	0.0950001382734626	17	systole	5	B	500.0	coherent
509.3399	0.0950001382734626	17	systole	6	A	559.276710600066	coherent
509.7074	0.0950001382734626	17	systole	7	A	559.276710600066	coherent
509.8937	0.0950001382734626	17	systole	8	B	500.0	coherent
510.0799	0.0950001382734626	17	systole	9	A	559.276710600066	coherent
510.4575	0.0950001382734626	17	systole	10	A	559.276710600066	coherent
510.6438	0.0950001382734626	17	systole	11	B	500.0	coherent
510.83	0.0950001382734626	17	systole	12	A	559.276710600066	coherent
511.2974	0.0950001382734626	17	systole	13	A	559.276710600066	coherent
511.4837	0.0950001382734626	17	systole	14	B	500.0	coherent
511.6699	0.0950001382734626	17	systole	15	A	559.276710600066	coherent
512.0775	0.0950001382734626	17	systole	16	A	559.276710600066	coherent
512.2638	0.0950001382734626	17	systole	17	B	500.0	coherent
512.45	0.0950001382734626	17	systole	18	A	559.276710600066	coherent
512.8574	0.0950001382734626	17	systole	19	A	559.276710600066	coherent
513.0438	0.0950001382734626	17	systole	20	B	500.0	coherent
513.2299	0.0950001382734626	17	systole	21	A	559.276710600066	coherent
513.6612	0.0950001382734626	17	systole	22	A	559.276710600066	coherent
513.8513	0.0950001382734626	17	systole	23	B	500.0	coherent
514.0412	0.0950001382734626	17	systole	24	A	559.276710600066	coherent
514.5149	0.0950001382734626	17	systole	25	A	559.276710600066	coherent
514.7087	0.0950001382734626	17	systole	26	B	500.0	coherent
514.9024	0.0950001382734626	17	systole	27	A	559.276710600066	coherent
515.3641	0.0950001382734626	17	systole	28	A	559.276710600066	coherent
515.5604	0.0950001382734626	17	systole	29	B	500.0	coherent
515.7566	0.0950001382734626	17	systole	30	A	559.276710600066	coherent
516.1632	0.0950001382734626	17	systole	31	A	559.276710600066	coherent
516.362	0.0950001382734626	17	systole	32	B	500.0	coherent
516.5607	0.0950001382734626	17	systole	33	A	559.276710600066	coherent
516.9678	0.0950001382734626	17	systole	34	A	559.276710600066	coherent
517.1679	0.0950001382734626	17	systole	35	B	500.0	coherent
517.3678	0.0950001382734626	17	systole	36	A	559.276710600066	coherent
517.7678	0.0950001382734626	17	systole	37	A	559.276710600066	coherent
517.9679	0.0950001382734626	17	systole	38	B	500.0	coherent
518.1678	0.0950001382734626	17	systole	39	A	559.276710600066	coherent
520.1188	0.0987491438863799	18	systole	1	A	2390.658456026444	streaming
520.3165	0.0987491438863799	18	systole	2	B	500.0	streaming
520.5138	0.0987491438863799	18	systole	3	A	2390.658456026444	streaming
520.8712	0.0987491438863799	18	systole	4	A	2390.658456026444	streaming
521.0664	0.0987491438863799	18	systole	5	B	500.0	streaming
521.2612	0.0987491438863799	18	systole	6	A	2390.658456026444	streaming
521.6328	0.0987491438863799	18	systole	7	A	2390.658456026444	streaming
521.8279	0.0987491438863799	18	systole	8	B	500.0	streaming
522.0228	0.0987491438863799	18	systole	9	A	2390.658456026444	streaming
522.365	0.0987491438863799	18	systole	10	A	2390.658456026444	streaming
522.5553	0.0987491438863799	18	systole	11	B	500.0	streaming
522.7454	0.0987491438863799	18	systole	12	A	2390.658456026444	streaming
523.1147	0.0987491438863799	18	systole	13	A	2390.658456026444	streaming
523.3051	0.0987491438863799	18	systole	14	B	500.0	streaming
523.4951	0.0987491438863799	18	systole	15	A	2390.658456026444	streaming
523.8302	0.0987491438863799	18	systole	16	A	2390.658456026444	streaming
524.0193	0.0987491438863799	18	systole	17	B	500.0	streaming
524.2081	0.0987491438863799	18	systole	18	A	2390.658456026444	streaming
524.5502	0.0987491438863799	18	systole	19	A	2390.658456026444	streaming
524.7393	0.0987491438863799	18	systole	20	B	500.0	streaming
524.9281	0.0987491438863799	18	systole	21	A	2390.658456026444	streaming
525.3203	0.0987491438863799	18	systole	22	A	2390.658456026444	streaming
525.5094	0.0987491438863799	18	systole	23	B	500.0	streaming
525.6982	0.0987491438863799	18	systole	24	A	2390.658456026444	streaming
526.0294	0.0987491438863799	18	systole	25	A	2390.658456026444	streaming
526.2182	0.0987491438863799	18	systole	26	B	500.0	streaming
526.4068	0.0987491438863799	18	systole	27	A	2390.658456026444	streaming
526.7393	0.0987491438863799	18	systole	28	A	2390.658456026444	streaming
526.9282	0.0987491438863799	18	systole	29	B	500.0	streaming
527.1167	0.0987491438863799	18	systole	30	A	2390.658456026444	streaming
527.4541	0.0987491438863799	18	systole	31	A	2390.658456026444	streaming
527.6415	0.0987491438863799	18	systole	32	B	500.0	streaming
527.8286	0.0987491438863799	18	systole	33	A	2390.658456026444	streaming
528.1741	0.0987491438863799	18	systole	34	A	2390.658456026444	streaming
528.3615	0.0987491438863799	18	systole	35	B	500.0	streaming
528.5486	0.0987491438863799	18	systole	36	A	2390.658456026444	streaming
528.8174	0.0987491438863799	18	systole	37	A	2390.658456026444	streaming
528.9975	0.0987491438863799	18	systole	38	B	500.0	streaming
529.1774	0.0987491438863799	18	systole	39	A	2390.658456026444	streaming
529.4874	0.0987491438863799	18	systole	40	A	2390.658456026444	streaming
529.6675	0.0987491438863799	18	systole	41	B	500.0	streaming
529.8474	0.0987491438863799	18	systole	42	A	2390.658456026444	streaming
532.4302	0.0887529968749731	19	systole	1	A	585.6727451368844	coherent
532.6091	0.0887529968749731	19	systole	2	B	500.0	coherent
532.7877	0.0887529968749731	19	systole	3	A	585.6727451368844	coherent
533.1502	0.0887529968749731	19	systole	4	A	585.6727451368844	coherent
533.3291	0.0887529968749731	19	systole	5	B	500.0	coherent
533.5077	0.0887529968749731	19	systole	6	A	585.6727451368844	coherent
533.8702	0.0887529968749731	19	systole	7	A	585.6727451368844	coherent
534.0491	0.0887529968749731	19	systole	8	B	500.0	coherent
534.2277	0.0887529968749731	19	systole	9	A	585.6727451368844	coherent
534.6748	0.0887529968749731	19	systole	10	A	585.6727451368844	coherent
534.8549	0.0887529968749731	19	systole	11	B	500.0	coherent
535.0348	0.0887529968749731	19	systole	12	A	585.6727451368844	coherent
535.4748	0.0887529968749731	19	systole	13	A	585.6727451368844	coherent
535.6549	0.0887529968749731	19	systole	14	B	500.0	coherent
535.8347	0.0887529968749731	19	systole	15	A	585.6727451368844	coherent
536.2907	0.0887529968749731	19	systole	16	A	585.6727451368844	coherent
536.4833	0.0887529968749731	19	systole	17	B	500.0	coherent
536.6756	0.0887529968749731	19	systole	18	A	585.6727451368844	coherent
537.0205	0.0887529968749731	19	systole	19	A	585.6727451368844	coherent
537.2131	0.0887529968749731	19	systole	20	B	500.0	coherent
537.4055	0.0887529968749731	19	systole	21	A	585.6727451368844	coherent
537.7705	0.0887529968749731	19	systole	22	A	585.6727451368844	coherent
537.9631	0.0887529968749731	19	systole	23	B	500.0	coherent
538.1555	0.0887529968749731	19	systole	24	A	585.6727451368844	coherent
538.5114	0.0887529968749731	19	systole	25	A	585.6727451368844	coherent
538.7014	0.0887529968749731	19	systole	26	B	500.0	coherent
538.8913	0.0887529968749731	19	systole	27	A	585.6727451368844	coherent
539.2614	0.0887529968749731	19	systole	28	A	585.6727451368844	coherent
539.4514	0.0887529968749731	19	systole	29	B	500.0	coherent
539.6413	0.0887529968749731	19	systole	30	A	585.6727451368844	coherent
539.9525	0.0887529968749731	19	systole	31	A	585.6727451368844	coherent
540.1401	0.0887529968749731	19	systole	32	B	500.0	coherent
540.3275	0.0887529968749731	19	systole	33	A	585.6727451368844	coherent
540.6225	0.0887529968749731	19	systole	34	A	585.6727451368844	coherent
540.8101	0.0887529968749731	19	systole	35	B	500.0	coherent
540.9975	0.0887529968749731	19	systole	36	A	585.6727451368844	coherent
541.2725	0.0887529968749731	19	systole	37	A	585.6727451368844	coherent
541.4601	0.0887529968749731	19	systole	38	B	500.0	coherent
541.6475	0.0887529968749731	19	systole	39	A	585.6727451368844	coherent
543.7748	0.0918486401787959	20	diastole	1	A	1312.6529017338555	streaming
543.9548	0.0918486401787959	20	diastole	2	B	500.0	streaming
544.1347	0.0918486401787959	20	diastole	3	A	1312.6529017338555	streaming
544.4848	0.0918486401787959	20	diastole	4	A	1312.6529017338555	streaming
544.6648	0.0918486401787959	20	diastole	5	B	500.0	streaming
544.8447	0.0918486401787959	20	diastole	6	A	1312.6529017338555	streaming
545.1948	0.0918486401787959	20	diastole	7	A	1312.6529017338555	streaming
545.3748	0.0918486401787959	20	diastole	8	B	500.0	streaming
545.5547	0.0918486401787959	20	diastole	9	A	1312.6529017338555	streaming
545.9518	0.0918486401787959	20	diastole	10	A	1312.6529017338555	streaming
546.1331	0.0918486401787959	20	diastole	11	B	500.0	streaming
546.3142	0.0918486401787959	20	diastole	12	A	1312.6529017338555	streaming
546.7918	0.0918486401787959	20	diastole	13	A	1312.6529017338555	streaming
546.973	0.0918486401787959	20	diastole	14	B	500.0	streaming
547.1542	0.0918486401787959	20	diastole	15	A	1312.6529017338555	streaming
547.6318	0.0918486401787959	20	diastole	16	A	1312.6529017338555	streaming
547.813	0.0918486401787959	20	diastole	17	B	500.0	streaming
547.9942	0.0918486401787959	20	diastole	18	A	1312.6529017338555	streaming
548.4418	0.0918486401787959	20	diastole	19	A	1312.6529017338555	streaming
548.6231	0.0918486401787959	20	diastole	20	B	500.0	streaming
548.8042	0.0918486401787959	20	diastole	21	A	1312.6529017338555	streaming
549.1683	0.0918486401787959	20	diastole	22	A	1312.6529017338555	streaming
549.3507	0.0918486401787959	20	diastole	23	B	500.0	streaming
549.5331	0.0918486401787959	20	diastole	24	A	1312.6529017338555	streaming
549.9057	0.0918486401787959	20	diastole	25	A	1312.6529017338555	streaming
550.0894	0.0918486401787959	20	diastole	26	B	500.0	streaming
550.2732	0.0918486401787959	20	diastole	27	A	1312.6529017338555	streaming
550.6357	0.0918486401787959	20	diastole	28	A	1312.6529017338555	streaming
550.8194	0.0918486401787959	20	diastole	29	B	500.0	streaming
551.0031	0.0918486401787959	20	diastole	30	A	1312.6529017338555	streaming
551.3057	0.0918486401787959	20	diastole	31	A	1312.6529017338555	streaming
551.4895	0.0918486401787959	20	diastole	32	B	500.0	streaming
551.6732	0.0918486401787959	20	diastole	33	A	1312.6529017338555	streaming
552.0117	0.0918486401787959	20	diastole	34	A	1312.6529017338555	streaming
552.193	0.0918486401787959	20	diastole	35	B	500.0	streaming
552.3742	0.0918486401787959	20	diastole	36	A	1312.6529017338555	streaming
552.6646	0.0918486401787959	20	diastole	37	A	1312.6529017338555	streaming
552.8447	0.0918486401787959	20	diastole	38	B	500.0	streaming
553.0247	0.0918486401787959	20	diastole	39	A	1312.6529017338555	streaming
555.474	0.0881346826208755	21	diastole	1	A	950.4996196948616	coherent
555.6499	0.0881346826208755	21	diastole	2	B	500.0	coherent
555.8266	0.0881346826208755	21	diastole	3	A	950.4996196948616	coherent
556.2881	0.0881346826208755	21	diastole	4	A	950.4996196948616	coherent
556.4665	0.0881346826208755	21	diastole	5	B	500.0	coherent
556.6456	0.0881346826208755	21	diastole	6	A	950.4996196948616	coherent
557.0881	0.0881346826208755	21	diastole	7	A	950.4996196948616	coherent
557.2665	0.0881346826208755	21	diastole	8	B	500.0	coherent
557.4456	0.0881346826208755	21	diastole	9	A	950.4996196948616	coherent
557.8881	0.0881346826208755	21	diastole	10	A	950.4996196948616	coherent
558.0665	0.0881346826208755	21	diastole	11	B	500.0	coherent
558.2456	0.0881346826208755	21	diastole	12	A	950.4996196948616	coherent
558.6494	0.0881346826208755	21	diastole	13	A	950.4996196948616	coherent
558.8315	0.0881346826208755	21	diastole	14	B	500.0	coherent
559.0144	0.0881346826208755	21	diastole	15	A	950.4996196948616	coherent
559.3894	0.0881346826208755	21	diastole	16	A	950.4996196948616	coherent
559.5715	0.0881346826208755	21	diastole	17	B	500.0	coherent
559.7544	0.0881346826208755	21	diastole	18	A	950.4996196948616	coherent
560.1335	0.0881346826208755	21	diastole	19	A	950.4996196948616	coherent
560.3181	0.0881346826208755	21	diastole	20	B	500.0	coherent
560.5035	0.0881346826208755	21	diastole	21	A	950.4996196948616	coherent
560.8534	0.0881346826208755	21	diastole	22	A	950.4996196948616	coherent
561.0381	0.0881346826208755	21	diastole	23	B	500.0	coherent
561.2235	0.0881346826208755	21	diastole	24	A	950.4996196948616	coherent
561.5235	0.0881346826208755	21	diastole	25	A	950.4996196948616	coherent
561.7081	0.0881346826208755	21	diastole	26	B	500.0	coherent
561.8935	0.0881346826208755	21	diastole	27	A	950.4996196948616	coherent
562.1936	0.0881346826208755	21	diastole	28	A	950.4996196948616	coherent
562.3782	0.0881346826208755	21	diastole	29	B	500.0	coherent
562.5635	0.0881346826208755	21	diastole	30	A	950.4996196948616	coherent
562.8736	0.0881346826208755	21	diastole	31	A	950.4996196948616	coherent
563.0582	0.0881346826208755	21	diastole	32	B	500.0	coherent
563.2436	0.0881346826208755	21	diastole	33	A	950.4996196948616	coherent
563.5536	0.0881346826208755	21	diastole	34	A	950.4996196948616	coherent
563.7382	0.0881346826208755	21	diastole	35	B	500.0	coherent
563.9236	0.0881346826208755	21	diastole	36	A	950.4996196948616	coherent
564.2364	0.0881346826208755	21	diastole	37	A	950.4996196948616	coherent
564.4197	0.0881346826208755	21	diastole	38	B	500.0	coherent
564.6039	0.0881346826208755	21	diastole	39	A	950.4996196948616	coherent
567.5262	0.0906285063829273	22	diastole	1	A	1507.4216242556154	coherent
567.7101	0.0906285063829273	22	diastole	2	B	500.0	coherent
567.8937	0.0906285063829273	22	diastole	3	A	1507.4216242556154	coherent
568.4029	0.0906285063829273	22	diastole	4	A	1507.4216242556154	coherent
568.5968	0.0906285063829273	22	diastole	5	B	500.0	coherent
568.7904	0.0906285063829273	22	diastole	6	A	1507.4216242556154	coherent
569.2275	0.0906285063829273	22	diastole	7	A	1507.4216242556154	coherent
569.4276	0.0906285063829273	22	diastole	8	B	500.0	coherent
569.6274	0.0906285063829273	22	diastole	9	A	1507.4216242556154	coherent
570.0172	0.0906285063829273	22	diastole	10	A	1507.4216242556154	coherent
570.2173	0.0906285063829273	22	diastole	11	B	500.0	coherent
570.417	0.0906285063829273	22	diastole	12	A	1507.4216242556154	coherent
570.8067	0.0906285063829273	22	diastole	13	A	1507.4216242556154	coherent
571.0069	0.0906285063829273	22	diastole	14	B	500.0	coherent
571.2067	0.0906285063829273	22	diastole	15	A	1507.4216242556154	coherent
571.5471	0.0906285063829273	22	diastole	16	A	1507.4216242556154	coherent
571.7472	0.0906285063829273	22	diastole	17	B	500.0	coherent
571.947	0.0906285063829273	22	diastole	18	A	1507.4216242556154	coherent
572.2871	0.0906285063829273	22	diastole	19	A	1507.4216242556154	coherent
572.4872	0.0906285063829273	22	diastole	20	B	500.0	coherent
572.687	0.0906285063829273	22	diastole	21	A	1507.4216242556154	coherent
573.0172	0.0906285063829273	22	diastole	22	A	1507.4216242556154	coherent
573.2173	0.0906285063829273	22	diastole	23	B	500.0	coherent
573.4171	0.0906285063829273	22	diastole	24	A	1507.4216242556154	coherent
573.7372	0.0906285063829273	22	diastole	25	A	1507.4216242556154	coherent
573.9373	0.0906285063829273	22	diastole	26	B	500.0	coherent
574.1371	0.0906285063829273	22	diastole	27	A	1507.4216242556154	coherent
574.3674	0.0906285063829273	22	diastole	28	A	1507.4216242556154	coherent
574.5588	0.0906285063829273	22	diastole	29	B	500.0	coherent
574.7499	0.0906285063829273	22	diastole	30	A	1507.4216242556154	coherent
575.0479	0.0906285063829273	22	diastole	31	A	1507.4216242556154	coherent
575.2306	0.0906285063829273	22	diastole	32	B	500.0	coherent
575.413	0.0906285063829273	22	diastole	33	A	1507.4216242556154	coherent
575.7779	0.0906285063829273	22	diastole	34	A	1507.4216242556154	coherent
575.9606	0.0906285063829273	22	diastole	35	B	500.0	coherent
576.1429	0.0906285063829273	22	diastole	36	A	1507.4216242556154	coherent
578.994	0.0912524813320487	23	systole	1	A	613.314586312999	coherent
579.1767	0.0912524813320487	23	systole	2	B	500.0	coherent
579.359	0.0912524813320487	23	systole	3	A	613.314586312999	coherent
579.7644	0.0912524813320487	23	systole	4	A	613.314586312999	coherent
579.9471	0.0912524813320487	23	systole	5	B	500.0	coherent
580.1294	0.0912524813320487	23	systole	6	A	613.314586312999	coherent
580.5488	0.0912524813320487	23	systole	7	A	613.314586312999	coherent
580.7327	0.0912524813320487	23	systole	8	B	500.0	coherent
580.9162	0.0912524813320487	23	systole	9	A	613.314586312999	coherent
581.2488	0.0912524813320487	23	systole	10	A	613.314586312999	coherent
581.4326	0.0912524813320487	23	systole	11	B	500.0	coherent
581.6162	0.0912524813320487	23	systole	12	A	613.314586312999	coherent
581.9588	0.0912524813320487	23	systole	13	A	613.314586312999	coherent
582.1426	0.0912524813320487	23	systole	14	B	500.0	coherent
582.3262	0.0912524813320487	23	systole	15	A	613.314586312999	coherent
582.6688	0.0912524813320487	23	systole	16	A	613.314586312999	coherent
582.8526	0.0912524813320487	23	systole	17	B	500.0	coherent
583.0362	0.0912524813320487	23	systole	18	A	613.314586312999	coherent
583.3988	0.0912524813320487	23	systole	19	A	613.314586312999	coherent
583.5826	0.0912524813320487	23	systole	20	B	500.0	coherent
583.7662	0.0912524813320487	23	systole	21	A	613.314586312999	coherent
584.1879	0.0912524813320487	23	systole	22	A	613.314586312999	coherent
584.3743	0.0912524813320487	23	systole	23	B	500.0	coherent
584.5604	0.0912524813320487	23	systole	24	A	613.314586312999	coherent
584.968	0.0912524813320487	23	systole	25	A	613.314586312999	coherent
585.1543	0.0912524813320487	23	systole	26	B	500.0	coherent
585.3404	0.0912524813320487	23	systole	27	A	613.314586312999	coherent
585.7623	0.0912524813320487	23	systole	28	A	613.314586312999	coherent
585.9498	0.0912524813320487	23	systole	29	B	500.0	coherent
586.1371	0.0912524813320487	23	systole	30	A	613.314586312999	coherent
586.4586	0.0912524813320487	23	systole	31	A	613.314586312999	coherent
586.6424	0.0912524813320487	23	systole	32	B	500.0	coherent
586.826	0.0912524813320487	23	systole	33	A	613.314586312999	coherent
587.1987	0.0912524813320487	23	systole	34	A	613.314586312999	coherent
587.3826	0.0912524813320487	23	systole	35	B	500.0	coherent
587.5662	0.0912524813320487	23	systole	36	A	613.314586312999	coherent
587.9388	0.0912524813320487	23	systole	37	A	613.314586312999	coherent
588.1227	0.0912524813320487	23	systole	38	B	500.0	coherent
588.3063	0.0912524813320487	23	systole	39	A	613.314586312999	coherent
590.63	0.090006174868904	24	systole	1	A	2180.0224995339627	streaming
590.8088	0.090006174868904	24	systole	2	B	500.0	streaming
590.9875	0.090006174868904	24	systole	3	A	2180.0224995339627	streaming
591.34	0.090006174868904	24	systole	4	A	2180.0224995339627	streaming
591.5188	0.090006174868904	24	systole	5	B	500.0	streaming
591.6975	0.090006174868904	24	systole	6	A	2180.0224995339627	streaming
592.03	0.090006174868904	24	systole	7	A	2180.0224995339627	streaming
592.2088	0.090006174868904	24	systole	8	B	500.0	streaming
592.3874	0.090006174868904	24	systole	9	A	2180.0224995339627	streaming
592.7199	0.090006174868904	24	systole	10	A	2180.0224995339627	streaming
592.8987	0.090006174868904	24	systole	11	B	500.0	streaming
593.0774	0.090006174868904	24	systole	12	A	2180.0224995339627	streaming
593.3762	0.090006174868904	24	systole	13	A	2180.0224995339627	streaming
593.5512	0.090006174868904	24	systole	14	B	500.0	streaming
593.7261	0.090006174868904	24	systole	15	A	2180.0224995339627	streaming
594.0462	0.090006174868904	24	systole	16	A	2180.0224995339627	streaming
594.2212	0.090006174868904	24	systole	17	B	500.0	streaming
594.3962	0.090006174868904	24	systole	18	A	2180.0224995339627	streaming
594.7162	0.090006174868904	24	systole	19	A	2180.0224995339627	streaming
594.8913	0.090006174868904	24	systole	20	B	500.0	streaming
595.0662	0.090006174868904	24	systole	21	A	2180.0224995339627	streaming
595.3862	0.090006174868904	24	systole	22	A	2180.0224995339627	streaming
595.5613	0.090006174868904	24	systole	23	B	500.0	streaming
595.7362	0.090006174868904	24	systole	24	A	2180.0224995339627	streaming
596.0962	0.090006174868904	24	systole	25	A	2180.0224995339627	streaming
596.2713	0.090006174868904	24	systole	26	B	500.0	streaming
596.4462	0.090006174868904	24	systole	27	A	2180.0224995339627	streaming
596.8764	0.090006174868904	24	systole	28	A	2180.0224995339627	streaming
597.0514	0.090006174868904	24	systole	29	B	500.0	streaming
597.2264	0.090006174868904	24	systole	30	A	2180.0224995339627	streaming
597.5864	0.090006174868904	24	systole	31	A	2180.0224995339627	streaming
597.7615	0.090006174868904	24	systole	32	B	500.0	streaming
597.9364	0.090006174868904	24	systole	33	A	2180.0224995339627	streaming
598.2964	0.090006174868904	24	systole	34	A	2180.0224995339627	streaming
598.4715	0.090006174868904	24	systole	35	B	500.0	streaming
598.6464	0.090006174868904	24	systole	36	A	2180.0224995339627	streaming
599.0556	0.090006174868904	24	systole	37	A	2180.0224995339627	streaming
599.2332	0.090006174868904	24	systole	38	B	500.0	streaming
599.4106	0.090006174868904	24	systole	39	A	2180.0224995339627	streaming
599.8202	0.090006174868904	24	systole	40	A	2180.0224995339627	streaming
599.999	0.090006174868904	24	systole	41	B	500.0	streaming
600.1777	0.090006174868904	24	systole	42	A	2180.0224995339627	streaming
603.0716	0.090623193536885	25	diastole	1	A	2180.0224995339627	streaming
603.2529	0.090623193536885	25	diastole	2	B	500.0	streaming
603.4341	0.090623193536885	25	diastole	3	A	2180.0224995339627	streaming
603.7597	0.090623193536885	25	diastole	4	A	2180.0224995339627	streaming
603.941	0.090623193536885	25	diastole	5	B	500.0	streaming
604.1221	0.090623193536885	25	diastole	6	A	2180.0224995339627	streaming
604.4477	0.090623193536885	25	diastole	7	A	2180.0224995339627	streaming
604.629	0.090623193536885	25	diastole	8	B	500.0	streaming
604.8102	0.090623193536885	25	diastole	9	A	2180.0224995339627	streaming
605.208	0.090623193536885	25	diastole	10	A	2180.0224995339627	streaming
605.3857	0.090623193536885	25	diastole	11	B	500.0	streaming
605.5633	0.090623193536885	25	diastole	12	A	2180.0224995339627	streaming
605.9752	0.090623193536885	25	diastole	13	A	2180.0224995339627	streaming
606.1542	0.090623193536885	25	diastole	14	B	500.0	streaming
606.3331	0.090623193536885	25	diastole	15	A	2180.0224995339627	streaming
606.7351	0.090623193536885	25	diastole	16	A	2180.0224995339627	streaming
606.9141	0.090623193536885	25	diastole	17	B	500.0	streaming
607.093	0.090623193536885	25	diastole	18	A	2180.0224995339627	streaming
607.448	0.090623193536885	25	diastole	19	A	2180.0224995339627	streaming
607.6257	0.090623193536885	25	diastole	20	B	500.0	streaming
607.8034	0.090623193536885	25	diastole	21	A	2180.0224995339627	streaming
608.168	0.090623193536885	25	diastole	22	A	2180.0224995339627	streaming
608.3457	0.090623193536885	25	diastole	23	B	500.0	streaming
608.5234	0.090623193536885	25	diastole	24	A	2180.0224995339627	streaming
608.898	0.090623193536885	25	diastole	25	A	2180.0224995339627	streaming
609.0757	0.090623193536885	25	diastole	26	B	500.0	streaming
609.2534	0.090623193536885	25	diastole	27	A	2180.0224995339627	streaming
609.6177	0.090623193536885	25	diastole	28	A	2180.0224995339627	streaming
609.799	0.090623193536885	25	diastole	29	B	500.0	streaming
609.9802	0.090623193536885	25	diastole	30	A	2180.0224995339627	streaming
610.3173	0.090623193536885	25	diastole	31	A	2180.0224995339627	streaming
610.4986	0.090623193536885	25	diastole	32	B	500.0	streaming
610.6798	0.090623193536885	25	diastole	33	A	2180.0224995339627	streaming
611.0369	0.090623193536885	25	diastole	34	A	2180.0224995339627	streaming
611.2182	0.090623193536885	25	diastole	35	B	500.0	streaming
611.3994	0.090623193536885	25	diastole	36	A	2180.0224995339627	streaming
611.8044	0.090623193536885	25	diastole	37	A	2180.0224995339627	streaming
611.987	0.090623193536885	25	diastole	38	B	500.0	streaming
612.1694	0.090623193536885	25	diastole	39	A	2180.0224995339627	streaming
614.4436	0.090625564509537	26	systole	1	A	657.2426114322549	coherent
614.6263	0.090625564509537	26	systole	2	B	500.0	coherent
614.8086	0.090625564509537	26	systole	3	A	657.2426114322549	coherent
615.2036	0.090625564509537	26	systole	4	A	657.2426114322549	coherent
615.3862	0.090625564509537	26	systole	5	B	500.0	coherent
615.5686	0.090625564509537	26	systole	6	A	657.2426114322549	coherent
615.9235	0.090625564509537	26	systole	7	A	657.2426114322549	coherent
616.1062	0.090625564509537	26	systole	8	B	500.0	coherent
616.2885	0.090625564509537	26	systole	9	A	657.2426114322549	coherent
616.7219	0.090625564509537	26	systole	10	A	657.2426114322549	coherent
616.9096	0.090625564509537	26	systole	11	B	500.0	coherent
617.0969	0.090625564509537	26	systole	12	A	657.2426114322549	coherent
617.5019	0.090625564509537	26	systole	13	A	657.2426114322549	coherent
617.6896	0.090625564509537	26	systole	14	B	500.0	coherent
617.8769	0.090625564509537	26	systole	15	A	657.2426114322549	coherent
618.2511	0.090625564509537	26	systole	16	A	657.2426114322549	coherent
618.4413	0.090625564509537	26	systole	17	B	500.0	coherent
618.6311	0.090625564509537	26	systole	18	A	657.2426114322549	coherent
618.9911	0.090625564509537	26	systole	19	A	657.2426114322549	coherent
619.1813	0.090625564509537	26	systole	20	B	500.0	coherent
619.3711	0.090625564509537	26	systole	21	A	657.2426114322549	coherent
619.6947	0.090625564509537	26	systole	22	A	657.2426114322549	coherent
619.8799	0.090625564509537	26	systole	23	B	500.0	coherent
620.0647	0.090625564509537	26	systole	24	A	657.2426114322549	coherent
620.4167	0.090625564509537	26	systole	25	A	657.2426114322549	coherent
620.6019	0.090625564509537	26	systole	26	B	500.0	coherent
620.7867	0.090625564509537	26	systole	27	A	657.2426114322549	coherent
621.1387	0.090625564509537	26	systole	28	A	657.2426114322549	coherent
621.3239	0.090625564509537	26	systole	29	B	500.0	coherent
621.5087	0.090625564509537	26	systole	30	A	657.2426114322549	coherent
621.8104	0.090625564509537	26	systole	31	A	657.2426114322549	coherent
621.9929	0.090625564509537	26	systole	32	B	500.0	coherent
622.175	0.090625564509537	26	systole	33	A	657.2426114322549	coherent
622.4549	0.090625564509537	26	systole	34	A	657.2426114322549	coherent
622.6363	0.090625564509537	26	systole	35	B	500.0	coherent
622.8174	0.090625564509537	26	systole	36	A	657.2426114322549	coherent
623.1348	0.090625564509537	26	systole	37	A	657.2426114322549	coherent
623.3163	0.090625564509537	26	systole	38	B	500.0	coherent
623.4974	0.090625564509537	26	systole	39	A	657.2426114322549	coherent
623.8848	0.090625564509537	26	systole	40	A	657.2426114322549	coherent
624.0663	0.090625564509537	26	systole	41	B	500.0	coherent
624.2474	0.090625564509537	26	systole	42	A	657.2426114322549	coherent
626.5377	0.0906495605013333	27	diastole	1	A	928.8333655934664	coherent
626.7196	0.0906495605013333	27	diastole	2	B	500.0	coherent
626.9022	0.0906495605013333	27	diastole	3	A	928.8333655934664	coherent
627.2673	0.0906495605013333	27	diastole	4	A	928.8333655934664	coherent
627.4491	0.0906495605013333	27	diastole	5	B	500.0	coherent
627.6318	0.0906495605013333	27	diastole	6	A	928.8333655934664	coherent
627.9573	0.0906495605013333	27	diastole	7	A	928.8333655934664	coherent
628.1391	0.0906495605013333	27	diastole	8	B	500.0	coherent
628.3218	0.0906495605013333	27	diastole	9	A	928.8333655934664	coherent
628.6473	0.0906495605013333	27	diastole	10	A	928.8333655934664	coherent
628.8292	0.0906495605013333	27	diastole	11	B	500.0	coherent
629.0118	0.0906495605013333	27	diastole	12	A	928.8333655934664	coherent
629.3373	0.0906495605013333	27	diastole	13	A	928.8333655934664	coherent
629.5192	0.0906495605013333	27	diastole	14	B	500.0	coherent
629.7018	0.0906495605013333	27	diastole	15	A	928.8333655934664	coherent
630.0273	0.0906495605013333	27	diastole	16	A	928.8333655934664	coherent
630.2092	0.0906495605013333	27	diastole	17	B	500.0	coherent
630.3918	0.0906495605013333	27	diastole	18	A	928.8333655934664	coherent
630.7173	0.0906495605013333	27	diastole	19	A	928.8333655934664	coherent
630.8992	0.0906495605013333	27	diastole	20	B	500.0	coherent
631.0818	0.0906495605013333	27	diastole	21	A	928.8333655934664	coherent
631.3596	0.0906495605013333	27	diastole	22	A	928.8333655934664	coherent
631.5365	0.0906495605013333	27	diastole	23	B	500.0	coherent
631.7142	0.0906495605013333	27	diastole	24	A	928.8333655934664	coherent
632.0299	0.0906495605013333	27	diastole	25	A	928.8333655934664	coherent
632.2068	0.0906495605013333	27	diastole	26	B	500.0	coherent
632.3845	0.0906495605013333	27	diastole	27	A	928.8333655934664	coherent
632.6152	0.0906495605013333	27	diastole	28	A	928.8333655934664	coherent
632.786	0.0906495605013333	27	diastole	29	B	500.0	coherent
632.9577	0.0906495605013333	27	diastole	30	A	928.8333655934664	coherent
633.2256	0.0906495605013333	27	diastole	31	A	928.8333655934664	coherent
633.3965	0.0906495605013333	27	diastole	32	B	500.0	coherent
633.5681	0.0906495605013333	27	diastole	33	A	928.8333655934664	coherent
633.7705	0.0906495605013333	27	diastole	34	A	928.8333655934664	coherent
633.9351	0.0906495605013333	27	diastole	35	B	500.0	coherent
634.1006	0.0906495605013333	27	diastole	36	A	928.8333655934664	coherent
634.3541	0.0906495605013333	27	diastole	37	A	928.8333655934664	coherent
634.5124	0.0906495605013333	27	diastole	38	B	500.0	coherent
634.6715	0.0906495605013333	27	diastole	39	A	928.8333655934664	coherent
635.0937	0.0906495605013333	27	diastole	40	A	928.8333655934664	coherent
635.252	0.0906495605013333	27	diastole	41	B	500.0	coherent
635.4111	0.0906495605013333	27	diastole	42	A	928.8333655934664	coherent
635.8938	0.0906495605013333	27	diastole	43	A	928.8333655934664	coherent
636.052	0.0906495605013333	27	diastole	44	B	500.0	coherent
636.2112	0.0906495605013333	27	diastole	45	A	928.8333655934664	coherent
638.7127	0.0912286312086507	28	systole	1	A	704.316936075347	coherent
638.8978	0.0912286312086507	28	systole	2	B	500.0	coherent
639.0826	0.0912286312086507	28	systole	3	A	704.316936075347	coherent
639.4527	0.0912286312086507	28	systole	4	A	704.316936075347	coherent
639.6378	0.0912286312086507	28	systole	5	B	500.0	coherent
639.8226	0.0912286312086507	28	systole	6	A	704.316936075347	coherent
640.2213	0.0912286312086507	28	systole	7	A	704.316936075347	coherent
640.4115	0.0912286312086507	28	systole	8	B	500.0	coherent
640.6013	0.0912286312086507	28	systole	9	A	704.316936075347	coherent
641.0413	0.0912286312086507	28	systole	10	A	704.316936075347	coherent
641.2315	0.0912286312086507	28	systole	11	B	500.0	coherent
641.4213	0.0912286312086507	28	systole	12	A	704.316936075347	coherent
641.8612	0.0912286312086507	28	systole	13	A	704.316936075347	coherent
642.0514	0.0912286312086507	28	systole	14	B	500.0	coherent
642.2413	0.0912286312086507	28	systole	15	A	704.316936075347	coherent
642.6713	0.0912286312086507	28	systole	16	A	704.316936075347	coherent
642.8614	0.0912286312086507	28	systole	17	B	500.0	coherent
643.0513	0.0912286312086507	28	systole	18	A	704.316936075347	coherent
643.4613	0.0912286312086507	28	systole	19	A	704.316936075347	coherent
643.6515	0.0912286312086507	28	systole	20	B	500.0	coherent
643.8413	0.0912286312086507	28	systole	21	A	704.316936075347	coherent
644.2513	0.0912286312086507	28	systole	22	A	704.316936075347	coherent
644.4415	0.0912286312086507	28	systole	23	B	500.0	coherent
644.6313	0.0912286312086507	28	systole	24	A	704.316936075347	coherent
645.0797	0.0912286312086507	28	systole	25	A	704.316936075347	coherent
645.2749	0.0912286312086507	28	systole	26	B	500.0	coherent
645.4697	0.0912286312086507	28	systole	27	A	704.316936075347	coherent
645.9033	0.0912286312086507	28	systole	28	A	704.316936075347	coherent
646.1023	0.0912286312086507	28	systole	29	B	500.0	coherent
646.3008	0.0912286312086507	28	systole	30	A	704.316936075347	coherent
646.6525	0.0912286312086507	28	systole	31	A	704.316936075347	coherent
646.8539	0.0912286312086507	28	systole	32	B	500.0	coherent
647.055	0.0912286312086507	28	systole	33	A	704.316936075347	coherent
647.3825	0.0912286312086507	28	systole	34	A	704.316936075347	coherent
647.5839	0.0912286312086507	28	systole	35	B	500.0	coherent
647.785	0.0912286312086507	28	systole	36	A	704.316936075347	coherent
648.1126	0.0912286312086507	28	systole	37	A	704.316936075347	coherent
648.314	0.0912286312086507	28	systole	38	B	500.0	coherent
648.5151	0.0912286312086507	28	systole	39	A	704.316936075347	coherent
650.386	0.0975005249492824	29	systole	1	A	1898.34934952021	coherent
650.5772	0.0975005249492824	29	systole	2	B	500.0	coherent
650.7685	0.0975005249492824	29	systole	3	A	1898.34934952021	coherent
651.106	0.0975005249492824	29	systole	4	A	1898.34934952021	coherent
651.2972	0.0975005249492824	29	systole	5	B	500.0	coherent
651.4885	0.0975005249492824	29	systole	6	A	1898.34934952021	coherent
651.7768	0.0975005249492824	29	systole	7	A	1898.34934952021	coherent
651.9654	0.0975005249492824	29	systole	8	B	500.0	coherent
652.1542	0.0975005249492824	29	systole	9	A	1898.34934952021	coherent
652.5226	0.0975005249492824	29	systole	10	A	1898.34934952021	coherent
652.71	0.0975005249492824	29	systole	11	B	500.0	coherent
652.8976	0.0975005249492824	29	systole	12	A	1898.34934952021	coherent
653.2178	0.0975005249492824	29	systole	13	A	1898.34934952021	coherent
653.4039	0.0975005249492824	29	systole	14	B	500.0	coherent
653.5903	0.0975005249492824	29	systole	15	A	1898.34934952021	coherent
653.9434	0.0975005249492824	29	systole	16	A	1898.34934952021	coherent
654.1283	0.0975005249492824	29	systole	17	B	500.0	coherent
654.3134	0.0975005249492824	29	systole	18	A	1898.34934952021	coherent
654.7225	0.0975005249492824	29	systole	19	A	1898.34934952021	coherent
654.9098	0.0975005249492824	29	systole	20	B	500.0	coherent
655.0974	0.0975005249492824	29	systole	21	A	1898.34934952021	coherent
655.4924	0.0975005249492824	29	systole	22	A	1898.34934952021	coherent
655.6798	0.0975005249492824	29	systole	23	B	500.0	coherent
655.8673	0.0975005249492824	29	systole	24	A	1898.34934952021	coherent
656.2724	0.0975005249492824	29	systole	25	A	1898.34934952021	coherent
656.4597	0.0975005249492824	29	systole	26	B	500.0	coherent
656.6473	0.0975005249492824	29	systole	27	A	1898.34934952021	coherent
657.0234	0.0975005249492824	29	systole	28	A	1898.34934952021	coherent
657.2083	0.0975005249492824	29	systole	29	B	500.0	coherent
657.3934	0.0975005249492824	29	systole	30	A	1898.34934952021	coherent
657.8022	0.0975005249492824	29	systole	31	A	1898.34934952021	coherent
657.9897	0.0975005249492824	29	systole	32	B	500.0	coherent
658.1773	0.0975005249492824	29	systole	33	A	1898.34934952021	coherent
658.5523	0.0975005249492824	29	systole	34	A	1898.34934952021	coherent
658.7397	0.0975005249492824	29	systole	35	B	500.0	coherent
658.9274	0.0975005249492824	29	systole	36	A	1898.34934952021	coherent
659.3023	0.0975005249492824	29	systole	37	A	1898.34934952021	coherent
659.4897	0.0975005249492824	29	systole	38	B	500.0	coherent
659.6774	0.0975005249492824	29	systole	39	A	1898.34934952021	coherent
660.0225	0.0975005249492824	29	systole	40	A	1898.34934952021	coherent
660.2099	0.0975005249492824	29	systole	41	B	500.0	coherent
660.3975	0.0975005249492824	29	systole	42	A	1898.34934952021	coherent
662.2431	0.0944782223086804	30	systole	1	A	2942.014383864825	streaming
662.4309	0.0944782223086804	30	systole	2	B	500.0	streaming
662.6186	0.0944782223086804	30	systole	3	A	2942.014383864825	streaming
663.0031	0.0944782223086804	30	systole	4	A	2942.014383864825	streaming
663.1909	0.0944782223086804	30	systole	5	B	500.0	streaming
663.3786	0.0944782223086804	30	systole	6	A	2942.014383864825	streaming
663.7975	0.0944782223086804	30	systole	7	A	2942.014383864825	streaming
663.9865	0.0944782223086804	30	systole	8	B	500.0	streaming
664.1754	0.0944782223086804	30	systole	9	A	2942.014383864825	streaming
664.5875	0.0944782223086804	30	systole	10	A	2942.014383864825	streaming
664.7765	0.0944782223086804	30	systole	11	B	500.0	streaming
664.9654	0.0944782223086804	30	systole	12	A	2942.014383864825	streaming
665.3675	0.0944782223086804	30	systole	13	A	2942.014383864825	streaming
665.5565	0.0944782223086804	30	systole	14	B	500.0	streaming
665.7455	0.0944782223086804	30	systole	15	A	2942.014383864825	streaming
666.1476	0.0944782223086804	30	systole	16	A	2942.014383864825	streaming
666.3366	0.0944782223086804	30	systole	17	B	500.0	streaming
666.5255	0.0944782223086804	30	systole	18	A	2942.014383864825	streaming
666.9451	0.0944782223086804	30	systole	19	A	2942.014383864825	streaming
667.1361	0.0944782223086804	30	systole	20	B	500.0	streaming
667.3271	0.0944782223086804	30	systole	21	A	2942.014383864825	streaming
667.7196	0.0944782223086804	30	systole	22	A	2942.014383864825	streaming
667.9119	0.0944782223086804	30	systole	23	B	500.0	streaming
668.1041	0.0944782223086804	30	systole	24	A	2942.014383864825	streaming
668.5006	0.0944782223086804	30	systole	25	A	2942.014383864825	streaming
668.6931	0.0944782223086804	30	systole	26	B	500.0	streaming
668.8856	0.0944782223086804	30	systole	27	A	2942.014383864825	streaming
669.3253	0.0944782223086804	30	systole	28	A	2942.014383864825	streaming
669.5191	0.0944782223086804	30	systole	29	B	500.0	streaming
669.7128	0.0944782223086804	30	systole	30	A	2942.014383864825	streaming
670.1098	0.0944782223086804	30	systole	31	A	2942.014383864825	streaming
670.3048	0.0944782223086804	30	systole	32	B	500.0	streaming
670.4997	0.0944782223086804	30	systole	33	A	2942.014383864825	streaming
670.8897	0.0944782223086804	30	systole	34	A	2942.014383864825	streaming
671.0847	0.0944782223086804	30	systole	35	B	500.0	streaming
671.2797	0.0944782223086804	30	systole	36	A	2942.014383864825	streaming
671.6814	0.0944782223086804	30	systole	37	A	2942.014383864825	streaming
671.8765	0.0944782223086804	30	systole	38	B	500.0	streaming
672.0714	0.0944782223086804	30	systole	39	A	2942.014383864825	streaming
674.853	0.0968769068131223	31	diastole	1	A	1987.9452401467304	coherent
675.0467	0.0968769068131223	31	diastole	2	B	500.0	coherent
675.2405	0.0968769068131223	31	diastole	3	A	1987.9452401467304	coherent
675.5431	0.0968769068131223	31	diastole	4	A	1987.9452401467304	coherent
675.7368	0.0968769068131223	31	diastole	5	B	500.0	coherent
675.9306	0.0968769068131223	31	diastole	6	A	1987.9452401467304	coherent
676.2332	0.0968769068131223	31	diastole	7	A	1987.9452401467304	coherent
676.4269	0.0968769068131223	31	diastole	8	B	500.0	coherent
676.6207	0.0968769068131223	31	diastole	9	A	1987.9452401467304	coherent
676.9137	0.0968769068131223	31	diastole	10	A	1987.9452401467304	coherent
677.0987	0.0968769068131223	31	diastole	11	B	500.0	coherent
677.2837	0.0968769068131223	31	diastole	12	A	1987.9452401467304	coherent
677.6438	0.0968769068131223	31	diastole	13	A	1987.9452401467304	coherent
677.8288	0.0968769068131223	31	diastole	14	B	500.0	coherent
678.0138	0.0968769068131223	31	diastole	15	A	1987.9452401467304	coherent
678.4136	0.0968769068131223	31	diastole	16	A	1987.9452401467304	coherent
678.5986	0.0968769068131223	31	diastole	17	B	500.0	coherent
678.7837	0.0968769068131223	31	diastole	18	A	1987.9452401467304	coherent
679.0894	0.0968769068131223	31	diastole	19	A	1987.9452401467304	coherent
679.2718	0.0968769068131223	31	diastole	20	B	500.0	coherent
679.4543	0.0968769068131223	31	diastole	21	A	1987.9452401467304	coherent
679.7793	0.0968769068131223	31	diastole	22	A	1987.9452401467304	coherent
679.9618	0.0968769068131223	31	diastole	23	B	500.0	coherent
680.1443	0.0968769068131223	31	diastole	24	A	1987.9452401467304	coherent
680.4269	0.0968769068131223	31	diastole	25	A	1987.9452401467304	coherent
680.6019	0.0968769068131223	31	diastole	26	B	500.0	coherent
680.7769	0.0968769068131223	31	diastole	27	A	1987.9452401467304	coherent
681.1168	0.0968769068131223	31	diastole	28	A	1987.9452401467304	coherent
681.2918	0.0968769068131223	31	diastole	29	B	500.0	coherent
681.4669	0.0968769068131223	31	diastole	30	A	1987.9452401467304	coherent
681.8068	0.0968769068131223	31	diastole	31	A	1987.9452401467304	coherent
681.9818	0.0968769068131223	31	diastole	32	B	500.0	coherent
682.1568	0.0968769068131223	31	diastole	33	A	1987.9452401467304	coherent
682.4994	0.0968769068131223	31	diastole	34	A	1987.9452401467304	coherent
682.6746	0.0968769068131223	31	diastole	35	B	500.0	coherent
682.8499	0.0968769068131223	31	diastole	36	A	1987.9452401467304	coherent
683.1984	0.0968769068131223	31	diastole	37	A	1987.9452401467304	coherent
683.3769	0.0968769068131223	31	diastole	38	B	500.0	coherent
683.5556	0.0968769068131223	31	diastole	39	A	1987.9452401467304	coherent
683.8694	0.0968769068131223	31	diastole	40	A	1987.9452401467304	coherent
684.0446	0.0968769068131223	31	diastole	41	B	500.0	coherent
684.2198	0.0968769068131223	31	diastole	42	A	1987.9452401467304	coherent
686.4571	0.0863485687877982	32	systole	1	A	2809.4189815191617	streaming
686.6323	0.0863485687877982	32	systole	2	B	500.0	streaming
686.8075	0.0863485687877982	32	systole	3	A	2809.4189815191617	streaming
687.1956	0.0863485687877982	32	systole	4	A	2809.4189815191617	streaming
687.3731	0.0863485687877982	32	systole	5	B	500.0	streaming
687.5507	0.0863485687877982	32	systole	6	A	2809.4189815191617	streaming
687.9256	0.0863485687877982	32	systole	7	A	2809.4189815191617	streaming
688.1031	0.0863485687877982	32	systole	8	B	500.0	streaming
688.2806	0.0863485687877982	32	systole	9	A	2809.4189815191617	streaming
688.6355	0.0863485687877982	32	systole	10	A	2809.4189815191617	streaming
688.8129	0.0863485687877982	32	systole	11	B	500.0	streaming
688.9905	0.0863485687877982	32	systole	12	A	2809.4189815191617	streaming
689.3454	0.0863485687877982	32	systole	13	A	2809.4189815191617	streaming
689.5229	0.0863485687877982	32	systole	14	B	500.0	streaming
689.7004	0.0863485687877982	32	systole	15	A	2809.4189815191617	streaming
690.0655	0.0863485687877982	32	systole	16	A	2809.4189815191617	streaming
690.243	0.0863485687877982	32	systole	17	B	500.0	streaming
690.4206	0.0863485687877982	32	systole	18	A	2809.4189815191617	streaming
690.7855	0.0863485687877982	32	systole	19	A	2809.4189815191617	streaming
690.963	0.0863485687877982	32	systole	20	B	500.0	streaming
691.1405	0.0863485687877982	32	systole	21	A	2809.4189815191617	streaming
691.5199	0.0863485687877982	32	systole	22	A	2809.4189815191617	streaming
691.6986	0.0863485687877982	32	systole	23	B	500.0	streaming
691.8774	0.0863485687877982	32	systole	24	A	2809.4189815191617	streaming
692.2399	0.0863485687877982	32	systole	25	A	2809.4189815191617	streaming
692.4186	0.0863485687877982	32	systole	26	B	500.0	streaming
692.5974	0.0863485687877982	32	systole	27	A	2809.4189815191617	streaming
692.9599	0.0863485687877982	32	systole	28	A	2809.4189815191617	streaming
693.1386	0.0863485687877982	32	systole	29	B	500.0	streaming
693.3174	0.0863485687877982	32	systole	30	A	2809.4189815191617	streaming
693.7045	0.0863485687877982	32	systole	31	A	2809.4189815191617	streaming
693.8845	0.0863485687877982	32	systole	32	B	500.0	streaming
694.0644	0.0863485687877982	32	systole	33	A	2809.4189815191617	streaming
694.4991	0.0863485687877982	32	systole	34	A	2809.4189815191617	streaming
694.6803	0.0863485687877982	32	systole	35	B	500.0	streaming
694.8615	0.0863485687877982	32	systole	36	A	2809.4189815191617	streaming
695.2144	0.0863485687877982	32	systole	37	A	2809.4189815191617	streaming
695.3944	0.0863485687877982	32	systole	38	B	500.0	streaming
695.5744	0.0863485687877982	32	systole	39	A	2809.4189815191617	streaming
695.9791	0.0863485687877982	32	systole	40	A	2809.4189815191617	streaming
696.1603	0.0863485687877982	32	systole	41	B	500.0	streaming
696.3416	0.0863485687877982	32	systole	42	A	2809.4189815191617	streaming
698.4665	0.0931268874555826	33	systole	1	A	672.5736556787729	coherent
698.6554	0.0931268874555826	33	systole	2	B	500.0	coherent
698.844	0.0931268874555826	33	systole	3	A	672.5736556787729	coherent
699.1665	0.0931268874555826	33	systole	4	A	672.5736556787729	coherent
699.3555	0.0931268874555826	33	systole	5	B	500.0	coherent
699.544	0.0931268874555826	33	systole	6	A	672.5736556787729	coherent
699.8666	0.0931268874555826	33	systole	7	A	672.5736556787729	coherent
700.0555	0.0931268874555826	33	systole	8	B	500.0	coherent
700.2441	0.0931268874555826	33	systole	9	A	672.5736556787729	coherent
700.5666	0.0931268874555826	33	systole	10	A	672.5736556787729	coherent
700.7555	0.0931268874555826	33	systole	11	B	500.0	coherent
700.9441	0.0931268874555826	33	systole	12	A	672.5736556787729	coherent
701.2766	0.0931268874555826	33	systole	13	A	672.5736556787729	coherent
701.4655	0.0931268874555826	33	systole	14	B	500.0	coherent
701.6541	0.0931268874555826	33	systole	15	A	672.5736556787729	coherent
701.938	0.0931268874555826	33	systole	16	A	672.5736556787729	coherent
702.1169	0.0931268874555826	33	systole	17	B	500.0	coherent
702.2954	0.0931268874555826	33	systole	18	A	672.5736556787729	coherent
702.636	0.0931268874555826	33	systole	19	A	672.5736556787729	coherent
702.815	0.0931268874555826	33	systole	20	B	500.0	coherent
702.9935	0.0931268874555826	33	systole	21	A	672.5736556787729	coherent
703.3478	0.0931268874555826	33	systole	22	A	672.5736556787729	coherent
703.5244	0.0931268874555826	33	systole	23	B	500.0	coherent
703.7008	0.0931268874555826	33	systole	24	A	672.5736556787729	coherent
704.0677	0.0931268874555826	33	systole	25	A	672.5736556787729	coherent
704.2444	0.0931268874555826	33	systole	26	B	500.0	coherent
704.4207	0.0931268874555826	33	systole	27	A	672.5736556787729	coherent
704.8377	0.0931268874555826	33	systole	28	A	672.5736556787729	coherent
705.0144	0.0931268874555826	33	systole	29	B	500.0	coherent
705.1907	0.0931268874555826	33	systole	30	A	672.5736556787729	coherent
705.6778	0.0931268874555826	33	systole	31	A	672.5736556787729	coherent
705.8544	0.0931268874555826	33	systole	32	B	500.0	coherent
706.0308	0.0931268874555826	33	systole	33	A	672.5736556787729	coherent
706.476	0.0931268874555826	33	systole	34	A	672.5736556787729	coherent
706.6549	0.0931268874555826	33	systole	35	B	500.0	coherent
706.8335	0.0931268874555826	33	systole	36	A	672.5736556787729	coherent
707.266	0.0931268874555826	33	systole	37	A	672.5736556787729	coherent
707.4449	0.0931268874555826	33	systole	38	B	500.0	coherent
707.6234	0.0931268874555826	33	systole	39	A	672.5736556787729	coherent
708.1155	0.0931268874555826	33	systole	40	A	672.5736556787729	coherent
708.3107	0.0931268874555826	33	systole	41	B	500.0	coherent
708.5055	0.0931268874555826	33	systole	42	A	672.5736556787729	coherent
712.698	0.0993768436601385	34	diastole	1	A	2874.952356810848	streaming
712.8981	0.0993768436601385	34	diastole	2	B	500.0	streaming
713.0981	0.0993768436601385	34	diastole	3	A	2874.952356810848	streaming
713.558	0.0993768436601385	34	diastole	4	A	2874.952356810848	streaming
713.7581	0.0993768436601385	34	diastole	5	B	500.0	streaming
713.958	0.0993768436601385	34	diastole	6	A	2874.952356810848	streaming
714.3209	0.0993768436601385	34	diastole	7	A	2874.952356810848	streaming
714.5197	0.0993768436601385	34	diastole	8	B	500.0	streaming
714.7184	0.0993768436601385	34	diastole	9	A	2874.952356810848	streaming
715.0838	0.0993768436601385	34	diastole	10	A	2874.952356810848	streaming
715.2813	0.0993768436601385	34	diastole	11	B	500.0	streaming
715.4788	0.0993768436601385	34	diastole	12	A	2874.952356810848	streaming
715.8638	0.0993768436601385	34	diastole	13	A	2874.952356810848	streaming
716.0613	0.0993768436601385	34	diastole	14	B	500.0	streaming
716.2588	0.0993768436601385	34	diastole	15	A	2874.952356810848	streaming
716.6067	0.0993768436601385	34	diastole	16	A	2874.952356810848	streaming
716.8029	0.0993768436601385	34	diastole	17	B	500.0	streaming
716.9991	0.0993768436601385	34	diastole	18	A	2874.952356810848	streaming
717.4068	0.0993768436601385	34	diastole	19	A	2874.952356810848	streaming
717.603	0.0993768436601385	34	diastole	20	B	500.0	streaming
717.7993	0.0993768436601385	34	diastole	21	A	2874.952356810848	streaming
718.2069	0.0993768436601385	34	diastole	22	A	2874.952356810848	streaming
718.4032	0.0993768436601385	34	diastole	23	B	500.0	streaming
718.5994	0.0993768436601385	34	diastole	24	A	2874.952356810848	streaming
718.937	0.0993768436601385	34	diastole	25	A	2874.952356810848	streaming
719.1332	0.0993768436601385	34	diastole	26	B	500.0	streaming
719.3295	0.0993768436601385	34	diastole	27	A	2874.952356810848	streaming
719.6671	0.0993768436601385	34	diastole	28	A	2874.952356810848	streaming
719.8633	0.0993768436601385	34	diastole	29	B	500.0	streaming
720.0595	0.0993768436601385	34	diastole	30	A	2874.952356810848	streaming
720.3762	0.0993768436601385	34	diastole	31	A	2874.952356810848	streaming
720.5686	0.0993768436601385	34	diastole	32	B	500.0	streaming
720.7611	0.0993768436601385	34	diastole	33	A	2874.952356810848	streaming
721.1065	0.0993768436601385	34	diastole	34	A	2874.952356810848	streaming
721.299	0.0993768436601385	34	diastole	35	B	500.0	streaming
721.4915	0.0993768436601385	34	diastole	36	A	2874.952356810848	streaming
723.7594	0.0918740874622017	35	diastole	1	A	2745.3794129915964	streaming
723.942	0.0918740874622017	35	diastole	2	B	500.0	streaming
724.1246	0.0918740874622017	35	diastole	3	A	2745.3794129915964	streaming
724.4698	0.0918740874622017	35	diastole	4	A	2745.3794129915964	streaming
724.6523	0.0918740874622017	35	diastole	5	B	500.0	streaming
724.8349	0.0918740874622017	35	diastole	6	A	2745.3794129915964	streaming
725.2297	0.0918740874622017	35	diastole	7	A	2745.3794129915964	streaming
725.4123	0.0918740874622017	35	diastole	8	B	500.0	streaming
725.5949	0.0918740874622017	35	diastole	9	A	2745.3794129915964	streaming
726.0065	0.0918740874622017	35	diastole	10	A	2745.3794129915964	streaming
726.1902	0.0918740874622017	35	diastole	11	B	500.0	streaming
726.374	0.0918740874622017	35	diastole	12	A	2745.3794129915964	streaming
726.7765	0.0918740874622017	35	diastole	13	A	2745.3794129915964	streaming
726.9602	0.0918740874622017	35	diastole	14	B	500.0	streaming
727.144	0.0918740874622017	35	diastole	15	A	2745.3794129915964	streaming
727.5436	0.0918740874622017	35	diastole	16	A	2745.3794129915964	streaming
727.7285	0.0918740874622017	35	diastole	17	B	500.0	streaming
727.9136	0.0918740874622017	35	diastole	18	A	2745.3794129915964	streaming
728.3036	0.0918740874622017	35	diastole	19	A	2745.3794129915964	streaming
728.4885	0.0918740874622017	35	diastole	20	B	500.0	streaming
728.6736	0.0918740874622017	35	diastole	21	A	2745.3794129915964	streaming
729.0636	0.0918740874622017	35	diastole	22	A	2745.3794129915964	streaming
729.2485	0.0918740874622017	35	diastole	23	B	500.0	streaming
729.4336	0.0918740874622017	35	diastole	24	A	2745.3794129915964	streaming
729.7936	0.0918740874622017	35	diastole	25	A	2745.3794129915964	streaming
729.9786	0.0918740874622017	35	diastole	26	B	500.0	streaming
730.1636	0.0918740874622017	35	diastole	27	A	2745.3794129915964	streaming
730.4663	0.0918740874622017	35	diastole	28	A	2745.3794129915964	streaming
730.65	0.0918740874622017	35	diastole	29	B	500.0	streaming
730.8337	0.0918740874622017	35	diastole	30	A	2745.3794129915964	streaming
731.1463	0.0918740874622017	35	diastole	31	A	2745.3794129915964	streaming
731.3299	0.0918740874622017	35	diastole	32	B	500.0	streaming
731.5137	0.0918740874622017	35	diastole	33	A	2745.3794129915964	streaming
731.8262	0.0918740874622017	35	diastole	34	A	2745.3794129915964	streaming
732.0099	0.0918740874622017	35	diastole	35	B	500.0	streaming
732.1937	0.0918740874622017	35	diastole	36	A	2745.3794129915964	streaming
732.5195	0.0918740874622017	35	diastole	37	A	2745.3794129915964	streaming
732.7019	0.0918740874622017	35	diastole	38	B	500.0	streaming
732.8845	0.0918740874622017	35	diastole	39	A	2745.3794129915964	streaming
735.068	0.09375238744542	36	diastole	1	A	846.9957848672357	coherent
735.255	0.09375238744542	36	diastole	2	B	500.0	coherent
735.443	0.09375238744542	36	diastole	3	A	846.9957848672357	coherent
735.8865	0.09375238744542	36	diastole	4	A	846.9957848672357	coherent
736.0734	0.09375238744542	36	diastole	5	B	500.0	coherent
736.2615	0.09375238744542	36	diastole	6	A	846.9957848672357	coherent
736.6918	0.09375238744542	36	diastole	7	A	846.9957848672357	coherent
736.8849	0.09375238744542	36	diastole	8	B	500.0	coherent
737.0792	0.09375238744542	36	diastole	9	A	846.9957848672357	coherent
737.4618	0.09375238744542	36	diastole	10	A	846.9957848672357	coherent
737.6549	0.09375238744542	36	diastole	11	B	500.0	coherent
737.8492	0.09375238744542	36	diastole	12	A	846.9957848672357	coherent
738.2488	0.09375238744542	36	diastole	13	A	846.9957848672357	coherent
738.4433	0.09375238744542	36	diastole	14	B	500.0	coherent
738.6388	0.09375238744542	36	diastole	15	A	846.9957848672357	coherent
738.9588	0.09375238744542	36	diastole	16	A	846.9957848672357	coherent
739.1533	0.09375238744542	36	diastole	17	B	500.0	coherent
739.3488	0.09375238744542	36	diastole	18	A	846.9957848672357	coherent
739.6688	0.09375238744542	36	diastole	19	A	846.9957848672357	coherent
739.8633	0.09375238744542	36	diastole	20	B	500.0	coherent
740.0588	0.09375238744542	36	diastole	21	A	846.9957848672357	coherent
740.3618	0.09375238744542	36	diastole	22	A	846.9957848672357	coherent
740.555	0.09375238744542	36	diastole	23	B	500.0	coherent
740.7493	0.09375238744542	36	diastole	24	A	846.9957848672357	coherent
741.0348	0.09375238744542	36	diastole	25	A	846.9957848672357	coherent
741.2267	0.09375238744542	36	diastole	26	B	500.0	coherent
741.4198	0.09375238744542	36	diastole	27	A	846.9957848672357	coherent
741.7348	0.09375238744542	36	diastole	28	A	846.9957848672357	coherent
741.9267	0.09375238744542	36	diastole	29	B	500.0	coherent
742.1198	0.09375238744542	36	diastole	30	A	846.9957848672357	coherent
742.3923	0.09375238744542	36	diastole	31	A	846.9957848672357	coherent
742.5767	0.09375238744542	36	diastole	32	B	500.0	coherent
742.7622	0.09375238744542	36	diastole	33	A	846.9957848672357	coherent
743.0775	0.09375238744542	36	diastole	34	A	846.9957848672357	coherent
743.2557	0.09375238744542	36	diastole	35	B	500.0	coherent
743.4351	0.09375238744542	36	diastole	36	A	846.9957848672357	coherent
743.7978	0.09375238744542	36	diastole	37	A	846.9957848672357	coherent
743.976	0.09375238744542	36	diastole	38	B	500.0	coherent
744.1554	0.09375238744542	36	diastole	39	A	846.9957848672357	coherent
744.5479	0.09375238744542	36	diastole	40	A	846.9957848672357	coherent
744.7261	0.09375238744542	36	diastole	41	B	500.0	coherent
744.9054	0.09375238744542	36	diastole	42	A	846.9957848672357	coherent
747.7278	0.0931247506523504	37	diastole	1	A	886.9712202217811	streaming
747.9148	0.0931247506523504	37	diastole	2	B	500.0	streaming
748.1028	0.0931247506523504	37	diastole	3	A	886.9712202217811	streaming
748.4778	0.0931247506523504	37	diastole	4	A	886.9712202217811	streaming
748.6647	0.0931247506523504	37	diastole	5	B	500.0	streaming
748.8527	0.0931247506523504	37	diastole	6	A	886.9712202217811	streaming
749.2174	0.0931247506523504	37	diastole	7	A	886.9712202217811	streaming
749.4044	0.0931247506523504	37	diastole	8	B	500.0	streaming
749.5924	0.0931247506523504	37	diastole	9	A	886.9712202217811	streaming
749.9103	0.0931247506523504	37	diastole	10	A	886.9712202217811	streaming
750.096	0.0931247506523504	37	diastole	11	B	500.0	streaming
750.2828	0.0931247506523504	37	diastole	12	A	886.9712202217811	streaming
750.6103	0.0931247506523504	37	diastole	13	A	886.9712202217811	streaming
750.796	0.0931247506523504	37	diastole	14	B	500.0	streaming
750.9828	0.0931247506523504	37	diastole	15	A	886.9712202217811	streaming
751.3103	0.0931247506523504	37	diastole	16	A	886.9712202217811	streaming
751.496	0.0931247506523504	37	diastole	17	B	500.0	streaming
751.6828	0.0931247506523504	37	diastole	18	A	886.9712202217811	streaming
752.0202	0.0931247506523504	37	diastole	19	A	886.9712202217811	streaming
752.206	0.0931247506523504	37	diastole	20	B	500.0	streaming
752.3927	0.0931247506523504	37	diastole	21	A	886.9712202217811	streaming
752.6959	0.0931247506523504	37	diastole	22	A	886.9712202217811	streaming
752.8791	0.0931247506523504	37	diastole	23	B	500.0	streaming
753.0633	0.0931247506523504	37	diastole	24	A	886.9712202217811	streaming
753.3859	0.0931247506523504	37	diastole	25	A	886.9712202217811	streaming
753.5691	0.0931247506523504	37	diastole	26	B	500.0	streaming
753.7533	0.0931247506523504	37	diastole	27	A	886.9712202217811	streaming
754.061	0.0931247506523504	37	diastole	28	A	886.9712202217811	streaming
754.2381	0.0931247506523504	37	diastole	29	B	500.0	streaming
754.4161	0.0931247506523504	37	diastole	30	A	886.9712202217811	streaming
754.801	0.0931247506523504	37	diastole	31	A	886.9712202217811	streaming
754.978	0.0931247506523504	37	diastole	32	B	500.0	streaming
755.1561	0.0931247506523504	37	diastole	33	A	886.9712202217811	streaming
755.5307	0.0931247506523504	37	diastole	34	A	886.9712202217811	streaming
755.7077	0.0931247506523504	37	diastole	35	B	500.0	streaming
755.8857	0.0931247506523504	37	diastole	36	A	886.9712202217811	streaming
756.2807	0.0931247506523504	37	diastole	37	A	886.9712202217811	streaming
756.4577	0.0931247506523504	37	diastole	38	B	500.0	streaming
756.6357	0.0931247506523504	37	diastole	39	A	886.9712202217811	streaming
762.2565	0.0924847703427076	38	diastole	1	A	613.314586312999	coherent
762.4441	0.0924847703427076	38	diastole	2	B	500.0	coherent
762.6314	0.0924847703427076	38	diastole	3	A	613.314586312999	coherent
762.9365	0.0924847703427076	38	diastole	4	A	613.314586312999	coherent
763.1241	0.0924847703427076	38	diastole	5	B	500.0	coherent
763.3114	0.0924847703427076	38	diastole	6	A	613.314586312999	coherent
763.6165	0.0924847703427076	38	diastole	7	A	613.314586312999	coherent
763.8041	0.0924847703427076	38	diastole	8	B	500.0	coherent
763.9914	0.0924847703427076	38	diastole	9	A	613.314586312999	coherent
764.2826	0.0924847703427076	38	diastole	10	A	613.314586312999	coherent
764.4677	0.0924847703427076	38	diastole	11	B	500.0	coherent
764.6525	0.0924847703427076	38	diastole	12	A	613.314586312999	coherent
764.9805	0.0924847703427076	38	diastole	13	A	613.314586312999	coherent
765.1632	0.0924847703427076	38	diastole	14	B	500.0	coherent
765.3455	0.0924847703427076	38	diastole	15	A	613.314586312999	coherent
765.7545	0.0924847703427076	38	diastole	16	A	613.314586312999	coherent
765.9396	0.0924847703427076	38	diastole	17	B	500.0	coherent
766.1244	0.0924847703427076	38	diastole	18	A	613.314586312999	coherent
766.4904	0.0924847703427076	38	diastole	19	A	613.314586312999	coherent
766.6745	0.0924847703427076	38	diastole	20	B	500.0	coherent
766.8584	0.0924847703427076	38	diastole	21	A	613.314586312999	coherent
767.2321	0.0924847703427076	38	diastole	22	A	613.314586312999	coherent
767.4162	0.0924847703427076	38	diastole	23	B	500.0	coherent
