onset	duration	trial_num	trial_type	tone_num	tone_type	frequency	response
44.699499999999944	0.1123626342741772	1	systole	1	B	500	systole
45.469299999999976	0.1123626342741772	1	systole	2	B	500	systole
46.23919999999998	0.1123626342741772	1	systole	3	B	500	systole
47.00909999999999	0.1123626342741772	1	systole	4	B	500	systole
47.72460000000001	0.1123626342741772	1	systole	5	B	500	systole
48.72460000000001	0.1123626342741772	1	systole	6	B	500	systole
49.72460000000001	0.1123626342741772	1	systole	7	B	500	systole
50.724699999999984	0.1123626342741772	1	systole	8	B	500	systole
51.65470000000005	0.1123626342741772	1	systole	9	B	500	systole
52.55459999999994	0.1123626342741772	1	systole	10	B	500	systole
53.50519999999983	0.1123626342741772	1	systole	11	B	500	systole
56.8445999999999	0.1118725473934318	2	diastole	1	B	500	diastole
57.609899999999925	0.1118725473934318	2	diastole	2	B	500	diastole
58.39989999999989	0.1118725473934318	2	diastole	3	B	500	diastole
59.12329999999997	0.1118725473934318	2	diastole	4	B	500	diastole
59.88239999999996	0.1118725473934318	2	diastole	5	B	500	diastole
60.69200000000001	0.1118725473934318	2	diastole	6	B	500	diastole
61.39899999999989	0.1118725473934318	2	diastole	7	B	500	diastole
62.138999999999896	0.1118725473934318	2	diastole	8	B	500	diastole
62.9686999999999	0.1118725473934318	2	diastole	9	B	500	diastole
63.79829999999993	0.1118725473934318	2	diastole	10	B	500	diastole
64.62799999999993	0.1118725473934318	2	diastole	11	B	500	diastole
65.44859999999994	0.1118725473934318	2	diastole	12	B	500	diastole
68.81639999999993	0.0917672936338931	3	diastole	1	B	500	diastole
69.61639999999989	0.0917672936338931	3	diastole	2	B	500	diastole
70.47649999999999	0.0917672936338931	3	diastole	3	B	500	diastole
71.46659999999997	0.0917672936338931	3	diastole	4	B	500	diastole
72.45659999999998	0.0917672936338931	3	diastole	5	B	500	diastole
73.45640000000003	0.0917672936338931	3	diastole	6	B	500	diastole
74.39639999999986	0.0917672936338931	3	diastole	7	B	500	diastole
75.37649999999985	0.0917672936338931	3	diastole	8	B	500	diastole
76.21820000000002	0.0917672936338931	3	diastole	9	B	500	diastole
77.01819999999998	0.0917672936338931	3	diastole	10	B	500	diastole
77.80819999999994	0.0917672936338931	3	diastole	11	B	500	diastole
80.89229999999998	0.1081297279451973	4	systole	1	B	500	systole
81.81060000000002	0.1081297279451973	4	systole	2	B	500	systole
82.64629999999988	0.1081297279451973	4	systole	3	B	500	systole
83.49829999999997	0.1081297279451973	4	systole	4	B	500	systole
84.41949999999997	0.1081297279451973	4	systole	5	B	500	systole
85.34680000000003	0.1081297279451973	4	systole	6	B	500	systole
86.2367999999999	0.1081297279451973	4	systole	7	B	500	systole
87.10649999999987	0.1081297279451973	4	systole	8	B	500	systole
87.96550000000002	0.1081297279451973	4	systole	9	B	500	systole
88.82549999999992	0.1081297279451973	4	systole	10	B	500	systole
89.64660000000003	0.1081297279451973	4	systole	11	B	500	systole
92.53419999999983	0.108741946547525	5	diastole	1	B	500	diastole
93.25779999999986	0.108741946547525	5	diastole	2	B	500	diastole
93.99779999999987	0.108741946547525	5	diastole	3	B	500	diastole
94.74450000000002	0.108741946547525	5	diastole	4	B	500	diastole
95.52449999999999	0.108741946547525	5	diastole	5	B	500	diastole
96.28959999999984	0.108741946547525	5	diastole	6	B	500	diastole
97.12959999999998	0.108741946547525	5	diastole	7	B	500	diastole
98.01959999999985	0.108741946547525	5	diastole	8	B	500	diastole
98.83289999999988	0.108741946547525	5	diastole	9	B	500	diastole
99.66300000000001	0.108741946547525	5	diastole	10	B	500	diastole
100.47969999999987	0.108741946547525	5	diastole	11	B	500	diastole
101.19959999999992	0.108741946547525	5	diastole	12	B	500	diastole
105.57289999999989	0.0862486551050096	6	diastole	1	B	500	systole
106.29299999999989	0.0862486551050096	6	diastole	2	B	500	systole
107.00289999999995	0.0862486551050096	6	diastole	3	B	500	systole
107.71289999999999	0.0862486551050096	6	diastole	4	B	500	systole
108.46139999999991	0.0862486551050096	6	diastole	5	B	500	systole
109.2014999999999	0.0862486551050096	6	diastole	6	B	500	systole
109.88969999999995	0.0862486551050096	6	diastole	7	B	500	systole
110.56960000000004	0.0862486551050096	6	diastole	8	B	500	systole
111.23959999999988	0.0862486551050096	6	diastole	9	B	500	systole
111.90959999999995	0.0862486551050096	6	diastole	10	B	500	systole
112.54959999999983	0.0862486551050096	6	diastole	11	B	500	systole
113.18959999999993	0.0862486551050096	6	diastole	12	B	500	systole
113.80459999999994	0.0862486551050096	6	diastole	13	B	500	systole
116.17930000000001	0.0800005906203296	7	diastole	1	B	500	systole
116.80739999999992	0.0800005906203296	7	diastole	2	B	500	systole
117.46069999999986	0.0800005906203296	7	diastole	3	B	500	systole
118.1706999999999	0.0800005906203296	7	diastole	4	B	500	systole
118.88059999999996	0.0800005906203296	7	diastole	5	B	500	systole
119.5906	0.0800005906203296	7	diastole	6	B	500	systole
120.34029999999984	0.0800005906203296	7	diastole	7	B	500	systole
121.08739999999989	0.0800005906203296	7	diastole	8	B	500	systole
121.98239999999987	0.0800005906203296	7	diastole	9	B	500	systole
122.80250000000001	0.0800005906203296	7	diastole	10	B	500	systole
123.68949999999995	0.0800005906203296	7	diastole	11	B	500	systole
124.45489999999995	0.0800005906203296	7	diastole	12	B	500	systole
125.19519999999989	0.0800005906203296	7	diastole	13	B	500	systole
128.27520000000004	0.0945214354724157	8	systole	1	B	500	systole
129.28520000000003	0.0945214354724157	8	systole	2	B	500	systole
130.12479999999982	0.0945214354724157	8	systole	3	B	500	systole
130.99419999999986	0.0945214354724157	8	systole	4	B	500	systole
131.8315	0.0945214354724157	8	systole	5	B	500	systole
132.64109999999982	0.0945214354724157	8	systole	6	B	500	systole
133.39139999999998	0.0945214354724157	8	systole	7	B	500	systole
134.14179999999988	0.0945214354724157	8	systole	8	B	500	systole
134.942	0.0945214354724157	8	systole	9	B	500	systole
135.7421999999999	0.0945214354724157	8	systole	10	B	500	systole
136.53629999999998	0.0945214354724157	8	systole	11	B	500	systole
137.28469999999993	0.0945214354724157	8	systole	12	B	500	systole
140.0610999999999	0.0962506157520692	9	systole	1	B	500	diastole
140.80119999999988	0.0962506157520692	9	systole	2	B	500	diastole
141.5012999999999	0.0962506157520692	9	systole	3	B	500	diastole
142.21169999999984	0.0962506157520692	9	systole	4	B	500	diastole
142.89459999999985	0.0962506157520692	9	systole	5	B	500	diastole
143.55829999999992	0.0962506157520692	9	systole	6	B	500	diastole
144.2095999999999	0.0962506157520692	9	systole	7	B	500	diastole
144.87639999999988	0.0962506157520692	9	systole	8	B	500	diastole
145.65629999999987	0.0962506157520692	9	systole	9	B	500	diastole
146.73649999999998	0.0962506157520692	9	systole	10	B	500	diastole
147.81659999999988	0.0962506157520692	9	systole	11	B	500	diastole
148.7364	0.0962506157520692	9	systole	12	B	500	diastole
151.38959999999997	0.0987502086791209	10	diastole	1	B	500	systole
152.14959999999996	0.0987502086791209	10	diastole	2	B	500	systole
152.8596	0.0987502086791209	10	diastole	3	B	500	systole
153.54959999999983	0.0987502086791209	10	diastole	4	B	500	systole
154.23959999999988	0.0987502086791209	10	diastole	5	B	500	systole
154.89459999999985	0.0987502086791209	10	diastole	6	B	500	systole
155.5833	0.0987502086791209	10	diastole	7	B	500	systole
156.37169999999992	0.0987502086791209	10	diastole	8	B	500	systole
157.05769999999984	0.0987502086791209	10	diastole	9	B	500	systole
157.77729999999997	0.0987502086791209	10	diastole	10	B	500	systole
158.46090000000004	0.0987502086791209	10	diastole	11	B	500	systole
159.16200000000003	0.0987502086791209	10	diastole	12	B	500	systole
159.90009999999984	0.0987502086791209	10	diastole	13	B	500	systole
160.69709999999986	0.0987502086791209	10	diastole	14	B	500	systole
163.9269999999999	0.0968818972178269	11	systole	1	B	500	diastole
164.71270000000004	0.0968818972178269	11	systole	2	B	500	diastole
165.4927	0.0968818972178269	11	systole	3	B	500	diastole
166.26260000000002	0.0968818972178269	11	systole	4	B	500	diastole
167.0326	0.0968818972178269	11	systole	5	B	500	diastole
167.72249999999985	0.0968818972178269	11	systole	6	B	500	diastole
168.3668	0.0968818972178269	11	systole	7	B	500	diastole
169.0184999999999	0.0968818972178269	11	systole	8	B	500	diastole
169.60199999999986	0.0968818972178269	11	systole	9	B	500	diastole
170.1951999999999	0.0968818972178269	11	systole	10	B	500	diastole
170.83500000000004	0.0968818972178269	11	systole	11	B	500	diastole
171.4052999999999	0.0968818972178269	11	systole	12	B	500	diastole
171.99509999999987	0.0968818972178269	11	systole	13	B	500	diastole
172.61519999999996	0.0968818972178269	11	systole	14	B	500	diastole
173.23519999999985	0.0968818972178269	11	systole	15	B	500	diastole
176.07619999999997	0.0824969874811358	12	systole	1	B	500	systole
176.9161999999999	0.0824969874811358	12	systole	2	B	500	systole
177.66689999999994	0.0824969874811358	12	systole	3	B	500	systole
178.37670000000003	0.0824969874811358	12	systole	4	B	500	systole
179.07690000000002	0.0824969874811358	12	systole	5	B	500	systole
179.79669999999987	0.0824969874811358	12	systole	6	B	500	systole
180.45000000000005	0.0824969874811358	12	systole	7	B	500	systole
181.15009999999984	0.0824969874811358	12	systole	8	B	500	systole
181.8825999999999	0.0824969874811358	12	systole	9	B	500	systole
182.70259999999985	0.0824969874811358	12	systole	10	B	500	systole
183.49249999999984	0.0824969874811358	12	systole	11	B	500	systole
184.27250000000004	0.0824969874811358	12	systole	12	B	500	systole
185.0082	0.0824969874811358	12	systole	13	B	500	systole
188.02340000000004	0.0937499145511537	13	systole	1	B	500	systole
188.83339999999998	0.0937499145511537	13	systole	2	B	500	systole
189.54340000000002	0.0937499145511537	13	systole	3	B	500	systole
190.25329999999985	0.0937499145511537	13	systole	4	B	500	systole
190.96319999999992	0.0937499145511537	13	systole	5	B	500	systole
191.67309999999998	0.0937499145511537	13	systole	6	B	500	systole
192.35199999999986	0.0937499145511537	13	systole	7	B	500	systole
193.0402999999999	0.0937499145511537	13	systole	8	B	500	systole
193.8261	0.0937499145511537	13	systole	9	B	500	systole
194.56659999999988	0.0937499145511537	13	systole	10	B	500	systole
195.35619999999994	0.0937499145511537	13	systole	11	B	500	systole
196.14649999999983	0.0937499145511537	13	systole	12	B	500	systole
196.93679999999995	0.0937499145511537	13	systole	13	B	500	systole
199.93110000000001	0.0974739937810227	14	systole	1	B	500	diastole
200.67079999999987	0.0974739937810227	14	systole	2	B	500	diastole
201.41039999999998	0.0974739937810227	14	systole	3	B	500	diastole
202.0737999999999	0.0974739937810227	14	systole	4	B	500	diastole
202.67239999999993	0.0974739937810227	14	systole	5	B	500	diastole
203.31259999999997	0.0974739937810227	14	systole	6	B	500	diastole
203.95270000000005	0.0974739937810227	14	systole	7	B	500	diastole
204.5637999999999	0.0974739937810227	14	systole	8	B	500	diastole
205.1631	0.0974739937810227	14	systole	9	B	500	diastole
205.72709999999984	0.0974739937810227	14	systole	10	B	500	diastole
206.30970000000002	0.0974739937810227	14	systole	11	B	500	diastole
206.90959999999995	0.0974739937810227	14	systole	12	B	500	diastole
207.49049999999988	0.0974739937810227	14	systole	13	B	500	diastole
208.1005	0.0974739937810227	14	systole	14	B	500	diastole
208.71039999999994	0.0974739937810227	14	systole	15	B	500	diastole
211.2727	0.0768988342024385	15	diastole	1	B	500	systole
212.23270000000002	0.0768988342024385	15	diastole	2	B	500	systole
213.19269999999983	0.0768988342024385	15	diastole	3	B	500	systole
214.10699999999997	0.0768988342024385	15	diastole	4	B	500	systole
214.87459999999987	0.0768988342024385	15	diastole	5	B	500	systole
215.62509999999997	0.0768988342024385	15	diastole	6	B	500	systole
216.40120000000002	0.0768988342024385	15	diastole	7	B	500	systole
217.13159999999993	0.0768988342024385	15	diastole	8	B	500	systole
217.8514	0.0768988342024385	15	diastole	9	B	500	systole
218.69139999999993	0.0768988342024385	15	diastole	10	B	500	systole
219.55150000000003	0.0768988342024385	15	diastole	11	B	500	systole
220.36159999999995	0.0768988342024385	15	diastole	12	B	500	systole
223.45449999999983	0.10624644998461	16	systole	1	B	500	systole
224.19439999999986	0.10624644998461	16	systole	2	B	500	systole
224.9342999999999	0.10624644998461	16	systole	3	B	500	systole
225.67409999999995	0.10624644998461	16	systole	4	B	500	systole
226.3823	0.10624644998461	16	systole	5	B	500	systole
227.06319999999982	0.10624644998461	16	systole	6	B	500	systole
227.7123999999999	0.10624644998461	16	systole	7	B	500	systole
228.34389999999985	0.10624644998461	16	systole	8	B	500	systole
229.0338999999999	0.10624644998461	16	systole	9	B	500	systole
229.72379999999998	0.10624644998461	16	systole	10	B	500	systole
230.49810000000002	0.10624644998461	16	systole	11	B	500	systole
231.29809999999998	0.10624644998461	16	systole	12	B	500	systole
232.06799999999998	0.10624644998461	16	systole	13	B	500	systole
235.1353999999999	0.0956265763088595	17	systole	1	B	500	diastole
235.7953	0.0956265763088595	17	systole	2	B	500	diastole
236.45529999999985	0.0956265763088595	17	systole	3	B	500	diastole
237.0661	0.0956265763088595	17	systole	4	B	500	diastole
237.6495	0.0956265763088595	17	systole	5	B	500	diastole
238.22630000000004	0.0956265763088595	17	systole	6	B	500	diastole
238.8264999999999	0.0956265763088595	17	systole	7	B	500	diastole
239.39149999999995	0.0956265763088595	17	systole	8	B	500	diastole
239.95399999999995	0.0956265763088595	17	systole	9	B	500	diastole
240.5208	0.0956265763088595	17	systole	10	B	500	diastole
241.0933	0.0956265763088595	17	systole	11	B	500	diastole
241.68329999999992	0.0956265763088595	17	systole	12	B	500	diastole
242.2775999999999	0.0956265763088595	17	systole	13	B	500	diastole
242.87789999999995	0.0956265763088595	17	systole	14	B	500	diastole
243.47820000000002	0.0956265763088595	17	systole	15	B	500	diastole
244.10850000000005	0.0956265763088595	17	systole	16	B	500	diastole
246.32050000000004	0.0750020533450879	18	systole	1	B	500	systole
246.99009999999998	0.0750020533450879	18	systole	2	B	500	systole
247.65969999999993	0.0750020533450879	18	systole	3	B	500	systole
248.48509999999987	0.0750020533450879	18	systole	4	B	500	systole
249.23540000000003	0.0750020533450879	18	systole	5	B	500	systole
249.95319999999992	0.0750020533450879	18	systole	6	B	500	systole
250.71519999999987	0.0750020533450879	18	systole	7	B	500	systole
251.46519999999987	0.0750020533450879	18	systole	8	B	500	systole
252.32420000000002	0.0750020533450879	18	systole	9	B	500	systole
253.14739999999983	0.0750020533450879	18	systole	10	B	500	systole
254.0879	0.0750020533450879	18	systole	11	B	500	systole
255.3635999999999	0.0750020533450879	18	systole	12	B	500	systole
258.8781999999999	0.1018856959417462	19	diastole	1	B	500	diastole
259.7993999999999	0.1018856959417462	19	diastole	2	B	500	diastole
260.6794	0.1018856959417462	19	diastole	3	B	500	diastole
261.4894999999999	0.1018856959417462	19	diastole	4	B	500	diastole
262.49779999999987	0.1018856959417462	19	diastole	5	B	500	diastole
263.47069999999985	0.1018856959417462	19	diastole	6	B	500	diastole
264.31859999999983	0.1018856959417462	19	diastole	7	B	500	diastole
265.1386	0.1018856959417462	19	diastole	8	B	500	diastole
266.23029999999994	0.1018856959417462	19	diastole	9	B	500	diastole
267.49019999999996	0.1018856959417462	19	diastole	10	B	500	diastole
270.69280000000003	0.1131257545494008	20	diastole	1	B	500	systole
271.66279999999983	0.1131257545494008	20	diastole	2	B	500	systole
272.7096999999999	0.1131257545494008	20	diastole	3	B	500	systole
273.73979999999983	0.1131257545494008	20	diastole	4	B	500	systole
274.50149999999985	0.1131257545494008	20	diastole	5	B	500	systole
275.26829999999995	0.1131257545494008	20	diastole	6	B	500	systole
276.0683999999999	0.1131257545494008	20	diastole	7	B	500	systole
276.7798	0.1131257545494008	20	diastole	8	B	500	systole
277.4894999999999	0.1131257545494008	20	diastole	9	B	500	systole
278.2494999999999	0.1131257545494008	20	diastole	10	B	500	systole
279.0094999999999	0.1131257545494008	20	diastole	11	B	500	systole
282.2673	0.0968873863457702	21	systole	1	B	500	diastole
283.0172	0.0968873863457702	21	systole	2	B	500	diastole
283.7356	0.0968873863457702	21	systole	3	B	500	diastole
284.4656	0.0968873863457702	21	systole	4	B	500	diastole
285.1956	0.0968873863457702	21	systole	5	B	500	diastole
285.90380000000005	0.0968873863457702	21	systole	6	B	500	diastole
286.61789999999996	0.0968873863457702	21	systole	7	B	500	diastole
287.33799999999997	0.0968873863457702	21	systole	8	B	500	diastole
288.05809999999997	0.0968873863457702	21	systole	9	B	500	diastole
288.79229999999984	0.0968873863457702	21	systole	10	B	500	diastole
289.51059999999984	0.0968873863457702	21	systole	11	B	500	diastole
290.24069999999983	0.0968873863457702	21	systole	12	B	500	diastole
290.9550999999999	0.0968873863457702	21	systole	13	B	500	diastole
293.74620000000004	0.091872227814747	22	diastole	1	B	500	diastole
294.5762	0.091872227814747	22	diastole	2	B	500	diastole
295.3443	0.091872227814747	22	diastole	3	B	500	diastole
296.1042	0.091872227814747	22	diastole	4	B	500	diastole
296.88599999999997	0.091872227814747	22	diastole	5	B	500	diastole
297.6259	0.091872227814747	22	diastole	6	B	500	diastole
298.3659	0.091872227814747	22	diastole	7	B	500	diastole
299.076	0.091872227814747	22	diastole	8	B	500	diastole
299.78610000000003	0.091872227814747	22	diastole	9	B	500	diastole
300.50609999999983	0.091872227814747	22	diastole	10	B	500	diastole
301.22609999999986	0.091872227814747	22	diastole	11	B	500	diastole
301.97479999999996	0.091872227814747	22	diastole	12	B	500	diastole
302.7549999999999	0.091872227814747	22	diastole	13	B	500	diastole
305.7845	0.0950259937089867	23	systole	1	B	500	systole
306.6142	0.0950259937089867	23	systole	2	B	500	systole
307.3243	0.0950259937089867	23	systole	3	B	500	systole
308.0344	0.0950259937089867	23	systole	4	B	500	systole
308.7445	0.0950259937089867	23	systole	5	B	500	systole
309.44460000000004	0.0950259937089867	23	systole	6	B	500	systole
310.0728999999999	0.0950259937089867	23	systole	7	B	500	systole
310.7829999999999	0.0950259937089867	23	systole	8	B	500	systole
311.5529999999999	0.0950259937089867	23	systole	9	B	500	systole
312.32299999999987	0.0950259937089867	23	systole	10	B	500	systole
313.183	0.0950259937089867	23	systole	11	B	500	systole
314.0429999999999	0.0950259937089867	23	systole	12	B	500	systole
314.8328999999999	0.0950259937089867	23	systole	13	B	500	systole
317.1109999999999	0.0906214400019962	24	diastole	1	B	500	systole
317.80089999999996	0.0906214400019962	24	diastole	2	B	500	systole
318.4909	0.0906214400019962	24	diastole	3	B	500	systole
319.18089999999984	0.0906214400019962	24	diastole	4	B	500	systole
319.8708999999999	0.0906214400019962	24	diastole	5	B	500	systole
320.5609999999999	0.0906214400019962	24	diastole	6	B	500	systole
321.2545	0.0906214400019962	24	diastole	7	B	500	systole
321.96450000000004	0.0906214400019962	24	diastole	8	B	500	systole
322.7044999999998	0.0906214400019962	24	diastole	9	B	500	systole
323.55099999999993	0.0906214400019962	24	diastole	10	B	500	systole
324.4528	0.0906214400019962	24	diastole	11	B	500	systole
325.31759999999986	0.0906214400019962	24	diastole	12	B	500	systole
326.13279999999986	0.0906214400019962	24	diastole	13	B	500	systole
329.2077999999999	0.103125168767292	25	diastole	1	B	500	diastole
329.9975999999999	0.103125168767292	25	diastole	2	B	500	diastole
330.67949999999996	0.103125168767292	25	diastole	3	B	500	diastole
331.32269999999994	0.103125168767292	25	diastole	4	B	500	diastole
331.9559999999999	0.103125168767292	25	diastole	5	B	500	diastole
332.5692999999999	0.103125168767292	25	diastole	6	B	500	diastole
333.1261999999999	0.103125168767292	25	diastole	7	B	500	diastole
334.376	0.103125168767292	25	diastole	8	B	500	diastole
335.20619999999985	0.103125168767292	25	diastole	9	B	500	diastole
336.04600000000005	0.103125168767292	25	diastole	10	B	500	diastole
336.8858	0.103125168767292	25	diastole	11	B	500	diastole
337.63909999999987	0.103125168767292	25	diastole	12	B	500	diastole
340.15779999999995	0.0918712669226806	26	diastole	1	B	500	systole
340.71119999999996	0.0918712669226806	26	diastole	2	B	500	systole
341.31449999999995	0.0918712669226806	26	diastole	3	B	500	systole
341.88279999999986	0.0918712669226806	26	diastole	4	B	500	systole
342.49289999999996	0.0918712669226806	26	diastole	5	B	500	systole
343.0610999999999	0.0918712669226806	26	diastole	6	B	500	systole
343.6344999999999	0.0918712669226806	26	diastole	7	B	500	systole
344.2259999999999	0.0918712669226806	26	diastole	8	B	500	systole
344.81939999999986	0.0918712669226806	26	diastole	9	B	500	systole
345.4294	0.0918712669226806	26	diastole	10	B	500	systole
346.06949999999983	0.0918712669226806	26	diastole	11	B	500	systole
346.7095999999999	0.0918712669226806	26	diastole	12	B	500	systole
347.33979999999997	0.0918712669226806	26	diastole	13	B	500	systole
347.9698999999998	0.0918712669226806	26	diastole	14	B	500	systole
348.5999999999999	0.0918712669226806	26	diastole	15	B	500	systole
349.29510000000005	0.0918712669226806	26	diastole	16	B	500	systole
351.76289999999995	0.0818733654741663	27	systole	1	B	500	systole
352.43859999999995	0.0818733654741663	27	systole	2	B	500	systole
353.1086	0.0818733654741663	27	systole	3	B	500	systole
353.75869999999986	0.0818733654741663	27	systole	4	B	500	systole
354.40869999999995	0.0818733654741663	27	systole	5	B	500	systole
355.0588	0.0818733654741663	27	systole	6	B	500	systole
355.74479999999994	0.0818733654741663	27	systole	7	B	500	systole
356.43039999999996	0.0818733654741663	27	systole	8	B	500	systole
357.1102999999998	0.0818733654741663	27	systole	9	B	500	systole
357.7961	0.0818733654741663	27	systole	10	B	500	systole
358.4602	0.0818733654741663	27	systole	11	B	500	systole
359.12019999999984	0.0818733654741663	27	systole	12	B	500	systole
359.7801999999999	0.0818733654741663	27	systole	13	B	500	systole
360.4402	0.0818733654741663	27	systole	14	B	500	systole
361.0900999999999	0.0818733654741663	27	systole	15	B	500	systole
364.0724	0.0824826937168836	28	diastole	1	B	500	diastole
364.74209999999994	0.0824826937168836	28	diastole	2	B	500	diastole
365.4224999999999	0.0824826937168836	28	diastole	3	B	500	diastole
366.0941	0.0824826937168836	28	diastole	4	B	500	diastole
366.7626	0.0824826937168836	28	diastole	5	B	500	diastole
367.4024999999999	0.0824826937168836	28	diastole	6	B	500	diastole
368.04099999999994	0.0824826937168836	28	diastole	7	B	500	diastole
368.6723999999999	0.0824826937168836	28	diastole	8	B	500	diastole
369.27099999999996	0.0824826937168836	28	diastole	9	B	500	diastole
369.8696	0.0824826937168836	28	diastole	10	B	500	diastole
370.4267	0.0824826937168836	28	diastole	11	B	500	diastole
371.0265999999999	0.0824826937168836	28	diastole	12	B	500	diastole
371.62649999999985	0.0824826937168836	28	diastole	13	B	500	diastole
372.18259999999987	0.0824826937168836	28	diastole	14	B	500	diastole
372.7283	0.0824826937168836	28	diastole	15	B	500	diastole
373.3082999999999	0.0824826937168836	28	diastole	16	B	500	diastole
375.94460000000004	0.0706310058303643	29	diastole	1	B	500	systole
376.5146	0.0706310058303643	29	diastole	2	B	500	systole
377.10469999999987	0.0706310058303643	29	diastole	3	B	500	systole
377.7247	0.0706310058303643	29	diastole	4	B	500	systole
378.3445999999999	0.0706310058303643	29	diastole	5	B	500	systole
379.01469999999995	0.0706310058303643	29	diastole	6	B	500	systole
379.76109999999994	0.0706310058303643	29	diastole	7	B	500	systole
380.4361999999999	0.0706310058303643	29	diastole	8	B	500	systole
381.08619999999996	0.0706310058303643	29	diastole	9	B	500	systole
381.7363	0.0706310058303643	29	diastole	10	B	500	systole
382.3926999999999	0.0706310058303643	29	diastole	11	B	500	systole
383.0673999999999	0.0706310058303643	29	diastole	12	B	500	systole
383.6975	0.0706310058303643	29	diastole	13	B	500	systole
384.3173999999999	0.0706310058303643	29	diastole	14	B	500	systole
384.9374	0.0706310058303643	29	diastole	15	B	500	systole
387.08929999999987	0.0749990062904544	30	diastole	1	B	500	systole
387.6573999999998	0.0749990062904544	30	diastole	2	B	500	systole
388.22990000000004	0.0749990062904544	30	diastole	3	B	500	systole
388.81909999999993	0.0749990062904544	30	diastole	4	B	500	systole
389.4486999999999	0.0749990062904544	30	diastole	5	B	500	systole
390.0782999999999	0.0749990062904544	30	diastole	6	B	500	systole
390.7078999999999	0.0749990062904544	30	diastole	7	B	500	systole
391.3373999999999	0.0749990062904544	30	diastole	8	B	500	systole
391.9674	0.0749990062904544	30	diastole	9	B	500	systole
392.7164	0.0749990062904544	30	diastole	10	B	500	systole
393.66909999999984	0.0749990062904544	30	diastole	11	B	500	systole
394.54909999999995	0.0749990062904544	30	diastole	12	B	500	systole
395.64390000000003	0.0749990062904544	30	diastole	13	B	500	systole
396.56359999999995	0.0749990062904544	30	diastole	14	B	500	systole
399.7428	0.1124938772991299	31	systole	1	B	500	diastole
400.49289999999996	0.1124938772991299	31	systole	2	B	500	diastole
401.24289999999996	0.1124938772991299	31	systole	3	B	500	diastole
401.98990000000003	0.1124938772991299	31	systole	4	B	500	diastole
402.76	0.1124938772991299	31	systole	5	B	500	diastole
403.53	0.1124938772991299	31	systole	6	B	500	diastole
404.37829999999985	0.1124938772991299	31	systole	7	B	500	diastole
405.30819999999994	0.1124938772991299	31	systole	8	B	500	diastole
406.1881999999998	0.1124938772991299	31	systole	9	B	500	diastole
407.09809999999993	0.1124938772991299	31	systole	10	B	500	diastole
408.00800000000004	0.1124938772991299	31	systole	11	B	500	diastole
412.55939999999987	0.100632200774271	32	systole	1	B	500	systole
413.3092999999999	0.100632200774271	32	systole	2	B	500	systole
414.1793	0.100632200774271	32	systole	3	B	500	systole
415.07939999999985	0.100632200774271	32	systole	4	B	500	systole
416.1093999999998	0.100632200774271	32	systole	5	B	500	systole
417.1394	0.100632200774271	32	systole	6	B	500	systole
418.1694	0.100632200774271	32	systole	7	B	500	systole
419.0794999999998	0.100632200774271	32	systole	8	B	500	systole
419.9895999999999	0.100632200774271	32	systole	9	B	500	systole
420.80719999999997	0.100632200774271	32	systole	10	B	500	systole
424.2176999999999	0.1031314125866629	33	diastole	1	B	500	diastole
425.00299999999993	0.1031314125866629	33	diastole	2	B	500	diastole
425.8312999999998	0.1031314125866629	33	diastole	3	B	500	diastole
426.6512	0.1031314125866629	33	diastole	4	B	500	diastole
427.5461	0.1031314125866629	33	diastole	5	B	500	diastole
428.4160999999999	0.1031314125866629	33	diastole	6	B	500	diastole
429.3894	0.1031314125866629	33	diastole	7	B	500	diastole
430.32939999999985	0.1031314125866629	33	diastole	8	B	500	diastole
431.1694	0.1031314125866629	33	diastole	9	B	500	diastole
432.0093999999999	0.1031314125866629	33	diastole	10	B	500	diastole
432.84939999999983	0.1031314125866629	33	diastole	11	B	500	diastole
435.69529999999986	0.1068753557046875	34	systole	1	B	500	systole
436.5054	0.1068753557046875	34	systole	2	B	500	systole
437.3795	0.1068753557046875	34	systole	3	B	500	systole
438.2594999999999	0.1068753557046875	34	systole	4	B	500	systole
439.03959999999984	0.1068753557046875	34	systole	5	B	500	systole
439.8198	0.1068753557046875	34	systole	6	B	500	systole
440.60979999999995	0.1068753557046875	34	systole	7	B	500	systole
441.4829	0.1068753557046875	34	systole	8	B	500	systole
442.2129	0.1068753557046875	34	systole	9	B	500	systole
442.92629999999986	0.1068753557046875	34	systole	10	B	500	systole
443.778	0.1068753557046875	34	systole	11	B	500	systole
444.9238	0.1068753557046875	34	systole	12	B	500	systole
448.3252	0.1031323937932029	35	systole	1	B	500	systole
449.1051	0.1031323937932029	35	systole	2	B	500	systole
449.885	0.1031323937932029	35	systole	3	B	500	systole
450.7454	0.1031323937932029	35	systole	4	B	500	systole
451.6059	0.1031323937932029	35	systole	5	B	500	systole
452.3615	0.1031323937932029	35	systole	6	B	500	systole
453.11159999999995	0.1031323937932029	35	systole	7	B	500	systole
453.96709999999985	0.1031323937932029	35	systole	8	B	500	systole
454.9175	0.1031323937932029	35	systole	9	B	500	systole
455.6948	0.1031323937932029	35	systole	10	B	500	systole
456.49530000000004	0.1031323937932029	35	systole	11	B	500	systole
457.33629999999994	0.1031323937932029	35	systole	12	B	500	systole
459.9863	0.1037014850007835	36	systole	1	B	500	systole
460.78049999999985	0.1037014850007835	36	systole	2	B	500	systole
461.58050000000003	0.1037014850007835	36	systole	3	B	500	systole
462.36199999999985	0.1037014850007835	36	systole	4	B	500	systole
463.172	0.1037014850007835	36	systole	5	B	500	systole
464.03909999999996	0.1037014850007835	36	systole	6	B	500	systole
464.88919999999985	0.1037014850007835	36	systole	7	B	500	systole
465.6722	0.1037014850007835	36	systole	8	B	500	systole
466.47249999999985	0.1037014850007835	36	systole	9	B	500	systole
467.3396	0.1037014850007835	36	systole	10	B	500	systole
468.2128	0.1037014850007835	36	systole	11	B	500	systole
468.9813999999999	0.1037014850007835	36	systole	12	B	500	systole
471.2421999999999	0.1012575119675602	37	systole	1	B	500	diastole
471.98239999999987	0.1012575119675602	37	systole	2	B	500	diastole
472.7047	0.1012575119675602	37	systole	3	B	500	diastole
473.41290000000004	0.1012575119675602	37	systole	4	B	500	diastole
474.105	0.1012575119675602	37	systole	5	B	500	diastole
474.8387	0.1012575119675602	37	systole	6	B	500	diastole
475.5906	0.1012575119675602	37	systole	7	B	500	diastole
476.3424	0.1012575119675602	37	systole	8	B	500	diastole
477.05489999999986	0.1012575119675602	37	systole	9	B	500	diastole
477.77499999999986	0.1012575119675602	37	systole	10	B	500	diastole
478.54489999999987	0.1012575119675602	37	systole	11	B	500	diastole
479.28499999999985	0.1012575119675602	37	systole	12	B	500	diastole
480.01009999999997	0.1012575119675602	37	systole	13	B	500	diastole
480.74019999999996	0.1012575119675602	37	systole	14	B	500	diastole
483.6344999999999	0.0912717962346505	38	systole	1	B	500	systole
484.3444999999999	0.0912717962346505	38	systole	2	B	500	systole
485.028	0.0912717962346505	38	systole	3	B	500	systole
485.71219999999994	0.0912717962346505	38	systole	4	B	500	systole
486.40200000000004	0.0912717962346505	38	systole	5	B	500	systole
487.0918999999999	0.0912717962346505	38	systole	6	B	500	systole
487.8010999999999	0.0912717962346505	38	systole	7	B	500	systole
488.5319999999999	0.0912717962346505	38	systole	8	B	500	systole
489.26189999999997	0.0912717962346505	38	systole	9	B	500	systole
489.9919	0.0912717962346505	38	systole	10	B	500	systole
490.6851999999999	0.0912717962346505	38	systole	11	B	500	systole
491.3894	0.0912717962346505	38	systole	12	B	500	systole
492.09950000000003	0.0912717962346505	38	systole	13	B	500	systole
492.78949999999986	0.0912717962346505	38	systole	14	B	500	systole
495.4261999999999	0.0837475061998702	39	diastole	1	B	500	diastole
496.0094999999999	0.0837475061998702	39	diastole	2	B	500	diastole
496.6308999999999	0.0837475061998702	39	diastole	3	B	500	diastole
497.2608	0.0837475061998702	39	diastole	4	B	500	diastole
497.9107999999999	0.0837475061998702	39	diastole	5	B	500	diastole
498.55089999999996	0.0837475061998702	39	diastole	6	B	500	diastole
499.19089999999983	0.0837475061998702	39	diastole	7	B	500	diastole
499.83089999999993	0.0837475061998702	39	diastole	8	B	500	diastole
500.4705999999999	0.0837475061998702	39	diastole	9	B	500	diastole
501.0906	0.0837475061998702	39	diastole	10	B	500	diastole
501.71039999999994	0.0837475061998702	39	diastole	11	B	500	diastole
502.31050000000005	0.0837475061998702	39	diastole	12	B	500	diastole
502.91049999999996	0.0837475061998702	39	diastole	13	B	500	diastole
503.4922999999999	0.0837475061998702	39	diastole	14	B	500	diastole
504.08230000000003	0.0837475061998702	39	diastole	15	B	500	diastole
506.82770000000005	0.0737387615081388	40	diastole	1	B	500	diastole
507.3778	0.0737387615081388	40	diastole	2	B	500	diastole
507.92959999999994	0.0737387615081388	40	diastole	3	B	500	diastole
508.471	0.0737387615081388	40	diastole	4	B	500	diastole
509.02109999999993	0.0737387615081388	40	diastole	5	B	500	diastole
509.5444	0.0737387615081388	40	diastole	6	B	500	diastole
510.08439999999996	0.0737387615081388	40	diastole	7	B	500	diastole
510.5896	0.0737387615081388	40	diastole	8	B	500	diastole
511.1594	0.0737387615081388	40	diastole	9	B	500	diastole
511.83950000000004	0.0737387615081388	40	diastole	10	B	500	diastole
512.5194999999999	0.0737387615081388	40	diastole	11	B	500	diastole
513.2858999999999	0.0737387615081388	40	diastole	12	B	500	diastole
514.0357999999999	0.0737387615081388	40	diastole	13	B	500	diastole
514.8826999999999	0.0737387615081388	40	diastole	14	B	500	diastole
515.5962999999999	0.0737387615081388	40	diastole	15	B	500	diastole
518.2463	0.0850058604264631	41	diastole	1	B	500	diastole
518.8762999999999	0.0850058604264631	41	diastole	2	B	500	diastole
519.5763999999999	0.0850058604264631	41	diastole	3	B	500	diastole
520.2763	0.0850058604264631	41	diastole	4	B	500	diastole
521.3362999999999	0.0850058604264631	41	diastole	5	B	500	diastole
522.1262999999999	0.0850058604264631	41	diastole	6	B	500	diastole
522.9162999999999	0.0850058604264631	41	diastole	7	B	500	diastole
523.7864	0.0850058604264631	41	diastole	8	B	500	diastole
524.6027999999999	0.0850058604264631	41	diastole	9	B	500	diastole
525.4026999999999	0.0850058604264631	41	diastole	10	B	500	diastole
526.5340999999999	0.0850058604264631	41	diastole	11	B	500	diastole
527.3043	0.0850058604264631	41	diastole	12	B	500	diastole
529.7375999999999	0.0981294885277748	42	diastole	1	B	500	systole
530.3670999999999	0.0981294885277748	42	diastole	2	B	500	systole
530.9556	0.0981294885277748	42	diastole	3	B	500	systole
531.5710999999999	0.0981294885277748	42	diastole	4	B	500	systole
532.2610999999999	0.0981294885277748	42	diastole	5	B	500	systole
533.5507	0.0981294885277748	42	diastole	6	B	500	systole
534.5727999999999	0.0981294885277748	42	diastole	7	B	500	systole
535.4507999999998	0.0981294885277748	42	diastole	8	B	500	systole
536.3289	0.0981294885277748	42	diastole	9	B	500	systole
537.1200999999999	0.0981294885277748	42	diastole	10	B	500	systole
537.8700999999999	0.0981294885277748	42	diastole	11	B	500	systole
538.5968	0.0981294885277748	42	diastole	12	B	500	systole
539.307	0.0981294885277748	42	diastole	13	B	500	systole
541.5457999999999	0.0881194563116878	43	diastole	1	B	500	systole
542.1458	0.0881194563116878	43	diastole	2	B	500	systole
542.6877	0.0881194563116878	43	diastole	3	B	500	systole
543.2441999999999	0.0881194563116878	43	diastole	4	B	500	systole
543.9253999999999	0.0881194563116878	43	diastole	5	B	500	systole
544.6151	0.0881194563116878	43	diastole	6	B	500	systole
545.3351	0.0881194563116878	43	diastole	7	B	500	systole
546.0551	0.0881194563116878	43	diastole	8	B	500	systole
546.7550999999999	0.0881194563116878	43	diastole	9	B	500	systole
547.4667999999999	0.0881194563116878	43	diastole	10	B	500	systole
548.1034999999999	0.0881194563116878	43	diastole	11	B	500	systole
548.7236	0.0881194563116878	43	diastole	12	B	500	systole
549.3235	0.0881194563116878	43	diastole	13	B	500	systole
549.9235999999999	0.0881194563116878	43	diastole	14	B	500	systole
550.5384999999999	0.0881194563116878	43	diastole	15	B	500	systole
551.2185	0.0881194563116878	43	diastole	16	B	500	systole
555.5045	0.0825017240131273	44	diastole	1	B	500	systole
556.3677	0.0825017240131273	44	diastole	2	B	500	systole
557.0943	0.0825017240131273	44	diastole	3	B	500	systole
557.8043	0.0825017240131273	44	diastole	4	B	500	systole
558.4960999999998	0.0825017240131273	44	diastole	5	B	500	systole
559.1542	0.0825017240131273	44	diastole	6	B	500	systole
559.8342	0.0825017240131273	44	diastole	7	B	500	systole
560.5843	0.0825017240131273	44	diastole	8	B	500	systole
561.3431	0.0825017240131273	44	diastole	9	B	500	systole
562.1431	0.0825017240131273	44	diastole	10	B	500	systole
562.8228999999999	0.0825017240131273	44	diastole	11	B	500	systole
563.5330999999999	0.0825017240131273	44	diastole	12	B	500	systole
564.2429999999999	0.0825017240131273	44	diastole	13	B	500	systole
567.7080999999998	0.0893705186899751	45	diastole	1	B	500	diastole
568.3498	0.0893705186899751	45	diastole	2	B	500	diastole
568.963	0.0893705186899751	45	diastole	3	B	500	diastole
569.5572	0.0893705186899751	45	diastole	4	B	500	diastole
570.1767	0.0893705186899751	45	diastole	5	B	500	diastole
570.7709	0.0893705186899751	45	diastole	6	B	500	diastole
571.3191999999999	0.0893705186899751	45	diastole	7	B	500	diastole
571.9091999999998	0.0893705186899751	45	diastole	8	B	500	diastole
572.4719	0.0893705186899751	45	diastole	9	B	500	diastole
573.0383999999999	0.0893705186899751	45	diastole	10	B	500	diastole
573.6203	0.0893705186899751	45	diastole	11	B	500	diastole
574.2022999999999	0.0893705186899751	45	diastole	12	B	500	diastole
574.7471	0.0893705186899751	45	diastole	13	B	500	diastole
575.3174999999999	0.0893705186899751	45	diastole	14	B	500	diastole
575.8588	0.0893705186899751	45	diastole	15	B	500	diastole
576.4115999999999	0.0893705186899751	45	diastole	16	B	500	diastole
579.406	0.0699718398391269	46	systole	1	B	500	diastole
580.3462	0.0699718398391269	46	systole	2	B	500	diastole
581.3319999999999	0.0699718398391269	46	systole	3	B	500	diastole
582.1788999999999	0.0699718398391269	46	systole	4	B	500	diastole
583.0439999999999	0.0699718398391269	46	systole	5	B	500	diastole
583.7788	0.0699718398391269	46	systole	6	B	500	diastole
584.4786999999999	0.0699718398391269	46	systole	7	B	500	diastole
585.1287	0.0699718398391269	46	systole	8	B	500	diastole
585.7586999999999	0.0699718398391269	46	systole	9	B	500	diastole
586.3804	0.0699718398391269	46	systole	10	B	500	diastole
586.9160999999999	0.0699718398391269	46	systole	11	B	500	diastole
587.5245	0.0699718398391269	46	systole	12	B	500	diastole
588.1445999999999	0.0699718398391269	46	systole	13	B	500	diastole
590.9221	0.0776143328403122	47	systole	1	B	500	systole
591.5806	0.0776143328403122	47	systole	2	B	500	systole
592.2463	0.0776143328403122	47	systole	3	B	500	systole
592.8545999999999	0.0776143328403122	47	systole	4	B	500	systole
593.4745	0.0776143328403122	47	systole	5	B	500	systole
594.0744	0.0776143328403122	47	systole	6	B	500	systole
594.6741999999999	0.0776143328403122	47	systole	7	B	500	systole
595.2740999999999	0.0776143328403122	47	systole	8	B	500	systole
595.894	0.0776143328403122	47	systole	9	B	500	systole
596.5138999999999	0.0776143328403122	47	systole	10	B	500	systole
597.1337999999998	0.0776143328403122	47	systole	11	B	500	systole
597.7536	0.0776143328403122	47	systole	12	B	500	systole
598.3735999999999	0.0776143328403122	47	systole	13	B	500	systole
598.9781	0.0776143328403122	47	systole	14	B	500	systole
599.5879	0.0776143328403122	47	systole	15	B	500	systole
600.1976999999999	0.0776143328403122	47	systole	16	B	500	systole
603.8742	0.0781262437812984	48	diastole	1	B	500	diastole
604.6040999999998	0.0781262437812984	48	diastole	2	B	500	diastole
605.3524	0.0781262437812984	48	diastole	3	B	500	diastole
606.0590999999997	0.0781262437812984	48	diastole	4	B	500	diastole
606.7508999999998	0.0781262437812984	48	diastole	5	B	500	diastole
607.3909000000001	0.0781262437812984	48	diastole	6	B	500	diastole
608.0309	0.0781262437812984	48	diastole	7	B	500	diastole
608.6508000000001	0.0781262437812984	48	diastole	8	B	500	diastole
609.2706999999998	0.0781262437812984	48	diastole	9	B	500	diastole
609.8707999999999	0.0781262437812984	48	diastole	10	B	500	diastole
610.4473	0.0781262437812984	48	diastole	11	B	500	diastole
610.9774	0.0781262437812984	48	diastole	12	B	500	diastole
611.5575000000001	0.0781262437812984	48	diastole	13	B	500	diastole
612.1377	0.0781262437812984	48	diastole	14	B	500	diastole
612.7108999999998	0.0781262437812984	48	diastole	15	B	500	diastole
614.9817	0.0718772802792955	49	systole	1	B	500	systole
615.5118	0.0718772802792955	49	systole	2	B	500	systole
616.0202999999999	0.0718772802792955	49	systole	3	B	500	systole
616.5386000000001	0.0718772802792955	49	systole	4	B	500	systole
617.1085999999998	0.0718772802792955	49	systole	5	B	500	systole
617.6786	0.0718772802792955	49	systole	6	B	500	systole
618.2486000000001	0.0718772802792955	49	systole	7	B	500	systole
619.2686000000001	0.0718772802792955	49	systole	8	B	500	systole
620.2886000000001	0.0718772802792955	49	systole	9	B	500	systole
621.2587000000001	0.0718772802792955	49	systole	10	B	500	systole
622.2288000000001	0.0718772802792955	49	systole	11	B	500	systole
623.0602999999999	0.0718772802792955	49	systole	12	B	500	systole
623.8853999999999	0.0718772802792955	49	systole	13	B	500	systole
626.4974999999997	0.0750016749952919	50	diastole	1	B	500	diastole
627.0375999999999	0.0750016749952919	50	diastole	2	B	500	diastole
627.5777	0.0750016749952919	50	diastole	3	B	500	diastole
628.0953999999999	0.0750016749952919	50	diastole	4	B	500	diastole
628.7254999999998	0.0750016749952919	50	diastole	5	B	500	diastole
629.3556000000001	0.0750016749952919	50	diastole	6	B	500	diastole
629.9857	0.0750016749952919	50	diastole	7	B	500	diastole
631.1454999999999	0.0750016749952919	50	diastole	8	B	500	diastole
631.9959000000001	0.0750016749952919	50	diastole	9	B	500	diastole
632.8461999999997	0.0750016749952919	50	diastole	10	B	500	diastole
633.6962999999998	0.0750016749952919	50	diastole	11	B	500	diastole
634.6265000000001	0.0750016749952919	50	diastole	12	B	500	diastole
635.3304999999998	0.0750016749952919	50	diastole	13	B	500	diastole
635.9604999999999	0.0750016749952919	50	diastole	14	B	500	diastole
637.7594999999999	0.0807142875273712	51	diastole	1	B	500	systole
638.3596	0.0807142875273712	51	diastole	2	B	500	systole
638.9599000000001	0.0807142875273712	51	diastole	3	B	500	systole
639.5827999999999	0.0807142875273712	51	diastole	4	B	500	systole
640.2128	0.0807142875273712	51	diastole	5	B	500	systole
640.8529999999998	0.0807142875273712	51	diastole	6	B	500	systole
641.4930999999999	0.0807142875273712	51	diastole	7	B	500	systole
642.1600000000001	0.0807142875273712	51	diastole	8	B	500	systole
642.8214999999998	0.0807142875273712	51	diastole	9	B	500	systole
643.4815000000001	0.0807142875273712	51	diastole	10	B	500	systole
644.1514	0.0807142875273712	51	diastole	11	B	500	systole
644.7998	0.0807142875273712	51	diastole	12	B	500	systole
645.4397000000001	0.0807142875273712	51	diastole	13	B	500	systole
646.0698	0.0807142875273712	51	diastole	14	B	500	systole
646.6798999999999	0.0807142875273712	51	diastole	15	B	500	systole
648.6429	0.0756339312065392	52	systole	1	B	500	diastole
649.2427999999998	0.0756339312065392	52	systole	2	B	500	diastole
649.8426999999999	0.0756339312065392	52	systole	3	B	500	diastole
650.4426000000001	0.0756339312065392	52	systole	4	B	500	diastole
651.0925999999997	0.0756339312065392	52	systole	5	B	500	diastole
651.7427	0.0756339312065392	52	systole	6	B	500	diastole
652.4100999999998	0.0756339312065392	52	systole	7	B	500	diastole
653.0734	0.0756339312065392	52	systole	8	B	500	diastole
653.7135000000001	0.0756339312065392	52	systole	9	B	500	diastole
654.3336000000002	0.0756339312065392	52	systole	10	B	500	diastole
654.9534999999998	0.0756339312065392	52	systole	11	B	500	diastole
655.5734999999997	0.0756339312065392	52	systole	12	B	500	diastole
656.1935000000001	0.0756339312065392	52	systole	13	B	500	diastole
656.8133999999998	0.0756339312065392	52	systole	14	B	500	diastole
657.4233999999999	0.0756339312065392	52	systole	15	B	500	diastole
658.0118999999997	0.0756339312065392	52	systole	16	B	500	diastole
660.2360000000001	0.0774988187476992	53	diastole	1	B	500	systole
660.8560999999997	0.0774988187476992	53	diastole	2	B	500	systole
661.4961000000001	0.0774988187476992	53	diastole	3	B	500	systole
662.1559999999997	0.0774988187476992	53	diastole	4	B	500	systole
662.816	0.0774988187476992	53	diastole	5	B	500	systole
663.4660999999999	0.0774988187476992	53	diastole	6	B	500	systole
664.0959999999998	0.0774988187476992	53	diastole	7	B	500	systole
664.7257999999999	0.0774988187476992	53	diastole	8	B	500	systole
665.336	0.0774988187476992	53	diastole	9	B	500	systole
665.9460000000001	0.0774988187476992	53	diastole	10	B	500	systole
666.5359000000001	0.0774988187476992	53	diastole	11	B	500	systole
667.1078	0.0774988187476992	53	diastole	12	B	500	systole
667.6879000000001	0.0774988187476992	53	diastole	13	B	500	systole
668.2594999999999	0.0774988187476992	53	diastole	14	B	500	systole
668.8108999999997	0.0774988187476992	53	diastole	15	B	500	systole
669.3842999999999	0.0774988187476992	53	diastole	16	B	500	systole
672.3700999999999	0.076884962443728	54	systole	1	B	500	systole
673.1499000000001	0.076884962443728	54	systole	2	B	500	systole
673.8898999999999	0.076884962443728	54	systole	3	B	500	systole
674.55	0.076884962443728	54	systole	4	B	500	systole
675.1901	0.076884962443728	54	systole	5	B	500	systole
675.8398999999997	0.076884962443728	54	systole	6	B	500	systole
676.4896999999999	0.076884962443728	54	systole	7	B	500	systole
677.1395	0.076884962443728	54	systole	8	B	500	systole
677.6978999999999	0.076884962443728	54	systole	9	B	500	systole
678.3102999999999	0.076884962443728	54	systole	10	B	500	systole
678.9403999999997	0.076884962443728	54	systole	11	B	500	systole
679.5546999999999	0.076884962443728	54	systole	12	B	500	systole
680.1490000000001	0.076884962443728	54	systole	13	B	500	systole
680.7432000000001	0.076884962443728	54	systole	14	B	500	systole
681.3432	0.076884962443728	54	systole	15	B	500	systole
683.8443	0.0750021528219804	55	diastole	1	B	500	systole
684.4042999999999	0.0750021528219804	55	diastole	2	B	500	systole
684.9576	0.0750021528219804	55	diastole	3	B	500	systole
685.5676999999998	0.0750021528219804	55	diastole	4	B	500	systole
686.2277000000001	0.0750021528219804	55	diastole	5	B	500	systole
686.8877999999997	0.0750021528219804	55	diastole	6	B	500	systole
687.5478999999998	0.0750021528219804	55	diastole	7	B	500	systole
688.1778999999999	0.0750021528219804	55	diastole	8	B	500	systole
688.8378	0.0750021528219804	55	diastole	9	B	500	systole
689.6762000000001	0.0750021528219804	55	diastole	10	B	500	systole
690.4561999999999	0.0750021528219804	55	diastole	11	B	500	systole
691.3396	0.0750021528219804	55	diastole	12	B	500	systole
692.358	0.0750021528219804	55	diastole	13	B	500	systole
693.4581000000001	0.0750021528219804	55	diastole	14	B	500	systole
696.1939	0.1126112350902985	56	systole	1	B	500	diastole
696.9538	0.1126112350902985	56	systole	2	B	500	diastole
697.7137	0.1126112350902985	56	systole	3	B	500	diastole
698.4437999999998	0.1126112350902985	56	systole	4	B	500	diastole
699.1054000000001	0.1126112350902985	56	systole	5	B	500	diastole
699.8790000000001	0.1126112350902985	56	systole	6	B	500	diastole
700.6290999999999	0.1126112350902985	56	systole	7	B	500	diastole
701.3792000000001	0.1126112350902985	56	systole	8	B	500	diastole
702.7054999999998	0.1126112350902985	56	systole	9	B	500	diastole
703.4374	0.1126112350902985	56	systole	10	B	500	diastole
704.4273000000001	0.1126112350902985	56	systole	11	B	500	diastole
705.4172999999998	0.1126112350902985	56	systole	12	B	500	diastole
708.5278999999998	0.1068830084404908	57	diastole	1	B	500	systole
709.3295	0.1068830084404908	57	diastole	2	B	500	systole
710.1393999999998	0.1068830084404908	57	diastole	3	B	500	systole
711.1879000000001	0.1068830084404908	57	diastole	4	B	500	systole
711.9995000000001	0.1068830084404908	57	diastole	5	B	500	systole
712.8194999999998	0.1068830084404908	57	diastole	6	B	500	systole
713.6395	0.1068830084404908	57	diastole	7	B	500	systole
714.4595000000002	0.1068830084404908	57	diastole	8	B	500	systole
715.2443999999998	0.1068830084404908	57	diastole	9	B	500	systole
715.9612999999997	0.1068830084404908	57	diastole	10	B	500	systole
716.7029	0.1068830084404908	57	diastole	11	B	500	systole
717.4527999999998	0.1068830084404908	57	diastole	12	B	500	systole
721.0033000000001	0.0898932532873004	58	diastole	1	B	500	systole
721.7627999999997	0.0898932532873004	58	diastole	2	B	500	systole
722.4932000000001	0.0898932532873004	58	diastole	3	B	500	systole
723.2236999999998	0.0898932532873004	58	diastole	4	B	500	systole
723.9433999999999	0.0898932532873004	58	diastole	5	B	500	systole
724.6164999999999	0.0898932532873004	58	diastole	6	B	500	systole
725.3032999999998	0.0898932532873004	58	diastole	7	B	500	systole
725.9833000000001	0.0898932532873004	58	diastole	8	B	500	systole
726.6935999999998	0.0898932532873004	58	diastole	9	B	500	systole
727.4214	0.0898932532873004	58	diastole	10	B	500	systole
728.1816999999999	0.0898932532873004	58	diastole	11	B	500	systole
728.9316000000001	0.0898932532873004	58	diastole	12	B	500	systole
729.818	0.0898932532873004	58	diastole	13	B	500	systole
732.5303000000001	0.0956177642510738	59	systole	1	B	500	diastole
733.4107000000001	0.0956177642510738	59	systole	2	B	500	diastole
734.2504000000001	0.0956177642510738	59	systole	3	B	500	diastole
735.2837999999999	0.0956177642510738	59	systole	4	B	500	diastole
736.1656999999998	0.0956177642510738	59	systole	5	B	500	diastole
737.0355999999999	0.0956177642510738	59	systole	6	B	500	diastole
737.8662000000002	0.0956177642510738	59	systole	7	B	500	diastole
738.6966999999997	0.0956177642510738	59	systole	8	B	500	diastole
739.5665999999999	0.0956177642510738	59	systole	9	B	500	diastole
740.3965999999998	0.0956177642510738	59	systole	10	B	500	diastole
741.2265999999997	0.0956177642510738	59	systole	11	B	500	diastole
744.5719999999999	0.106280692591099	60	systole	1	B	500	systole
745.3612	0.106280692591099	60	systole	2	B	500	systole
746.1748999999998	0.106280692591099	60	systole	3	B	500	systole
746.9947999999997	0.106280692591099	60	systole	4	B	500	systole
747.7992000000002	0.106280692591099	60	systole	5	B	500	systole
748.5735999999999	0.106280692591099	60	systole	6	B	500	systole
749.3534999999999	0.106280692591099	60	systole	7	B	500	systole
750.0822999999998	0.106280692591099	60	systole	8	B	500	systole
750.8398999999997	0.106280692591099	60	systole	9	B	500	systole
751.6398999999999	0.106280692591099	60	systole	10	B	500	systole
752.4084	0.106280692591099	60	systole	11	B	500	systole
753.1643999999999	0.106280692591099	60	systole	12	B	500	systole
755.662	0.0924004961852915	61	systole	1	B	500	systole
756.3037999999999	0.0924004961852915	61	systole	2	B	500	systole
756.9736999999998	0.0924004961852915	61	systole	3	B	500	systole
757.6577	0.0924004961852915	61	systole	4	B	500	systole
758.3061999999998	0.0924004961852915	61	systole	5	B	500	systole
758.9660999999999	0.0924004961852915	61	systole	6	B	500	systole
759.6002000000001	0.0924004961852915	61	systole	7	B	500	systole
760.2144000000001	0.0924004961852915	61	systole	8	B	500	systole
760.8342999999998	0.0924004961852915	61	systole	9	B	500	systole
761.4383999999998	0.0924004961852915	61	systole	10	B	500	systole
762.0363999999997	0.0924004961852915	61	systole	11	B	500	systole
762.6551999999999	0.0924004961852915	61	systole	12	B	500	systole
763.3351	0.0924004961852915	61	systole	13	B	500	systole
764.0051000000001	0.0924004961852915	61	systole	14	B	500	systole
764.6751000000002	0.0924004961852915	61	systole	15	B	500	systole
765.3967	0.0924004961852915	61	systole	16	B	500	systole
768.5595000000001	0.0856260239961557	62	systole	1	B	500	systole
769.3194999999998	0.0856260239961557	62	systole	2	B	500	systole
770.0885000000001	0.0856260239961557	62	systole	3	B	500	systole
770.8416999999997	0.0856260239961557	62	systole	4	B	500	systole
771.5716999999997	0.0856260239961557	62	systole	5	B	500	systole
772.2915999999998	0.0856260239961557	62	systole	6	B	500	systole
773.0316999999998	0.0856260239961557	62	systole	7	B	500	systole
773.7717	0.0856260239961557	62	systole	8	B	500	systole
774.5219	0.0856260239961557	62	systole	9	B	500	systole
775.2719	0.0856260239961557	62	systole	10	B	500	systole
776.0418999999999	0.0856260239961557	62	systole	11	B	500	systole
776.8117999999997	0.0856260239961557	62	systole	12	B	500	systole
777.546	0.0856260239961557	62	systole	13	B	500	systole
780.5060000000001	0.0925048908684402	63	systole	1	B	500	systole
781.2059999999999	0.0925048908684402	63	systole	2	B	500	systole
781.9057999999998	0.0925048908684402	63	systole	3	B	500	systole
782.5867999999998	0.0925048908684402	63	systole	4	B	500	systole
783.2809999999997	0.0925048908684402	63	systole	5	B	500	systole
783.9750999999999	0.0925048908684402	63	systole	6	B	500	systole
784.6690999999998	0.0925048908684402	63	systole	7	B	500	systole
785.3691000000001	0.0925048908684402	63	systole	8	B	500	systole
786.0690999999999	0.0925048908684402	63	systole	9	B	500	systole
786.7191	0.0925048908684402	63	systole	10	B	500	systole
787.3691999999999	0.0925048908684402	63	systole	11	B	500	systole
787.9833999999998	0.0925048908684402	63	systole	12	B	500	systole
788.6033999999997	0.0925048908684402	63	systole	13	B	500	systole
789.2175999999997	0.0925048908684402	63	systole	14	B	500	systole
791.9167999999997	0.0762513311929069	64	systole	1	B	500	diastole
792.4768999999999	0.0762513311929069	64	systole	2	B	500	diastole
793.0352	0.0762513311929069	64	systole	3	B	500	diastole
793.6292999999998	0.0762513311929069	64	systole	4	B	500	diastole
794.2193	0.0762513311929069	64	systole	5	B	500	diastole
794.8095000000001	0.0762513311929069	64	systole	6	B	500	diastole
795.3996	0.0762513311929069	64	systole	7	B	500	diastole
796.0294999999999	0.0762513311929069	64	systole	8	B	500	diastole
796.6593	0.0762513311929069	64	systole	9	B	500	diastole
797.2891999999999	0.0762513311929069	64	systole	10	B	500	diastole
798.2268000000001	0.0762513311929069	64	systole	11	B	500	diastole
799.2299	0.0762513311929069	64	systole	12	B	500	diastole
800.2099000000001	0.0762513311929069	64	systole	13	B	500	diastole
801.2225000000001	0.0762513311929069	64	systole	14	B	500	diastole
804.3835000000001	0.1093885937007144	65	systole	1	B	500	systole
805.2135999999998	0.1093885937007144	65	systole	2	B	500	systole
806.0438999999999	0.1093885937007144	65	systole	3	B	500	systole
806.8742	0.1093885937007144	65	systole	4	B	500	systole
807.6499000000001	0.1093885937007144	65	systole	5	B	500	systole
808.4201999999998	0.1093885937007144	65	systole	6	B	500	systole
809.2670999999998	0.1093885937007144	65	systole	7	B	500	systole
810.1371000000001	0.1093885937007144	65	systole	8	B	500	systole
811.0069999999998	0.1093885937007144	65	systole	9	B	500	systole
811.9185	0.1093885937007144	65	systole	10	B	500	systole
812.8300999999999	0.1093885937007144	65	systole	11	B	500	systole
813.6982	0.1093885937007144	65	systole	12	B	500	systole
817.4035999999999	0.0887808219704311	66	systole	1	B	500	diastole
818.0833999999998	0.0887808219704311	66	systole	2	B	500	diastole
818.7659000000001	0.0887808219704311	66	systole	3	B	500	diastole
819.5357999999999	0.0887808219704311	66	systole	4	B	500	diastole
820.2857999999999	0.0887808219704311	66	systole	5	B	500	diastole
821.0357999999999	0.0887808219704311	66	systole	6	B	500	diastole
821.796	0.0887808219704311	66	systole	7	B	500	diastole
822.5352	0.0887808219704311	66	systole	8	B	500	diastole
823.2450999999999	0.0887808219704311	66	systole	9	B	500	diastole
823.9763999999998	0.0887808219704311	66	systole	10	B	500	diastole
824.6566999999998	0.0887808219704311	66	systole	11	B	500	diastole
825.3167000000001	0.0887808219704311	66	systole	12	B	500	diastole
825.9766999999999	0.0887808219704311	66	systole	13	B	500	diastole
829.3462999999999	0.0850117552326992	67	systole	1	B	500	systole
830.0962999999999	0.0850117552326992	67	systole	2	B	500	systole
830.8763000000001	0.0850117552326992	67	systole	3	B	500	systole
831.7095000000002	0.0850117552326992	67	systole	4	B	500	systole
832.5195000000001	0.0850117552326992	67	systole	5	B	500	systole
833.3437999999999	0.0850117552326992	67	systole	6	B	500	systole
834.1038999999998	0.0850117552326992	67	systole	7	B	500	systole
834.8237999999999	0.0850117552326992	67	systole	8	B	500	systole
835.5237999999997	0.0850117552326992	67	systole	9	B	500	systole
836.2038999999997	0.0850117552326992	67	systole	10	B	500	systole
836.8562	0.0850117552326992	67	systole	11	B	500	systole
837.4871999999998	0.0850117552326992	67	systole	12	B	500	systole
838.1472999999999	0.0850117552326992	67	systole	13	B	500	systole
841.2760000000001	0.0850061374949291	68	diastole	1	B	500	systole
842.0359000000001	0.0850061374949291	68	diastole	2	B	500	systole
842.9660000000001	0.0850061374949291	68	diastole	3	B	500	systole
843.896	0.0850061374949291	68	diastole	4	B	500	systole
844.7265999999997	0.0850061374949291	68	diastole	5	B	500	systole
845.4568999999999	0.0850061374949291	68	diastole	6	B	500	systole
846.1364999999998	0.0850061374949291	68	diastole	7	B	500	systole
846.7965000000002	0.0850061374949291	68	diastole	8	B	500	systole
847.4264000000001	0.0850061374949291	68	diastole	9	B	500	systole
848.0368999999998	0.0850061374949291	68	diastole	10	B	500	systole
848.5876999999998	0.0850061374949291	68	diastole	11	B	500	systole
849.1690999999998	0.0850061374949291	68	diastole	12	B	500	systole
849.8428000000001	0.0850061374949291	68	diastole	13	B	500	systole
852.6944000000001	0.0824834347877185	69	systole	1	B	500	systole
853.3327000000002	0.0824834347877185	69	systole	2	B	500	systole
853.9709999999998	0.0824834347877185	69	systole	3	B	500	systole
854.6092999999998	0.0824834347877185	69	systole	4	B	500	systole
855.2492999999997	0.0824834347877185	69	systole	5	B	500	systole
855.8893999999998	0.0824834347877185	69	systole	6	B	500	systole
856.521	0.0824834347877185	69	systole	7	B	500	systole
857.1447000000001	0.0824834347877185	69	systole	8	B	500	systole
857.7845	0.0824834347877185	69	systole	9	B	500	systole
858.434	0.0824834347877185	69	systole	10	B	500	systole
859.1139999999998	0.0824834347877185	69	systole	11	B	500	systole
859.7940000000001	0.0824834347877185	69	systole	12	B	500	systole
860.4822999999999	0.0824834347877185	69	systole	13	B	500	systole
861.1407999999999	0.0824834347877185	69	systole	14	B	500	systole
861.8459	0.0824834347877185	69	systole	15	B	500	systole
862.5220999999999	0.0824834347877185	69	systole	16	B	500	systole
865.3189999999997	0.0861411498626694	70	diastole	1	B	500	systole
866.0572999999997	0.0861411498626694	70	diastole	2	B	500	systole
866.7956999999999	0.0861411498626694	70	diastole	3	B	500	systole
867.5038999999999	0.0861411498626694	70	diastole	4	B	500	systole
868.2023999999999	0.0861411498626694	70	diastole	5	B	500	systole
868.8823	0.0861411498626694	70	diastole	6	B	500	systole
869.5422999999998	0.0861411498626694	70	diastole	7	B	500	systole
870.1822999999997	0.0861411498626694	70	diastole	8	B	500	systole
870.8131000000001	0.0861411498626694	70	diastole	9	B	500	systole
871.4464999999998	0.0861411498626694	70	diastole	10	B	500	systole
872.0626999999997	0.0861411498626694	70	diastole	11	B	500	systole
872.7261999999998	0.0861411498626694	70	diastole	12	B	500	systole
873.4361999999999	0.0861411498626694	70	diastole	13	B	500	systole
874.1461000000002	0.0861411498626694	70	diastole	14	B	500	systole
874.8261999999997	0.0861411498626694	70	diastole	15	B	500	systole
877.2632999999998	0.0862504717661067	71	systole	1	B	500	diastole
877.9531	0.0862504717661067	71	systole	2	B	500	diastole
878.6130999999998	0.0862504717661067	71	systole	3	B	500	diastole
879.2731999999999	0.0862504717661067	71	systole	4	B	500	diastole
879.9116999999999	0.0862504717661067	71	systole	5	B	500	diastole
880.5617999999997	0.0862504717661067	71	systole	6	B	500	diastole
881.2043000000001	0.0862504717661067	71	systole	7	B	500	diastole
881.8525999999999	0.0862504717661067	71	systole	8	B	500	diastole
882.5026	0.0862504717661067	71	systole	9	B	500	diastole
883.1524999999999	0.0862504717661067	71	systole	10	B	500	diastole
883.8423999999998	0.0862504717661067	71	systole	11	B	500	diastole
884.5323000000001	0.0862504717661067	71	systole	12	B	500	diastole
885.2221999999999	0.0862504717661067	71	systole	13	B	500	diastole
885.8922999999998	0.0862504717661067	71	systole	14	B	500	diastole
886.5622999999998	0.0862504717661067	71	systole	15	B	500	diastole
890.1791000000001	0.083132885658415	72	diastole	1	B	500	diastole
890.8489999999999	0.083132885658415	72	diastole	2	B	500	diastole
891.6791000000001	0.083132885658415	72	diastole	3	B	500	diastole
892.5091999999997	0.083132885658415	72	diastole	4	B	500	diastole
893.2292999999997	0.083132885658415	72	diastole	5	B	500	diastole
893.9905999999999	0.083132885658415	72	diastole	6	B	500	diastole
894.6789999999999	0.083132885658415	72	diastole	7	B	500	diastole
895.3590000000002	0.083132885658415	72	diastole	8	B	500	diastole
895.9891	0.083132885658415	72	diastole	9	B	500	diastole
896.6290000000001	0.083132885658415	72	diastole	10	B	500	diastole
897.289	0.083132885658415	72	diastole	11	B	500	diastole
897.9875	0.083132885658415	72	diastole	12	B	500	diastole
898.7375	0.083132885658415	72	diastole	13	B	500	diastole
901.8693000000001	0.0882540125749073	73	diastole	1	B	500	systole
902.5291999999997	0.0882540125749073	73	diastole	2	B	500	systole
903.1892	0.0882540125749073	73	diastole	3	B	500	systole
903.8491000000001	0.0882540125749073	73	diastole	4	B	500	systole
904.4891	0.0882540125749073	73	diastole	5	B	500	systole
905.0575000000001	0.0882540125749073	73	diastole	6	B	500	systole
905.6775999999998	0.0882540125749073	73	diastole	7	B	500	systole
906.2758000000001	0.0882540125749073	73	diastole	8	B	500	systole
906.9394999999997	0.0882540125749073	73	diastole	9	B	500	systole
907.6278	0.0882540125749073	73	diastole	10	B	500	systole
908.3160999999998	0.0882540125749073	73	diastole	11	B	500	systole
909.0060999999998	0.0882540125749073	73	diastole	12	B	500	systole
909.7239999999999	0.0882540125749073	73	diastole	13	B	500	systole
910.4156	0.0882540125749073	73	diastole	14	B	500	systole
913.2742000000001	0.0862533705076202	74	diastole	1	B	500	systole
913.9840000000002	0.0862533705076202	74	diastole	2	B	500	systole
914.6854999999998	0.0862533705076202	74	diastole	3	B	500	systole
915.3639999999998	0.0862533705076202	74	diastole	4	B	500	systole
916.0273	0.0862533705076202	74	diastole	5	B	500	systole
916.6741	0.0862533705076202	74	diastole	6	B	500	systole
917.3237000000001	0.0862533705076202	74	diastole	7	B	500	systole
917.9858999999999	0.0862533705076202	74	diastole	8	B	500	systole
918.6562999999999	0.0862533705076202	74	diastole	9	B	500	systole
919.3104999999998	0.0862533705076202	74	diastole	10	B	500	systole
920.0300999999997	0.0862533705076202	74	diastole	11	B	500	systole
920.7497000000001	0.0862533705076202	74	diastole	12	B	500	systole
921.47	0.0862533705076202	74	diastole	13	B	500	systole
922.1895999999999	0.0862533705076202	74	diastole	14	B	500	systole
925.7686000000001	0.0881776749156415	75	diastole	1	B	500	systole
926.4586000000002	0.0881776749156415	75	diastole	2	B	500	systole
927.1487	0.0881776749156415	75	diastole	3	B	500	systole
927.858	0.0881776749156415	75	diastole	4	B	500	systole
928.5510000000002	0.0881776749156415	75	diastole	5	B	500	systole
929.3082999999999	0.0881776749156415	75	diastole	6	B	500	systole
930.0581999999997	0.0881776749156415	75	diastole	7	B	500	systole
930.8081	0.0881776749156415	75	diastole	8	B	500	systole
931.5058999999999	0.0881776749156415	75	diastole	9	B	500	systole
932.1960999999999	0.0881776749156415	75	diastole	10	B	500	systole
932.8862000000001	0.0881776749156415	75	diastole	11	B	500	systole
933.5564999999999	0.0881776749156415	75	diastole	12	B	500	systole
934.2088000000001	0.0881776749156415	75	diastole	13	B	500	systole
934.8601999999998	0.0881776749156415	75	diastole	14	B	500	systole
937.5393999999999	0.0837515413295477	76	diastole	1	B	500	systole
938.2693999999999	0.0837515413295477	76	diastole	2	B	500	systole
939.0496	0.0837515413295477	76	diastole	3	B	500	systole
939.9390999999998	0.0837515413295477	76	diastole	4	B	500	systole
941.2191999999998	0.0837515413295477	76	diastole	5	B	500	systole
942.2497000000001	0.0837515413295477	76	diastole	6	B	500	systole
943.2299999999998	0.0837515413295477	76	diastole	7	B	500	systole
944.2101999999998	0.0837515413295477	76	diastole	8	B	500	systole
945.0923999999998	0.0837515413295477	76	diastole	9	B	500	systole
945.8902	0.0837515413295477	76	diastole	10	B	500	systole
946.6487	0.0837515413295477	76	diastole	11	B	500	systole
949.3608000000002	0.0987601716187782	77	diastole	1	B	500	systole
950.0743999999997	0.0987601716187782	77	diastole	2	B	500	systole
950.8358999999998	0.0987601716187782	77	diastole	3	B	500	systole
951.6058999999998	0.0987601716187782	77	diastole	4	B	500	systole
952.3277	0.0987601716187782	77	diastole	5	B	500	systole
953.0305999999998	0.0987601716187782	77	diastole	6	B	500	systole
953.7140999999999	0.0987601716187782	77	diastole	7	B	500	systole
954.4077	0.0987601716187782	77	diastole	8	B	500	systole
955.1011999999998	0.0987601716187782	77	diastole	9	B	500	systole
955.7353	0.0987601716187782	77	diastole	10	B	500	systole
956.3949999999998	0.0987601716187782	77	diastole	11	B	500	systole
956.9939999999999	0.0987601716187782	77	diastole	12	B	500	systole
957.6159999999998	0.0987601716187782	77	diastole	13	B	500	systole
958.1631999999997	0.0987601716187782	77	diastole	14	B	500	systole
960.6786	0.0767259218846447	78	systole	1	B	500	systole
961.3387	0.0767259218846447	78	systole	2	B	500	systole
961.9586999999999	0.0767259218846447	78	systole	3	B	500	systole
962.5786999999998	0.0767259218846447	78	systole	4	B	500	systole
963.1841999999999	0.0767259218846447	78	systole	5	B	500	systole
963.7841999999998	0.0767259218846447	78	systole	6	B	500	systole
964.3841	0.0767259218846447	78	systole	7	B	500	systole
964.9840999999999	0.0767259218846447	78	systole	8	B	500	systole
965.5840999999998	0.0767259218846447	78	systole	9	B	500	systole
966.2083	0.0767259218846447	78	systole	10	B	500	systole
966.8268999999998	0.0767259218846447	78	systole	11	B	500	systole
967.4570999999999	0.0767259218846447	78	systole	12	B	500	systole
968.0872999999999	0.0767259218846447	78	systole	13	B	500	systole
968.6926999999998	0.0767259218846447	78	systole	14	B	500	systole
969.3030000000001	0.0767259218846447	78	systole	15	B	500	systole
969.9379000000001	0.0767259218846447	78	systole	16	B	500	systole
972.1328000000001	0.0781077811843715	79	diastole	1	B	500	diastole
973.1225999999999	0.0781077811843715	79	diastole	2	B	500	diastole
974.1123999999998	0.0781077811843715	79	diastole	3	B	500	diastole
975.0541000000001	0.0781077811843715	79	diastole	4	B	500	diastole
976.0838000000001	0.0781077811843715	79	diastole	5	B	500	diastole
977.1157000000001	0.0781077811843715	79	diastole	6	B	500	diastole
977.9556	0.0781077811843715	79	diastole	7	B	500	diastole
978.9671000000001	0.0781077811843715	79	diastole	8	B	500	diastole
979.9370999999999	0.0781077811843715	79	diastole	9	B	500	diastole
980.8938999999998	0.0781077811843715	79	diastole	10	B	500	diastole
981.8338999999999	0.0781077811843715	79	diastole	11	B	500	diastole
984.5824999999998	0.1062733634025789	80	diastole	1	B	500	diastole
985.3059999999998	0.1062733634025789	80	diastole	2	B	500	diastole
986.0211000000002	0.1062733634025789	80	diastole	3	B	500	diastole
986.7610999999999	0.1062733634025789	80	diastole	4	B	500	diastole
987.4711999999997	0.1062733634025789	80	diastole	5	B	500	diastole
988.2389000000001	0.1062733634025789	80	diastole	6	B	500	diastole
989.0193999999999	0.1062733634025789	80	diastole	7	B	500	diastole
989.7998999999998	0.1062733634025789	80	diastole	8	B	500	diastole
990.5804	0.1062733634025789	80	diastole	9	B	500	diastole
991.3918999999999	0.1062733634025789	80	diastole	10	B	500	diastole
992.1290999999999	0.1062733634025789	80	diastole	11	B	500	diastole
992.8882999999998	0.1062733634025789	80	diastole	12	B	500	diastole
995.2140999999999	0.0917900532658677	81	systole	1	B	500	systole
995.9541999999999	0.0917900532658677	81	systole	2	B	500	systole
996.7241999999999	0.0917900532658677	81	systole	3	B	500	systole
997.4941999999999	0.0917900532658677	81	systole	4	B	500	systole
998.2641999999998	0.0917900532658677	81	systole	5	B	500	systole
999.0044	0.0917900532658677	81	systole	6	B	500	systole
999.7445999999998	0.0917900532658677	81	systole	7	B	500	systole
1000.4442999999999	0.0917900532658677	81	systole	8	B	500	systole
1001.1445000000001	0.0917900532658677	81	systole	9	B	500	systole
1001.8246000000001	0.0917900532658677	81	systole	10	B	500	systole
1002.5062999999998	0.0917900532658677	81	systole	11	B	500	systole
1003.1773000000001	0.0917900532658677	81	systole	12	B	500	systole
1003.8596999999997	0.0917900532658677	81	systole	13	B	500	systole
1004.5597999999998	0.0917900532658677	81	systole	14	B	500	systole
1007.3812999999998	0.0875028484733775	82	systole	1	B	500	systole
1008.0930000000001	0.0875028484733775	82	systole	2	B	500	systole
1008.7713999999999	0.0875028484733775	82	systole	3	B	500	systole
1009.4313	0.0875028484733775	82	systole	4	B	500	systole
1010.0714	0.0875028484733775	82	systole	5	B	500	systole
1010.7549000000001	0.0875028484733775	82	systole	6	B	500	systole
1011.4446999999998	0.0875028484733775	82	systole	7	B	500	systole
1012.2207999999998	0.0875028484733775	82	systole	8	B	500	systole
1013.0519999999999	0.0875028484733775	82	systole	9	B	500	systole
1013.8821999999998	0.0875028484733775	82	systole	10	B	500	systole
1014.7360000000001	0.0875028484733775	82	systole	11	B	500	systole
1015.5555999999999	0.0875028484733775	82	systole	12	B	500	systole
1016.3783000000001	0.0875028484733775	82	systole	13	B	500	systole
1019.2868999999998	0.0968970564426854	83	systole	1	B	500	diastole
1019.9150999999999	0.0968970564426854	83	systole	2	B	500	diastole
1020.5548999999999	0.0968970564426854	83	systole	3	B	500	diastole
1021.1575	0.0968970564426854	83	systole	4	B	500	diastole
1021.7776000000001	0.0968970564426854	83	systole	5	B	500	diastole
1022.336	0.0968970564426854	83	systole	6	B	500	diastole
1023.1258999999998	0.0968970564426854	83	systole	7	B	500	diastole
1023.9156999999998	0.0968970564426854	83	systole	8	B	500	diastole
1024.7259000000001	0.0968970564426854	83	systole	9	B	500	diastole
1025.5856999999999	0.0968970564426854	83	systole	10	B	500	diastole
1026.4156999999998	0.0968970564426854	83	systole	11	B	500	diastole
1027.2241999999999	0.0968970564426854	83	systole	12	B	500	diastole
1027.9660000000001	0.0968970564426854	83	systole	13	B	500	diastole
1028.626	0.0968970564426854	83	systole	14	B	500	diastole
1031.5212	0.0837577995262108	84	systole	1	B	500	diastole
1032.1013	0.0837577995262108	84	systole	2	B	500	diastole
1032.6676	0.0837577995262108	84	systole	3	B	500	diastole
1033.2549000000001	0.0837577995262108	84	systole	4	B	500	diastole
1033.865	0.0837577995262108	84	systole	5	B	500	diastole
1034.575	0.0837577995262108	84	systole	6	B	500	diastole
1035.285	0.0837577995262108	84	systole	7	B	500	diastole
1036.035	0.0837577995262108	84	systole	8	B	500	diastole
1036.9551	0.0837577995262108	84	systole	9	B	500	diastole
1037.8432	0.0837577995262108	84	systole	10	B	500	diastole
1038.6732	0.0837577995262108	84	systole	11	B	500	diastole
1039.544	0.0837577995262108	84	systole	12	B	500	diastole
1040.3041	0.0837577995262108	84	systole	13	B	500	diastole
1043.651	0.0918799624196253	85	diastole	1	B	500	systole
1044.2175999999997	0.0918799624196253	85	diastole	2	B	500	systole
1044.7726	0.0918799624196253	85	diastole	3	B	500	systole
1045.3192000000001	0.0918799624196253	85	diastole	4	B	500	systole
1045.8641999999998	0.0918799624196253	85	diastole	5	B	500	systole
1046.3992	0.0918799624196253	85	diastole	6	B	500	systole
1046.9590999999998	0.0918799624196253	85	diastole	7	B	500	systole
1047.4759999999999	0.0918799624196253	85	diastole	8	B	500	systole
1048.0293	0.0918799624196253	85	diastole	9	B	500	systole
1048.8090999999997	0.0918799624196253	85	diastole	10	B	500	systole
1049.5692000000001	0.0918799624196253	85	diastole	11	B	500	systole
1050.3292	0.0918799624196253	85	diastole	12	B	500	systole
1051.1993	0.0918799624196253	85	diastole	13	B	500	systole
1052.1258999999998	0.0918799624196253	85	diastole	14	B	500	systole
1055.8875	0.0962439696886576	86	diastole	1	B	500	systole
1056.6375	0.0962439696886576	86	diastole	2	B	500	systole
1057.3875999999998	0.0962439696886576	86	diastole	3	B	500	systole
1058.0876	0.0962439696886576	86	diastole	4	B	500	systole
1058.771	0.0962439696886576	86	diastole	5	B	500	systole
1059.5676	0.0962439696886576	86	diastole	6	B	500	systole
1060.3475	0.0962439696886576	86	diastole	7	B	500	systole
1061.1872999999998	0.0962439696886576	86	diastole	8	B	500	systole
1062.3441999999998	0.0962439696886576	86	diastole	9	B	500	systole
1063.1689	0.0962439696886576	86	diastole	10	B	500	systole
1063.9277	0.0962439696886576	86	diastole	11	B	500	systole
1064.7180999999998	0.0962439696886576	86	diastole	12	B	500	systole
1068.001	0.1056115062674507	87	diastole	1	B	500	systole
1068.9311	0.1056115062674507	87	diastole	2	B	500	systole
1069.6915000000001	0.1056115062674507	87	diastole	3	B	500	systole
1070.5114999999998	0.1056115062674507	87	diastole	4	B	500	systole
1071.3313999999998	0.1056115062674507	87	diastole	5	B	500	systole
1072.3309000000002	0.1056115062674507	87	diastole	6	B	500	systole
1073.2175	0.1056115062674507	87	diastole	7	B	500	systole
1074.4875	0.1056115062674507	87	diastole	8	B	500	systole
1075.7074999999998	0.1056115062674507	87	diastole	9	B	500	systole
1076.6258999999998	0.1056115062674507	87	diastole	10	B	500	systole
1079.9923999999999	0.1143528812681324	88	diastole	1	B	500	diastole
1081.0723999999998	0.1143528812681324	88	diastole	2	B	500	diastole
1081.8275999999998	0.1143528812681324	88	diastole	3	B	500	diastole
1082.6674999999998	0.1143528812681324	88	diastole	4	B	500	diastole
1083.5073999999997	0.1143528812681324	88	diastole	5	B	500	diastole
1084.9488	0.1143528812681324	88	diastole	6	B	500	diastole
1085.5770999999997	0.1143528812681324	88	diastole	7	B	500	diastole
1086.9823	0.1143528812681324	88	diastole	8	B	500	diastole
1087.6591999999998	0.1143528812681324	88	diastole	9	B	500	diastole
1088.5193000000002	0.1143528812681324	88	diastole	10	B	500	diastole
1092.0633999999998	0.1118712750030681	89	systole	1	B	500	systole
1092.8335	0.1118712750030681	89	systole	2	B	500	systole
1093.6036000000001	0.1118712750030681	89	systole	3	B	500	systole
1094.3637	0.1118712750030681	89	systole	4	B	500	systole
1095.1236999999999	0.1118712750030681	89	systole	5	B	500	systole
1095.8837	0.1118712750030681	89	systole	6	B	500	systole
1096.5729	0.1118712750030681	89	systole	7	B	500	systole
1097.303	0.1118712750030681	89	systole	8	B	500	systole
1097.9387	0.1118712750030681	89	systole	9	B	500	systole
1098.5921	0.1118712750030681	89	systole	10	B	500	systole
1099.2921	0.1118712750030681	89	systole	11	B	500	systole
1099.9471	0.1118712750030681	89	systole	12	B	500	systole
1100.6254999999999	0.1118712750030681	89	systole	13	B	500	systole
1102.4776	0.0868716961122118	90	systole	1	B	500	systole
1103.1417	0.0868716961122118	90	systole	2	B	500	systole
1103.8117	0.0868716961122118	90	systole	3	B	500	systole
1104.4862	0.0868716961122118	90	systole	4	B	500	systole
1105.1663999999998	0.0868716961122118	90	systole	5	B	500	systole
1105.7929000000001	0.0868716961122118	90	systole	6	B	500	systole
1106.4428	0.0868716961122118	90	systole	7	B	500	systole
1107.0729	0.0868716961122118	90	systole	8	B	500	systole
1107.7029999999997	0.0868716961122118	90	systole	9	B	500	systole
1108.3329	0.0868716961122118	90	systole	10	B	500	systole
1108.9471	0.0868716961122118	90	systole	11	B	500	systole
1109.5395	0.0868716961122118	90	systole	12	B	500	systole
1110.1278	0.0868716961122118	90	systole	13	B	500	systole
1110.7278	0.0868716961122118	90	systole	14	B	500	systole
1111.322	0.0868716961122118	90	systole	15	B	500	systole
1111.9003	0.0868716961122118	90	systole	16	B	500	systole
1112.4903000000002	0.0868716961122118	90	systole	17	B	500	systole
1114.6951000000001	0.0743755167641211	91	systole	1	B	500	diastole
1115.2492	0.0743755167641211	91	systole	2	B	500	diastole
1115.7991	0.0743755167641211	91	systole	3	B	500	diastole
1116.3491000000001	0.0743755167641211	91	systole	4	B	500	diastole
1116.8774999999998	0.0743755167641211	91	systole	5	B	500	diastole
1117.4158999999997	0.0743755167641211	91	systole	6	B	500	diastole
1118.0058999999999	0.0743755167641211	91	systole	7	B	500	diastole
1118.5959999999998	0.0743755167641211	91	systole	8	B	500	diastole
1119.2857999999999	0.0743755167641211	91	systole	9	B	500	diastole
1120.4257999999998	0.0743755167641211	91	systole	10	B	500	diastole
1121.5658	0.0743755167641211	91	systole	11	B	500	diastole
1122.7058	0.0743755167641211	91	systole	12	B	500	diastole
1123.6537	0.0743755167641211	91	systole	13	B	500	diastole
1124.5840999999998	0.0743755167641211	91	systole	14	B	500	diastole
1127.3452999999997	0.1106553624267689	92	systole	1	B	500	systole
1128.1654	0.1106553624267689	92	systole	2	B	500	systole
1128.9136999999998	0.1106553624267689	92	systole	3	B	500	systole
1129.5786	0.1106553624267689	92	systole	4	B	500	systole
1130.2636	0.1106553624267689	92	systole	5	B	500	systole
1130.9502	0.1106553624267689	92	systole	6	B	500	systole
1131.6602999999998	0.1106553624267689	92	systole	7	B	500	systole
1132.3913	0.1106553624267689	92	systole	8	B	500	systole
1133.0997	0.1106553624267689	92	systole	9	B	500	systole
1133.8279	0.1106553624267689	92	systole	10	B	500	systole
1134.6380000000001	0.1106553624267689	92	systole	11	B	500	systole
1135.4079	0.1106553624267689	92	systole	12	B	500	systole
1136.1047999999998	0.1106553624267689	92	systole	13	B	500	systole
1136.8248	0.1106553624267689	92	systole	14	B	500	systole
1138.9842	0.0931214684678707	93	systole	1	B	500	systole
1139.6539	0.0931214684678707	93	systole	2	B	500	systole
1140.2823999999998	0.0931214684678707	93	systole	3	B	500	systole
1140.9225	0.0931214684678707	93	systole	4	B	500	systole
1141.5626999999997	0.0931214684678707	93	systole	5	B	500	systole
1142.2067	0.0931214684678707	93	systole	6	B	500	systole
1142.7975	0.0931214684678707	93	systole	7	B	500	systole
1143.4140999999997	0.0931214684678707	93	systole	8	B	500	systole
1144.1182000000001	0.0931214684678707	93	systole	9	B	500	systole
1144.8281	0.0931214684678707	93	systole	10	B	500	systole
1145.5480999999997	0.0931214684678707	93	systole	11	B	500	systole
1146.2782	0.0931214684678707	93	systole	12	B	500	systole
1146.9981999999998	0.0931214684678707	93	systole	13	B	500	systole
1147.7515	0.0931214684678707	93	systole	14	B	500	systole
1148.4172999999998	0.0931214684678707	93	systole	15	B	500	systole
1151.1058999999998	0.083125731209293	94	diastole	1	B	500	systole
1151.7059000000002	0.083125731209293	94	diastole	2	B	500	systole
1152.2627999999997	0.083125731209293	94	diastole	3	B	500	systole
1152.8760999999997	0.083125731209293	94	diastole	4	B	500	systole
1153.5060999999998	0.083125731209293	94	diastole	5	B	500	systole
1154.1379	0.083125731209293	94	diastole	6	B	500	systole
1154.7663999999997	0.083125731209293	94	diastole	7	B	500	systole
1155.4334000000001	0.083125731209293	94	diastole	8	B	500	systole
1156.0916999999997	0.083125731209293	94	diastole	9	B	500	systole
1156.7229	0.083125731209293	94	diastole	10	B	500	systole
1157.3529	0.083125731209293	94	diastole	11	B	500	systole
1157.9729999999997	0.083125731209293	94	diastole	12	B	500	systole
1158.6027000000001	0.083125731209293	94	diastole	13	B	500	systole
1159.2322000000001	0.083125731209293	94	diastole	14	B	500	systole
1159.8621999999998	0.083125731209293	94	diastole	15	B	500	systole
1163.5954	0.0799980802112259	95	systole	1	B	500	systole
1164.2868999999998	0.0799980802112259	95	systole	2	B	500	systole
1164.9669000000001	0.0799980802112259	95	systole	3	B	500	systole
1165.6469	0.0799980802112259	95	systole	4	B	500	systole
1166.3124	0.0799980802112259	95	systole	5	B	500	systole
1166.9524	0.0799980802112259	95	systole	6	B	500	systole
1167.5923999999998	0.0799980802112259	95	systole	7	B	500	systole
1168.2023000000002	0.0799980802112259	95	systole	8	B	500	systole
1168.7924	0.0799980802112259	95	systole	9	B	500	systole
1169.3708	0.0799980802112259	95	systole	10	B	500	systole
1169.8999999999999	0.0799980802112259	95	systole	11	B	500	systole
1170.47	0.0799980802112259	95	systole	12	B	500	systole
1171.0010999999997	0.0799980802112259	95	systole	13	B	500	systole
1171.5453999999997	0.0799980802112259	95	systole	14	B	500	systole
1172.0934	0.0799980802112259	95	systole	15	B	500	systole
1172.6733000000002	0.0799980802112259	95	systole	16	B	500	systole
1175.5507999999998	0.0718731000088155	96	diastole	1	B	500	systole
1176.5211000000002	0.0718731000088155	96	diastole	2	B	500	systole
1177.678	0.0718731000088155	96	diastole	3	B	500	systole
1178.5682	0.0718731000088155	96	diastole	4	B	500	systole
1179.8072999999997	0.0718731000088155	96	diastole	5	B	500	systole
1180.5673	0.0718731000088155	96	diastole	6	B	500	systole
1181.3274	0.0718731000088155	96	diastole	7	B	500	systole
1182.0676999999998	0.0718731000088155	96	diastole	8	B	500	systole
1182.7872999999997	0.0718731000088155	96	diastole	9	B	500	systole
1183.4026999999999	0.0718731000088155	96	diastole	10	B	500	systole
1183.9648	0.0718731000088155	96	diastole	11	B	500	systole
1184.6352	0.0718731000088155	96	diastole	12	B	500	systole
1187.4363	0.0818685757694765	97	diastole	1	B	500	diastole
1188.0557999999999	0.0818685757694765	97	diastole	2	B	500	diastole
1188.6759	0.0818685757694765	97	diastole	3	B	500	diastole
1189.2974000000002	0.0818685757694765	97	diastole	4	B	500	diastole
1189.9095	0.0818685757694765	97	diastole	5	B	500	diastole
1190.5294000000001	0.0818685757694765	97	diastole	6	B	500	diastole
1191.1044	0.0818685757694765	97	diastole	7	B	500	diastole
1191.7061	0.0818685757694765	97	diastole	8	B	500	diastole
1192.316	0.0818685757694765	97	diastole	9	B	500	diastole
1192.936	0.0818685757694765	97	diastole	10	B	500	diastole
1193.5559999999998	0.0818685757694765	97	diastole	11	B	500	diastole
1194.276	0.0818685757694765	97	diastole	12	B	500	diastole
1194.9660999999999	0.0818685757694765	97	diastole	13	B	500	diastole
1195.6561	0.0818685757694765	97	diastole	14	B	500	diastole
1196.3461999999997	0.0818685757694765	97	diastole	15	B	500	diastole
1199.6009999999999	0.0906227771483827	98	diastole	1	B	500	diastole
1200.3111000000001	0.0906227771483827	98	diastole	2	B	500	diastole
1201.0012	0.0906227771483827	98	diastole	3	B	500	diastole
1201.7027999999998	0.0906227771483827	98	diastole	4	B	500	diastole
1202.3927999999999	0.0906227771483827	98	diastole	5	B	500	diastole
1203.0828	0.0906227771483827	98	diastole	6	B	500	diastole
1203.7261	0.0906227771483827	98	diastole	7	B	500	diastole
1204.3594999999998	0.0906227771483827	98	diastole	8	B	500	diastole
1205.0095	0.0906227771483827	98	diastole	9	B	500	diastole
1205.6227999999999	0.0906227771483827	98	diastole	10	B	500	diastole
1206.2278	0.0906227771483827	98	diastole	11	B	500	diastole
1206.7978	0.0906227771483827	98	diastole	12	B	500	diastole
1207.4178	0.0906227771483827	98	diastole	13	B	500	diastole
1208.0395	0.0906227771483827	98	diastole	14	B	500	diastole
1208.7193999999997	0.0906227771483827	98	diastole	15	B	500	diastole
1212.3942	0.0843789788486901	99	diastole	1	B	500	systole
1213.0842	0.0843789788486901	99	diastole	2	B	500	systole
1213.8007999999998	0.0843789788486901	99	diastole	3	B	500	systole
1214.5006999999998	0.0843789788486901	99	diastole	4	B	500	systole
1215.1707	0.0843789788486901	99	diastole	5	B	500	systole
1215.8506	0.0843789788486901	99	diastole	6	B	500	systole
1216.5406999999998	0.0843789788486901	99	diastole	7	B	500	systole
1217.2025	0.0843789788486901	99	diastole	8	B	500	systole
1217.9023999999997	0.0843789788486901	99	diastole	9	B	500	systole
1218.6425000000002	0.0843789788486901	99	diastole	10	B	500	systole
1219.3826000000001	0.0843789788486901	99	diastole	11	B	500	systole
1220.1307	0.0843789788486901	99	diastole	12	B	500	systole
1220.8688999999997	0.0843789788486901	99	diastole	13	B	500	systole
1224.0266	0.0893705562339164	100	systole	1	B	500	systole
1224.7108999999998	0.0893705562339164	100	systole	2	B	500	systole
1225.3792	0.0893705562339164	100	systole	3	B	500	systole
1226.0590999999997	0.0893705562339164	100	systole	4	B	500	systole
1226.7232999999999	0.0893705562339164	100	systole	5	B	500	systole
1227.3933	0.0893705562339164	100	systole	6	B	500	systole
1228.0674000000001	0.0893705562339164	100	systole	7	B	500	systole
1228.7474	0.0893705562339164	100	systole	8	B	500	systole
1229.4772999999998	0.0893705562339164	100	systole	9	B	500	systole
1230.2072999999998	0.0893705562339164	100	systole	10	B	500	systole
1230.9977000000001	0.0893705562339164	100	systole	11	B	500	systole
1231.7881	0.0893705562339164	100	systole	12	B	500	systole
1232.6114999999998	0.0893705562339164	100	systole	13	B	500	systole
1233.3646	0.0893705562339164	100	systole	14	B	500	systole
