onset	duration	trial_num	trial_type	tone_num	tone_type	frequency	response
164.842	0.0981294047669507	1	diastole	1	A	1578.5670027440333	coherent
165.0361	0.0981294047669507	1	diastole	2	B	500.0	coherent
165.2297	0.0981294047669507	1	diastole	3	A	1578.5670027440333	coherent
165.6556	0.0981294047669507	1	diastole	4	A	1578.5670027440333	coherent
165.8521	0.0981294047669507	1	diastole	5	B	500.0	coherent
166.0482	0.0981294047669507	1	diastole	6	A	1578.5670027440333	coherent
166.4556	0.0981294047669507	1	diastole	7	A	1578.5670027440333	coherent
166.6521	0.0981294047669507	1	diastole	8	B	500.0	coherent
166.8482	0.0981294047669507	1	diastole	9	A	1578.5670027440333	coherent
167.2354	0.0981294047669507	1	diastole	10	A	1578.5670027440333	coherent
167.4319	0.0981294047669507	1	diastole	11	B	500.0	coherent
167.628	0.0981294047669507	1	diastole	12	A	1578.5670027440333	coherent
168.0554	0.0981294047669507	1	diastole	13	A	1578.5670027440333	coherent
168.2518	0.0981294047669507	1	diastole	14	B	500.0	coherent
168.4479	0.0981294047669507	1	diastole	15	A	1578.5670027440333	coherent
168.8754	0.0981294047669507	1	diastole	16	A	1578.5670027440333	coherent
169.0718	0.0981294047669507	1	diastole	17	B	500.0	coherent
169.2679	0.0981294047669507	1	diastole	18	A	1578.5670027440333	coherent
169.6725	0.0981294047669507	1	diastole	19	A	1578.5670027440333	coherent
169.8701	0.0981294047669507	1	diastole	20	B	500.0	coherent
170.0675	0.0981294047669507	1	diastole	21	A	1578.5670027440333	coherent
170.4725	0.0981294047669507	1	diastole	22	A	1578.5670027440333	coherent
170.6701	0.0981294047669507	1	diastole	23	B	500.0	coherent
170.8675	0.0981294047669507	1	diastole	24	A	1578.5670027440333	coherent
171.2725	0.0981294047669507	1	diastole	25	A	1578.5670027440333	coherent
171.4701	0.0981294047669507	1	diastole	26	B	500.0	coherent
171.6675	0.0981294047669507	1	diastole	27	A	1578.5670027440333	coherent
172.0696	0.0981294047669507	1	diastole	28	A	1578.5670027440333	coherent
172.2686	0.0981294047669507	1	diastole	29	B	500.0	coherent
172.4672	0.0981294047669507	1	diastole	30	A	1578.5670027440333	coherent
172.8397	0.0981294047669507	1	diastole	31	A	1578.5670027440333	coherent
173.0386	0.0981294047669507	1	diastole	32	B	500.0	coherent
173.2372	0.0981294047669507	1	diastole	33	A	1578.5670027440333	coherent
173.6097	0.0981294047669507	1	diastole	34	A	1578.5670027440333	coherent
173.8086	0.0981294047669507	1	diastole	35	B	500.0	coherent
174.0072	0.0981294047669507	1	diastole	36	A	1578.5670027440333	coherent
186.0347	0.1018885769881308	2	systole	1	A	1578.5670027440333	coherent
186.2399	0.1018885769881308	2	systole	2	B	500.0	coherent
186.4447	0.1018885769881308	2	systole	3	A	1578.5670027440333	coherent
186.8554	0.1018885769881308	2	systole	4	A	1578.5670027440333	coherent
187.0606	0.1018885769881308	2	systole	5	B	500.0	coherent
187.2655	0.1018885769881308	2	systole	6	A	1578.5670027440333	coherent
187.6654	0.1018885769881308	2	systole	7	A	1578.5670027440333	coherent
187.8706	0.1018885769881308	2	systole	8	B	500.0	coherent
188.0754	0.1018885769881308	2	systole	9	A	1578.5670027440333	coherent
188.4753	0.1018885769881308	2	systole	10	A	1578.5670027440333	coherent
188.6805	0.1018885769881308	2	systole	11	B	500.0	coherent
188.8854	0.1018885769881308	2	systole	12	A	1578.5670027440333	coherent
189.3053	0.1018885769881308	2	systole	13	A	1578.5670027440333	coherent
189.5105	0.1018885769881308	2	systole	14	B	500.0	coherent
189.7154	0.1018885769881308	2	systole	15	A	1578.5670027440333	coherent
190.1453	0.1018885769881308	2	systole	16	A	1578.5670027440333	coherent
190.3505	0.1018885769881308	2	systole	17	B	500.0	coherent
190.5554	0.1018885769881308	2	systole	18	A	1578.5670027440333	coherent
190.9453	0.1018885769881308	2	systole	19	A	1578.5670027440333	coherent
191.1505	0.1018885769881308	2	systole	20	B	500.0	coherent
191.3554	0.1018885769881308	2	systole	21	A	1578.5670027440333	coherent
191.7453	0.1018885769881308	2	systole	22	A	1578.5670027440333	coherent
191.9505	0.1018885769881308	2	systole	23	B	500.0	coherent
192.1554	0.1018885769881308	2	systole	24	A	1578.5670027440333	coherent
192.5793	0.1018885769881308	2	systole	25	A	1578.5670027440333	coherent
192.7858	0.1018885769881308	2	systole	26	B	500.0	coherent
192.9919	0.1018885769881308	2	systole	27	A	1578.5670027440333	coherent
193.4239	0.1018885769881308	2	systole	28	A	1578.5670027440333	coherent
193.6315	0.1018885769881308	2	systole	29	B	500.0	coherent
193.8388	0.1018885769881308	2	systole	30	A	1578.5670027440333	coherent
194.2439	0.1018885769881308	2	systole	31	A	1578.5670027440333	coherent
194.4515	0.1018885769881308	2	systole	32	B	500.0	coherent
194.6588	0.1018885769881308	2	systole	33	A	1578.5670027440333	coherent
195.0593	0.1018885769881308	2	systole	34	A	1578.5670027440333	coherent
195.2657	0.1018885769881308	2	systole	35	B	500.0	coherent
195.4717	0.1018885769881308	2	systole	36	A	1578.5670027440333	coherent
200.3481	0.1018782439641654	3	diastole	1	A	2180.0224995339627	coherent
200.5519	0.1018782439641654	3	diastole	2	B	500.0	coherent
200.7556	0.1018782439641654	3	diastole	3	A	2180.0224995339627	coherent
201.151	0.1018782439641654	3	diastole	4	A	2180.0224995339627	coherent
201.3535	0.1018782439641654	3	diastole	5	B	500.0	coherent
201.556	0.1018782439641654	3	diastole	6	A	2180.0224995339627	coherent
201.961	0.1018782439641654	3	diastole	7	A	2180.0224995339627	coherent
202.1635	0.1018782439641654	3	diastole	8	B	500.0	coherent
202.366	0.1018782439641654	3	diastole	9	A	2180.0224995339627	coherent
202.8281	0.1018782439641654	3	diastole	10	A	2180.0224995339627	coherent
203.0319	0.1018782439641654	3	diastole	11	B	500.0	coherent
203.2356	0.1018782439641654	3	diastole	12	A	2180.0224995339627	coherent
203.6751	0.1018782439641654	3	diastole	13	A	2180.0224995339627	coherent
203.8801	0.1018782439641654	3	diastole	14	B	500.0	coherent
204.0851	0.1018782439641654	3	diastole	15	A	2180.0224995339627	coherent
204.465	0.1018782439641654	3	diastole	16	A	2180.0224995339627	coherent
204.6701	0.1018782439641654	3	diastole	17	B	500.0	coherent
204.8751	0.1018782439641654	3	diastole	18	A	2180.0224995339627	coherent
205.2921	0.1018782439641654	3	diastole	19	A	2180.0224995339627	coherent
205.4984	0.1018782439641654	3	diastole	20	B	500.0	coherent
205.7046	0.1018782439641654	3	diastole	21	A	2180.0224995339627	coherent
206.1121	0.1018782439641654	3	diastole	22	A	2180.0224995339627	coherent
206.3183	0.1018782439641654	3	diastole	23	B	500.0	coherent
206.5246	0.1018782439641654	3	diastole	24	A	2180.0224995339627	coherent
206.9663	0.1018782439641654	3	diastole	25	A	2180.0224995339627	coherent
207.175	0.1018782439641654	3	diastole	26	B	500.0	coherent
207.3837	0.1018782439641654	3	diastole	27	A	2180.0224995339627	coherent
207.8063	0.1018782439641654	3	diastole	28	A	2180.0224995339627	coherent
208.0151	0.1018782439641654	3	diastole	29	B	500.0	coherent
208.2238	0.1018782439641654	3	diastole	30	A	2180.0224995339627	coherent
208.5651	0.1018782439641654	3	diastole	31	A	2180.0224995339627	coherent
208.7701	0.1018782439641654	3	diastole	32	B	500.0	coherent
208.9751	0.1018782439641654	3	diastole	33	A	2180.0224995339627	coherent
209.3451	0.1018782439641654	3	diastole	34	A	2180.0224995339627	coherent
209.5501	0.1018782439641654	3	diastole	35	B	500.0	coherent
209.7551	0.1018782439641654	3	diastole	36	A	2180.0224995339627	coherent
213.1467	0.1000001773936674	4	diastole	1	A	1987.9452401467304	coherent
213.3467	0.1000001773936674	4	diastole	2	B	500.0	coherent
213.5467	0.1000001773936674	4	diastole	3	A	1987.9452401467304	coherent
213.9571	0.1000001773936674	4	diastole	4	A	1987.9452401467304	coherent
214.157	0.1000001773936674	4	diastole	5	B	500.0	coherent
214.3571	0.1000001773936674	4	diastole	6	A	1987.9452401467304	coherent
214.7675	0.1000001773936674	4	diastole	7	A	1987.9452401467304	coherent
214.9674	0.1000001773936674	4	diastole	8	B	500.0	coherent
215.1675	0.1000001773936674	4	diastole	9	A	1987.9452401467304	coherent
215.5771	0.1000001773936674	4	diastole	10	A	1987.9452401467304	coherent
215.777	0.1000001773936674	4	diastole	11	B	500.0	coherent
215.9771	0.1000001773936674	4	diastole	12	A	1987.9452401467304	coherent
216.4075	0.1000001773936674	4	diastole	13	A	1987.9452401467304	coherent
216.6074	0.1000001773936674	4	diastole	14	B	500.0	coherent
216.8075	0.1000001773936674	4	diastole	15	A	1987.9452401467304	coherent
217.2379	0.1000001773936674	4	diastole	16	A	1987.9452401467304	coherent
217.4378	0.1000001773936674	4	diastole	17	B	500.0	coherent
217.6379	0.1000001773936674	4	diastole	18	A	1987.9452401467304	coherent
218.0677	0.1000001773936674	4	diastole	19	A	1987.9452401467304	coherent
218.2677	0.1000001773936674	4	diastole	20	B	500.0	coherent
218.4677	0.1000001773936674	4	diastole	21	A	1987.9452401467304	coherent
218.8976	0.1000001773936674	4	diastole	22	A	1987.9452401467304	coherent
219.0975	0.1000001773936674	4	diastole	23	B	500.0	coherent
219.2976	0.1000001773936674	4	diastole	24	A	1987.9452401467304	coherent
219.6875	0.1000001773936674	4	diastole	25	A	1987.9452401467304	coherent
219.8874	0.1000001773936674	4	diastole	26	B	500.0	coherent
220.0875	0.1000001773936674	4	diastole	27	A	1987.9452401467304	coherent
220.5114	0.1000001773936674	4	diastole	28	A	1987.9452401467304	coherent
220.7138	0.1000001773936674	4	diastole	29	B	500.0	coherent
220.9163	0.1000001773936674	4	diastole	30	A	1987.9452401467304	coherent
221.3115	0.1000001773936674	4	diastole	31	A	1987.9452401467304	coherent
221.5138	0.1000001773936674	4	diastole	32	B	500.0	coherent
221.7163	0.1000001773936674	4	diastole	33	A	1987.9452401467304	coherent
224.454	0.1012518001953139	5	diastole	1	A	2942.014383864825	coherent
224.6553	0.1012518001953139	5	diastole	2	B	500.0	coherent
224.8565	0.1012518001953139	5	diastole	3	A	2942.014383864825	coherent
225.2298	0.1012518001953139	5	diastole	4	A	2942.014383864825	coherent
225.4286	0.1012518001953139	5	diastole	5	B	500.0	coherent
225.6274	0.1012518001953139	5	diastole	6	A	2942.014383864825	coherent
226.0199	0.1012518001953139	5	diastole	7	A	2942.014383864825	coherent
226.2186	0.1012518001953139	5	diastole	8	B	500.0	coherent
226.4174	0.1012518001953139	5	diastole	9	A	2942.014383864825	coherent
226.8611	0.1012518001953139	5	diastole	10	A	2942.014383864825	coherent
227.0636	0.1012518001953139	5	diastole	11	B	500.0	coherent
227.2661	0.1012518001953139	5	diastole	12	A	2942.014383864825	coherent
227.634	0.1012518001953139	5	diastole	13	A	2942.014383864825	coherent
227.8353	0.1012518001953139	5	diastole	14	B	500.0	coherent
228.0365	0.1012518001953139	5	diastole	15	A	2942.014383864825	coherent
228.454	0.1012518001953139	5	diastole	16	A	2942.014383864825	coherent
228.6553	0.1012518001953139	5	diastole	17	B	500.0	coherent
228.8565	0.1012518001953139	5	diastole	18	A	2942.014383864825	coherent
229.3181	0.1012518001953139	5	diastole	19	A	2942.014383864825	coherent
229.5218	0.1012518001953139	5	diastole	20	B	500.0	coherent
229.7256	0.1012518001953139	5	diastole	21	A	2942.014383864825	coherent
230.168	0.1012518001953139	5	diastole	22	A	2942.014383864825	coherent
230.3718	0.1012518001953139	5	diastole	23	B	500.0	coherent
230.5755	0.1012518001953139	5	diastole	24	A	2942.014383864825	coherent
230.9881	0.1012518001953139	5	diastole	25	A	2942.014383864825	coherent
231.1918	0.1012518001953139	5	diastole	26	B	500.0	coherent
231.3956	0.1012518001953139	5	diastole	27	A	2942.014383864825	coherent
231.7739	0.1012518001953139	5	diastole	28	A	2942.014383864825	coherent
231.9752	0.1012518001953139	5	diastole	29	B	500.0	coherent
232.1764	0.1012518001953139	5	diastole	30	A	2942.014383864825	coherent
232.5438	0.1012518001953139	5	diastole	31	A	2942.014383864825	coherent
232.7451	0.1012518001953139	5	diastole	32	B	500.0	coherent
232.9464	0.1012518001953139	5	diastole	33	A	2942.014383864825	coherent
233.361	0.1012518001953139	5	diastole	34	A	2942.014383864825	coherent
233.5635	0.1012518001953139	5	diastole	35	B	500.0	coherent
233.766	0.1012518001953139	5	diastole	36	A	2942.014383864825	coherent
236.2204	0.1025047285947948	6	systole	1	A	2180.0224995339627	coherent
236.4242	0.1025047285947948	6	systole	2	B	500.0	coherent
236.6279	0.1025047285947948	6	systole	3	A	2180.0224995339627	coherent
237.0202	0.1025047285947948	6	systole	4	A	2180.0224995339627	coherent
237.224	0.1025047285947948	6	systole	5	B	500.0	coherent
237.4277	0.1025047285947948	6	systole	6	A	2180.0224995339627	coherent
237.8107	0.1025047285947948	6	systole	7	A	2180.0224995339627	coherent
238.012	0.1025047285947948	6	systole	8	B	500.0	coherent
238.2132	0.1025047285947948	6	systole	9	A	2180.0224995339627	coherent
238.5906	0.1025047285947948	6	systole	10	A	2180.0224995339627	coherent
238.7918	0.1025047285947948	6	systole	11	B	500.0	coherent
238.993	0.1025047285947948	6	systole	12	A	2180.0224995339627	coherent
239.3806	0.1025047285947948	6	systole	13	A	2180.0224995339627	coherent
239.5819	0.1025047285947948	6	systole	14	B	500.0	coherent
239.783	0.1025047285947948	6	systole	15	A	2180.0224995339627	coherent
240.1907	0.1025047285947948	6	systole	16	A	2180.0224995339627	coherent
240.3919	0.1025047285947948	6	systole	17	B	500.0	coherent
240.5931	0.1025047285947948	6	systole	18	A	2180.0224995339627	coherent
241.0007	0.1025047285947948	6	systole	19	A	2180.0224995339627	coherent
241.2019	0.1025047285947948	6	systole	20	B	500.0	coherent
241.4031	0.1025047285947948	6	systole	21	A	2180.0224995339627	coherent
241.8107	0.1025047285947948	6	systole	22	A	2180.0224995339627	coherent
242.012	0.1025047285947948	6	systole	23	B	500.0	coherent
242.2132	0.1025047285947948	6	systole	24	A	2180.0224995339627	coherent
242.616	0.1025047285947948	6	systole	25	A	2180.0224995339627	coherent
242.816	0.1025047285947948	6	systole	26	B	500.0	coherent
243.0159	0.1025047285947948	6	systole	27	A	2180.0224995339627	coherent
243.426	0.1025047285947948	6	systole	28	A	2180.0224995339627	coherent
243.626	0.1025047285947948	6	systole	29	B	500.0	coherent
243.8259	0.1025047285947948	6	systole	30	A	2180.0224995339627	coherent
244.1807	0.1025047285947948	6	systole	31	A	2180.0224995339627	coherent
244.382	0.1025047285947948	6	systole	32	B	500.0	coherent
244.5832	0.1025047285947948	6	systole	33	A	2180.0224995339627	coherent
244.9308	0.1025047285947948	6	systole	34	A	2180.0224995339627	coherent
245.132	0.1025047285947948	6	systole	35	B	500.0	coherent
245.3332	0.1025047285947948	6	systole	36	A	2180.0224995339627	coherent
249.006	0.101253893750254	7	systole	1	A	1987.9452401467304	coherent
249.2084	0.101253893750254	7	systole	2	B	500.0	coherent
249.411	0.101253893750254	7	systole	3	A	1987.9452401467304	coherent
249.8258	0.101253893750254	7	systole	4	A	1987.9452401467304	coherent
250.0283	0.101253893750254	7	systole	5	B	500.0	coherent
250.2308	0.101253893750254	7	systole	6	A	1987.9452401467304	coherent
250.6846	0.101253893750254	7	systole	7	A	1987.9452401467304	coherent
250.8895	0.101253893750254	7	systole	8	B	500.0	coherent
251.0945	0.101253893750254	7	systole	9	A	1987.9452401467304	coherent
251.5341	0.101253893750254	7	systole	10	A	1987.9452401467304	coherent
251.7391	0.101253893750254	7	systole	11	B	500.0	coherent
251.9441	0.101253893750254	7	systole	12	A	1987.9452401467304	coherent
252.3642	0.101253893750254	7	systole	13	A	1987.9452401467304	coherent
252.5691	0.101253893750254	7	systole	14	B	500.0	coherent
252.7741	0.101253893750254	7	systole	15	A	1987.9452401467304	coherent
253.1042	0.101253893750254	7	systole	16	A	1987.9452401467304	coherent
253.3091	0.101253893750254	7	systole	17	B	500.0	coherent
253.5142	0.101253893750254	7	systole	18	A	1987.9452401467304	coherent
253.8442	0.101253893750254	7	systole	19	A	1987.9452401467304	coherent
254.0491	0.101253893750254	7	systole	20	B	500.0	coherent
254.2541	0.101253893750254	7	systole	21	A	1987.9452401467304	coherent
254.6043	0.101253893750254	7	systole	22	A	1987.9452401467304	coherent
254.8092	0.101253893750254	7	systole	23	B	500.0	coherent
255.0142	0.101253893750254	7	systole	24	A	1987.9452401467304	coherent
255.3643	0.101253893750254	7	systole	25	A	1987.9452401467304	coherent
255.5693	0.101253893750254	7	systole	26	B	500.0	coherent
255.7743	0.101253893750254	7	systole	27	A	1987.9452401467304	coherent
256.1643	0.101253893750254	7	systole	28	A	1987.9452401467304	coherent
256.3692	0.101253893750254	7	systole	29	B	500.0	coherent
256.5743	0.101253893750254	7	systole	30	A	1987.9452401467304	coherent
256.9992	0.101253893750254	7	systole	31	A	1987.9452401467304	coherent
257.2054	0.101253893750254	7	systole	32	B	500.0	coherent
257.4117	0.101253893750254	7	systole	33	A	1987.9452401467304	coherent
257.8489	0.101253893750254	7	systole	34	A	1987.9452401467304	coherent
258.0551	0.101253893750254	7	systole	35	B	500.0	coherent
258.2614	0.101253893750254	7	systole	36	A	1987.9452401467304	coherent
261.2846	0.1031526039005257	8	systole	1	A	2942.014383864825	coherent
261.4922	0.1031526039005257	8	systole	2	B	500.0	coherent
261.6997	0.1031526039005257	8	systole	3	A	2942.014383864825	coherent
262.1345	0.1031526039005257	8	systole	4	A	2942.014383864825	coherent
262.3421	0.1031526039005257	8	systole	5	B	500.0	coherent
262.5496	0.1031526039005257	8	systole	6	A	2942.014383864825	coherent
262.9844	0.1031526039005257	8	systole	7	A	2942.014383864825	coherent
263.1919	0.1031526039005257	8	systole	8	B	500.0	coherent
263.3995	0.1031526039005257	8	systole	9	A	2942.014383864825	coherent
263.8343	0.1031526039005257	8	systole	10	A	2942.014383864825	coherent
264.0418	0.1031526039005257	8	systole	11	B	500.0	coherent
264.2494	0.1031526039005257	8	systole	12	A	2942.014383864825	coherent
264.6212	0.1031526039005257	8	systole	13	A	2942.014383864825	coherent
264.8253	0.1031526039005257	8	systole	14	B	500.0	coherent
265.0293	0.1031526039005257	8	systole	15	A	2942.014383864825	coherent
265.4212	0.1031526039005257	8	systole	16	A	2942.014383864825	coherent
265.6253	0.1031526039005257	8	systole	17	B	500.0	coherent
265.8292	0.1031526039005257	8	systole	18	A	2942.014383864825	coherent
266.2049	0.1031526039005257	8	systole	19	A	2942.014383864825	coherent
266.4072	0.1031526039005257	8	systole	20	B	500.0	coherent
266.6095	0.1031526039005257	8	systole	21	A	2942.014383864825	coherent
266.9949	0.1031526039005257	8	systole	22	A	2942.014383864825	coherent
267.1972	0.1031526039005257	8	systole	23	B	500.0	coherent
267.3995	0.1031526039005257	8	systole	24	A	2942.014383864825	coherent
267.8557	0.1031526039005257	8	systole	25	A	2942.014383864825	coherent
268.0581	0.1031526039005257	8	systole	26	B	500.0	coherent
268.2606	0.1031526039005257	8	systole	27	A	2942.014383864825	coherent
268.7257	0.1031526039005257	8	systole	28	A	2942.014383864825	coherent
268.9282	0.1031526039005257	8	systole	29	B	500.0	coherent
269.1307	0.1031526039005257	8	systole	30	A	2942.014383864825	coherent
269.5957	0.1031526039005257	8	systole	31	A	2942.014383864825	coherent
269.7982	0.1031526039005257	8	systole	32	B	500.0	coherent
270.0007	0.1031526039005257	8	systole	33	A	2942.014383864825	coherent
270.4656	0.1031526039005257	8	systole	34	A	2942.014383864825	coherent
270.6681	0.1031526039005257	8	systole	35	B	500.0	coherent
270.8706	0.1031526039005257	8	systole	36	A	2942.014383864825	coherent
276.381	0.1087422010605223	9	systole	1	A	2446.423693900757	coherent
276.5986	0.1087422010605223	9	systole	2	B	500.0	coherent
276.8159	0.1087422010605223	9	systole	3	A	2446.423693900757	coherent
277.1693	0.1087422010605223	9	systole	4	A	2446.423693900757	coherent
277.387	0.1087422010605223	9	systole	5	B	500.0	coherent
277.6043	0.1087422010605223	9	systole	6	A	2446.423693900757	coherent
277.9948	0.1087422010605223	9	systole	7	A	2446.423693900757	coherent
278.2112	0.1087422010605223	9	systole	8	B	500.0	coherent
278.4273	0.1087422010605223	9	systole	9	A	2446.423693900757	coherent
278.8503	0.1087422010605223	9	systole	10	A	2446.423693900757	coherent
279.0654	0.1087422010605223	9	systole	11	B	500.0	coherent
279.2803	0.1087422010605223	9	systole	12	A	2446.423693900757	coherent
279.7103	0.1087422010605223	9	systole	13	A	2446.423693900757	coherent
279.9255	0.1087422010605223	9	systole	14	B	500.0	coherent
280.1403	0.1087422010605223	9	systole	15	A	2446.423693900757	coherent
280.5128	0.1087422010605223	9	systole	16	A	2446.423693900757	coherent
280.7205	0.1087422010605223	9	systole	17	B	500.0	coherent
280.9278	0.1087422010605223	9	systole	18	A	2446.423693900757	coherent
281.3428	0.1087422010605223	9	systole	19	A	2446.423693900757	coherent
281.5504	0.1087422010605223	9	systole	20	B	500.0	coherent
281.7578	0.1087422010605223	9	systole	21	A	2446.423693900757	coherent
282.1727	0.1087422010605223	9	systole	22	A	2446.423693900757	coherent
282.3804	0.1087422010605223	9	systole	23	B	500.0	coherent
282.5877	0.1087422010605223	9	systole	24	A	2446.423693900757	coherent
282.9726	0.1087422010605223	9	systole	25	A	2446.423693900757	coherent
283.1802	0.1087422010605223	9	systole	26	B	500.0	coherent
283.3876	0.1087422010605223	9	systole	27	A	2446.423693900757	coherent
283.7725	0.1087422010605223	9	systole	28	A	2446.423693900757	coherent
283.9802	0.1087422010605223	9	systole	29	B	500.0	coherent
284.1875	0.1087422010605223	9	systole	30	A	2446.423693900757	coherent
284.6225	0.1087422010605223	9	systole	31	A	2446.423693900757	coherent
284.8302	0.1087422010605223	9	systole	32	B	500.0	coherent
285.0375	0.1087422010605223	9	systole	33	A	2446.423693900757	coherent
297.3071	0.1068534569349139	10	systole	1	A	3538.000656405778	coherent
297.521	0.1068534569349139	10	systole	2	B	500.0	coherent
297.7345	0.1068534569349139	10	systole	3	A	3538.000656405778	coherent
298.1715	0.1068534569349139	10	systole	4	A	3538.000656405778	coherent
298.3866	0.1068534569349139	10	systole	5	B	500.0	coherent
298.6013	0.1068534569349139	10	systole	6	A	3538.000656405778	coherent
299.0069	0.1068534569349139	10	systole	7	A	3538.000656405778	coherent
299.2208	0.1068534569349139	10	systole	8	B	500.0	coherent
299.4344	0.1068534569349139	10	systole	9	A	3538.000656405778	coherent
299.8469	0.1068534569349139	10	systole	10	A	3538.000656405778	coherent
300.0608	0.1068534569349139	10	systole	11	B	500.0	coherent
300.2743	0.1068534569349139	10	systole	12	A	3538.000656405778	coherent
300.6578	0.1068534569349139	10	systole	13	A	3538.000656405778	coherent
300.8692	0.1068534569349139	10	systole	14	B	500.0	coherent
301.0803	0.1068534569349139	10	systole	15	A	3538.000656405778	coherent
301.5078	0.1068534569349139	10	systole	16	A	3538.000656405778	coherent
301.7192	0.1068534569349139	10	systole	17	B	500.0	coherent
301.9303	0.1068534569349139	10	systole	18	A	3538.000656405778	coherent
302.3085	0.1068534569349139	10	systole	19	A	3538.000656405778	coherent
302.5174	0.1068534569349139	10	systole	20	B	500.0	coherent
302.7259	0.1068534569349139	10	systole	21	A	3538.000656405778	coherent
303.1185	0.1068534569349139	10	systole	22	A	3538.000656405778	coherent
303.3274	0.1068534569349139	10	systole	23	B	500.0	coherent
303.5358	0.1068534569349139	10	systole	24	A	3538.000656405778	coherent
303.9541	0.1068534569349139	10	systole	25	A	3538.000656405778	coherent
304.1618	0.1068534569349139	10	systole	26	B	500.0	coherent
304.3691	0.1068534569349139	10	systole	27	A	3538.000656405778	coherent
304.7942	0.1068534569349139	10	systole	28	A	3538.000656405778	coherent
305.0019	0.1068534569349139	10	systole	29	B	500.0	coherent
305.2092	0.1068534569349139	10	systole	30	A	3538.000656405778	coherent
305.6634	0.1068534569349139	10	systole	31	A	3538.000656405778	coherent
305.8736	0.1068534569349139	10	systole	32	B	500.0	coherent
306.0834	0.1068534569349139	10	systole	33	A	3538.000656405778	coherent
309.3763	0.1043790674302727	11	diastole	1	A	2446.423693900757	coherent
309.5852	0.1043790674302727	11	diastole	2	B	500.0	coherent
309.7938	0.1043790674302727	11	diastole	3	A	2446.423693900757	coherent
310.1621	0.1043790674302727	11	diastole	4	A	2446.423693900757	coherent
310.3685	0.1043790674302727	11	diastole	5	B	500.0	coherent
310.5746	0.1043790674302727	11	diastole	6	A	2446.423693900757	coherent
310.9821	0.1043790674302727	11	diastole	7	A	2446.423693900757	coherent
311.1885	0.1043790674302727	11	diastole	8	B	500.0	coherent
311.3946	0.1043790674302727	11	diastole	9	A	2446.423693900757	coherent
311.8021	0.1043790674302727	11	diastole	10	A	2446.423693900757	coherent
312.0085	0.1043790674302727	11	diastole	11	B	500.0	coherent
312.2146	0.1043790674302727	11	diastole	12	A	2446.423693900757	coherent
312.6121	0.1043790674302727	11	diastole	13	A	2446.423693900757	coherent
312.8185	0.1043790674302727	11	diastole	14	B	500.0	coherent
313.0246	0.1043790674302727	11	diastole	15	A	2446.423693900757	coherent
313.422	0.1043790674302727	11	diastole	16	A	2446.423693900757	coherent
313.6284	0.1043790674302727	11	diastole	17	B	500.0	coherent
313.8346	0.1043790674302727	11	diastole	18	A	2446.423693900757	coherent
314.232	0.1043790674302727	11	diastole	19	A	2446.423693900757	coherent
314.4384	0.1043790674302727	11	diastole	20	B	500.0	coherent
314.6445	0.1043790674302727	11	diastole	21	A	2446.423693900757	coherent
315.0448	0.1043790674302727	11	diastole	22	A	2446.423693900757	coherent
315.25	0.1043790674302727	11	diastole	23	B	500.0	coherent
315.4548	0.1043790674302727	11	diastole	24	A	2446.423693900757	coherent
315.8377	0.1043790674302727	11	diastole	25	A	2446.423693900757	coherent
316.0415	0.1043790674302727	11	diastole	26	B	500.0	coherent
316.2452	0.1043790674302727	11	diastole	27	A	2446.423693900757	coherent
316.6039	0.1043790674302727	11	diastole	28	A	2446.423693900757	coherent
316.8053	0.1043790674302727	11	diastole	29	B	500.0	coherent
317.0064	0.1043790674302727	11	diastole	30	A	2446.423693900757	coherent
317.3842	0.1043790674302727	11	diastole	31	A	2446.423693900757	coherent
317.5856	0.1043790674302727	11	diastole	32	B	500.0	coherent
317.7867	0.1043790674302727	11	diastole	33	A	2446.423693900757	coherent
318.2413	0.1043790674302727	11	diastole	34	A	2446.423693900757	coherent
318.4439	0.1043790674302727	11	diastole	35	B	500.0	coherent
318.6462	0.1043790674302727	11	diastole	36	A	2446.423693900757	coherent
322.0297	0.1018747812486253	12	systole	1	A	2942.014383864825	coherent
322.2359	0.1018747812486253	12	systole	2	B	500.0	coherent
322.4421	0.1018747812486253	12	systole	3	A	2942.014383864825	coherent
322.89	0.1018747812486253	12	systole	4	A	2942.014383864825	coherent
323.0963	0.1018747812486253	12	systole	5	B	500.0	coherent
323.3024	0.1018747812486253	12	systole	6	A	2942.014383864825	coherent
323.6951	0.1018747812486253	12	systole	7	A	2942.014383864825	coherent
323.9	0.1018747812486253	12	systole	8	B	500.0	coherent
324.105	0.1018747812486253	12	systole	9	A	2942.014383864825	coherent
324.4855	0.1018747812486253	12	systole	10	A	2942.014383864825	coherent
324.6904	0.1018747812486253	12	systole	11	B	500.0	coherent
324.8954	0.1018747812486253	12	systole	12	A	2942.014383864825	coherent
325.3348	0.1018747812486253	12	systole	13	A	2942.014383864825	coherent
325.5424	0.1018747812486253	12	systole	14	B	500.0	coherent
325.7498	0.1018747812486253	12	systole	15	A	2942.014383864825	coherent
326.1646	0.1018747812486253	12	systole	16	A	2942.014383864825	coherent
326.3721	0.1018747812486253	12	systole	17	B	500.0	coherent
326.5795	0.1018747812486253	12	systole	18	A	2942.014383864825	coherent
326.9946	0.1018747812486253	12	systole	19	A	2942.014383864825	coherent
327.202	0.1018747812486253	12	systole	20	B	500.0	coherent
327.4095	0.1018747812486253	12	systole	21	A	2942.014383864825	coherent
327.82	0.1018747812486253	12	systole	22	A	2942.014383864825	coherent
328.0262	0.1018747812486253	12	systole	23	B	500.0	coherent
328.2324	0.1018747812486253	12	systole	24	A	2942.014383864825	coherent
328.6499	0.1018747812486253	12	systole	25	A	2942.014383864825	coherent
328.8562	0.1018747812486253	12	systole	26	B	500.0	coherent
329.0624	0.1018747812486253	12	systole	27	A	2942.014383864825	coherent
329.4799	0.1018747812486253	12	systole	28	A	2942.014383864825	coherent
329.6861	0.1018747812486253	12	systole	29	B	500.0	coherent
329.8923	0.1018747812486253	12	systole	30	A	2942.014383864825	coherent
330.3445	0.1018747812486253	12	systole	31	A	2942.014383864825	coherent
330.552	0.1018747812486253	12	systole	32	B	500.0	coherent
330.7594	0.1018747812486253	12	systole	33	A	2942.014383864825	coherent
331.1501	0.1018747812486253	12	systole	34	A	2942.014383864825	coherent
331.3564	0.1018747812486253	12	systole	35	B	500.0	coherent
331.5626	0.1018747812486253	12	systole	36	A	2942.014383864825	coherent
335.8847	0.105730268813204	13	diastole	1	A	3538.000656405778	coherent
336.0987	0.105730268813204	13	diastole	2	B	500.0	coherent
336.3122	0.105730268813204	13	diastole	3	A	3538.000656405778	coherent
336.7344	0.105730268813204	13	diastole	4	A	3538.000656405778	coherent
336.9483	0.105730268813204	13	diastole	5	B	500.0	coherent
337.1619	0.105730268813204	13	diastole	6	A	3538.000656405778	coherent
337.584	0.105730268813204	13	diastole	7	A	3538.000656405778	coherent
337.798	0.105730268813204	13	diastole	8	B	500.0	coherent
338.0116	0.105730268813204	13	diastole	9	A	3538.000656405778	coherent
338.4539	0.105730268813204	13	diastole	10	A	3538.000656405778	coherent
338.6678	0.105730268813204	13	diastole	11	B	500.0	coherent
338.8814	0.105730268813204	13	diastole	12	A	3538.000656405778	coherent
339.3237	0.105730268813204	13	diastole	13	A	3538.000656405778	coherent
339.5377	0.105730268813204	13	diastole	14	B	500.0	coherent
339.7512	0.105730268813204	13	diastole	15	A	3538.000656405778	coherent
340.1678	0.105730268813204	13	diastole	16	A	3538.000656405778	coherent
340.3842	0.105730268813204	13	diastole	17	B	500.0	coherent
340.6002	0.105730268813204	13	diastole	18	A	3538.000656405778	coherent
340.9537	0.105730268813204	13	diastole	19	A	3538.000656405778	coherent
341.1677	0.105730268813204	13	diastole	20	B	500.0	coherent
341.3812	0.105730268813204	13	diastole	21	A	3538.000656405778	coherent
341.7537	0.105730268813204	13	diastole	22	A	3538.000656405778	coherent
341.9677	0.105730268813204	13	diastole	23	B	500.0	coherent
342.1812	0.105730268813204	13	diastole	24	A	3538.000656405778	coherent
342.6038	0.105730268813204	13	diastole	25	A	3538.000656405778	coherent
342.8177	0.105730268813204	13	diastole	26	B	500.0	coherent
343.0313	0.105730268813204	13	diastole	27	A	3538.000656405778	coherent
343.4464	0.105730268813204	13	diastole	28	A	3538.000656405778	coherent
343.6591	0.105730268813204	13	diastole	29	B	500.0	coherent
343.8714	0.105730268813204	13	diastole	30	A	3538.000656405778	coherent
344.2762	0.105730268813204	13	diastole	31	A	3538.000656405778	coherent
344.4888	0.105730268813204	13	diastole	32	B	500.0	coherent
344.7011	0.105730268813204	13	diastole	33	A	3538.000656405778	coherent
345.1364	0.105730268813204	13	diastole	34	A	3538.000656405778	coherent
345.3491	0.105730268813204	13	diastole	35	B	500.0	coherent
345.5614	0.105730268813204	13	diastole	36	A	3538.000656405778	coherent
350.2645	0.1068728246027603	14	diastole	1	A	2942.014383864825	coherent
350.4782	0.1068728246027603	14	diastole	2	B	500.0	coherent
350.6919	0.1068728246027603	14	diastole	3	A	2942.014383864825	coherent
351.0645	0.1068728246027603	14	diastole	4	A	2942.014383864825	coherent
351.2783	0.1068728246027603	14	diastole	5	B	500.0	coherent
351.4919	0.1068728246027603	14	diastole	6	A	2942.014383864825	coherent
351.8664	0.1068728246027603	14	diastole	7	A	2942.014383864825	coherent
352.0751	0.1068728246027603	14	diastole	8	B	500.0	coherent
352.2839	0.1068728246027603	14	diastole	9	A	2942.014383864825	coherent
352.6964	0.1068728246027603	14	diastole	10	A	2942.014383864825	coherent
352.9052	0.1068728246027603	14	diastole	11	B	500.0	coherent
353.1139	0.1068728246027603	14	diastole	12	A	2942.014383864825	coherent
353.5264	0.1068728246027603	14	diastole	13	A	2942.014383864825	coherent
353.7352	0.1068728246027603	14	diastole	14	B	500.0	coherent
353.9439	0.1068728246027603	14	diastole	15	A	2942.014383864825	coherent
354.3467	0.1068728246027603	14	diastole	16	A	2942.014383864825	coherent
354.5555	0.1068728246027603	14	diastole	17	B	500.0	coherent
354.7642	0.1068728246027603	14	diastole	18	A	2942.014383864825	coherent
355.1423	0.1068728246027603	14	diastole	19	A	2942.014383864825	coherent
355.3487	0.1068728246027603	14	diastole	20	B	500.0	coherent
355.5549	0.1068728246027603	14	diastole	21	A	2942.014383864825	coherent
355.9924	0.1068728246027603	14	diastole	22	A	2942.014383864825	coherent
356.1987	0.1068728246027603	14	diastole	23	B	500.0	coherent
356.405	0.1068728246027603	14	diastole	24	A	2942.014383864825	coherent
356.8055	0.1068728246027603	14	diastole	25	A	2942.014383864825	coherent
357.0106	0.1068728246027603	14	diastole	26	B	500.0	coherent
357.2157	0.1068728246027603	14	diastole	27	A	2942.014383864825	coherent
357.6255	0.1068728246027603	14	diastole	28	A	2942.014383864825	coherent
357.8306	0.1068728246027603	14	diastole	29	B	500.0	coherent
358.0357	0.1068728246027603	14	diastole	30	A	2942.014383864825	coherent
358.4454	0.1068728246027603	14	diastole	31	A	2942.014383864825	coherent
358.6505	0.1068728246027603	14	diastole	32	B	500.0	coherent
358.8556	0.1068728246027603	14	diastole	33	A	2942.014383864825	coherent
362.9352	0.1024985936819575	15	systole	1	A	3152.7331318609326	coherent
363.1403	0.1024985936819575	15	systole	2	B	500.0	coherent
363.3452	0.1024985936819575	15	systole	3	A	3152.7331318609326	coherent
363.7652	0.1024985936819575	15	systole	4	A	3152.7331318609326	coherent
363.9702	0.1024985936819575	15	systole	5	B	500.0	coherent
364.1751	0.1024985936819575	15	systole	6	A	3152.7331318609326	coherent
364.5606	0.1024985936819575	15	systole	7	A	3152.7331318609326	coherent
364.7644	0.1024985936819575	15	systole	8	B	500.0	coherent
364.9681	0.1024985936819575	15	systole	9	A	3152.7331318609326	coherent
365.3905	0.1024985936819575	15	systole	10	A	3152.7331318609326	coherent
365.5943	0.1024985936819575	15	systole	11	B	500.0	coherent
365.798	0.1024985936819575	15	systole	12	A	3152.7331318609326	coherent
366.2342	0.1024985936819575	15	systole	13	A	3152.7331318609326	coherent
366.4418	0.1024985936819575	15	systole	14	B	500.0	coherent
366.6492	0.1024985936819575	15	systole	15	A	3152.7331318609326	coherent
367.0643	0.1024985936819575	15	systole	16	A	3152.7331318609326	coherent
367.2718	0.1024985936819575	15	systole	17	B	500.0	coherent
367.4792	0.1024985936819575	15	systole	18	A	3152.7331318609326	coherent
367.8943	0.1024985936819575	15	systole	19	A	3152.7331318609326	coherent
368.1019	0.1024985936819575	15	systole	20	B	500.0	coherent
368.3093	0.1024985936819575	15	systole	21	A	3152.7331318609326	coherent
368.6897	0.1024985936819575	15	systole	22	A	3152.7331318609326	coherent
368.896	0.1024985936819575	15	systole	23	B	500.0	coherent
369.1022	0.1024985936819575	15	systole	24	A	3152.7331318609326	coherent
369.5243	0.1024985936819575	15	systole	25	A	3152.7331318609326	coherent
369.7319	0.1024985936819575	15	systole	26	B	500.0	coherent
369.9393	0.1024985936819575	15	systole	27	A	3152.7331318609326	coherent
370.3544	0.1024985936819575	15	systole	28	A	3152.7331318609326	coherent
370.5619	0.1024985936819575	15	systole	29	B	500.0	coherent
370.7693	0.1024985936819575	15	systole	30	A	3152.7331318609326	coherent
371.1844	0.1024985936819575	15	systole	31	A	3152.7331318609326	coherent
371.392	0.1024985936819575	15	systole	32	B	500.0	coherent
371.5994	0.1024985936819575	15	systole	33	A	3152.7331318609326	coherent
371.9843	0.1024985936819575	15	systole	34	A	3152.7331318609326	coherent
372.1918	0.1024985936819575	15	systole	35	B	500.0	coherent
372.3992	0.1024985936819575	15	systole	36	A	3152.7331318609326	coherent
372.7906	0.1024985936819575	15	systole	37	A	3152.7331318609326	coherent
372.9945	0.1024985936819575	15	systole	38	B	500.0	coherent
373.1981	0.1024985936819575	15	systole	39	A	3152.7331318609326	coherent
375.985	0.1024996135383844	16	systole	1	A	4062.961875947593	streaming
376.1901	0.1024996135383844	16	systole	2	B	500.0	streaming
376.395	0.1024996135383844	16	systole	3	A	4062.961875947593	streaming
376.7605	0.1024996135383844	16	systole	4	A	4062.961875947593	streaming
376.9643	0.1024996135383844	16	systole	5	B	500.0	streaming
377.168	0.1024996135383844	16	systole	6	A	4062.961875947593	streaming
377.5605	0.1024996135383844	16	systole	7	A	4062.961875947593	streaming
377.7643	0.1024996135383844	16	systole	8	B	500.0	streaming
377.968	0.1024996135383844	16	systole	9	A	4062.961875947593	streaming
378.3605	0.1024996135383844	16	systole	10	A	4062.961875947593	streaming
378.5643	0.1024996135383844	16	systole	11	B	500.0	streaming
378.768	0.1024996135383844	16	systole	12	A	4062.961875947593	streaming
379.155	0.1024996135383844	16	systole	13	A	4062.961875947593	streaming
379.3601	0.1024996135383844	16	systole	14	B	500.0	streaming
379.565	0.1024996135383844	16	systole	15	A	4062.961875947593	streaming
379.945	0.1024996135383844	16	systole	16	A	4062.961875947593	streaming
380.1501	0.1024996135383844	16	systole	17	B	500.0	streaming
380.355	0.1024996135383844	16	systole	18	A	4062.961875947593	streaming
380.7059	0.1024996135383844	16	systole	19	A	4062.961875947593	streaming
380.9085	0.1024996135383844	16	systole	20	B	500.0	streaming
381.1109	0.1024996135383844	16	systole	21	A	4062.961875947593	streaming
381.5115	0.1024996135383844	16	systole	22	A	4062.961875947593	streaming
381.7128	0.1024996135383844	16	systole	23	B	500.0	streaming
381.914	0.1024996135383844	16	systole	24	A	4062.961875947593	streaming
382.3216	0.1024996135383844	16	systole	25	A	4062.961875947593	streaming
382.5229	0.1024996135383844	16	systole	26	B	500.0	streaming
382.7241	0.1024996135383844	16	systole	27	A	4062.961875947593	streaming
383.1412	0.1024996135383844	16	systole	28	A	4062.961875947593	streaming
383.3426	0.1024996135383844	16	systole	29	B	500.0	streaming
383.5437	0.1024996135383844	16	systole	30	A	4062.961875947593	streaming
383.9366	0.1024996135383844	16	systole	31	A	4062.961875947593	streaming
384.1367	0.1024996135383844	16	systole	32	B	500.0	streaming
384.3366	0.1024996135383844	16	systole	33	A	4062.961875947593	streaming
384.757	0.1024996135383844	16	systole	34	A	4062.961875947593	streaming
384.957	0.1024996135383844	16	systole	35	B	500.0	streaming
385.157	0.1024996135383844	16	systole	36	A	4062.961875947593	streaming
387.3753	0.101860377646517	17	systole	1	A	4665.815755436727	streaming
387.5804	0.101860377646517	17	systole	2	B	500.0	streaming
387.7853	0.101860377646517	17	systole	3	A	4665.815755436727	streaming
388.2357	0.101860377646517	17	systole	4	A	4665.815755436727	streaming
388.4408	0.101860377646517	17	systole	5	B	500.0	streaming
388.6458	0.101860377646517	17	systole	6	A	4665.815755436727	streaming
389.0358	0.101860377646517	17	systole	7	A	4665.815755436727	streaming
389.2408	0.101860377646517	17	systole	8	B	500.0	streaming
389.4458	0.101860377646517	17	systole	9	A	4665.815755436727	streaming
389.8705	0.101860377646517	17	systole	10	A	4665.815755436727	streaming
390.0768	0.101860377646517	17	systole	11	B	500.0	streaming
390.2831	0.101860377646517	17	systole	12	A	4665.815755436727	streaming
390.7005	0.101860377646517	17	systole	13	A	4665.815755436727	streaming
390.9068	0.101860377646517	17	systole	14	B	500.0	streaming
391.1131	0.101860377646517	17	systole	15	A	4665.815755436727	streaming
391.5149	0.101860377646517	17	systole	16	A	4665.815755436727	streaming
391.7225	0.101860377646517	17	systole	17	B	500.0	streaming
391.9299	0.101860377646517	17	systole	18	A	4665.815755436727	streaming
392.3249	0.101860377646517	17	systole	19	A	4665.815755436727	streaming
392.5325	0.101860377646517	17	systole	20	B	500.0	streaming
392.7399	0.101860377646517	17	systole	21	A	4665.815755436727	streaming
393.1502	0.101860377646517	17	systole	22	A	4665.815755436727	streaming
393.3565	0.101860377646517	17	systole	23	B	500.0	streaming
393.5626	0.101860377646517	17	systole	24	A	4665.815755436727	streaming
393.9802	0.101860377646517	17	systole	25	A	4665.815755436727	streaming
394.1864	0.101860377646517	17	systole	26	B	500.0	streaming
394.3926	0.101860377646517	17	systole	27	A	4665.815755436727	streaming
394.8449	0.101860377646517	17	systole	28	A	4665.815755436727	streaming
395.0525	0.101860377646517	17	systole	29	B	500.0	streaming
395.2599	0.101860377646517	17	systole	30	A	4665.815755436727	streaming
395.7049	0.101860377646517	17	systole	31	A	4665.815755436727	streaming
395.9125	0.101860377646517	17	systole	32	B	500.0	streaming
396.1199	0.101860377646517	17	systole	33	A	4665.815755436727	streaming
396.5102	0.101860377646517	17	systole	34	A	4665.815755436727	streaming
396.7164	0.101860377646517	17	systole	35	B	500.0	streaming
396.9226	0.101860377646517	17	systole	36	A	4665.815755436727	streaming
399.7443	0.1037485312554054	18	systole	1	A	4559.460373853269	streaming
399.9518	0.1037485312554054	18	systole	2	B	500.0	streaming
400.1593	0.1037485312554054	18	systole	3	A	4559.460373853269	streaming
400.5743	0.1037485312554054	18	systole	4	A	4559.460373853269	streaming
400.7818	0.1037485312554054	18	systole	5	B	500.0	streaming
400.9893	0.1037485312554054	18	systole	6	A	4559.460373853269	streaming
401.4235	0.1037485312554054	18	systole	7	A	4559.460373853269	streaming
401.6335	0.1037485312554054	18	systole	8	B	500.0	streaming
401.8435	0.1037485312554054	18	systole	9	A	4559.460373853269	streaming
402.2289	0.1037485312554054	18	systole	10	A	4559.460373853269	streaming
402.4377	0.1037485312554054	18	systole	11	B	500.0	streaming
402.6464	0.1037485312554054	18	systole	12	A	4559.460373853269	streaming
403.0589	0.1037485312554054	18	systole	13	A	4559.460373853269	streaming
403.2676	0.1037485312554054	18	systole	14	B	500.0	streaming
403.4764	0.1037485312554054	18	systole	15	A	4559.460373853269	streaming
403.8889	0.1037485312554054	18	systole	16	A	4559.460373853269	streaming
404.0976	0.1037485312554054	18	systole	17	B	500.0	streaming
404.3064	0.1037485312554054	18	systole	18	A	4559.460373853269	streaming
404.7634	0.1037485312554054	18	systole	19	A	4559.460373853269	streaming
404.9734	0.1037485312554054	18	systole	20	B	500.0	streaming
405.1834	0.1037485312554054	18	systole	21	A	4559.460373853269	streaming
405.6034	0.1037485312554054	18	systole	22	A	4559.460373853269	streaming
405.8134	0.1037485312554054	18	systole	23	B	500.0	streaming
406.0234	0.1037485312554054	18	systole	24	A	4559.460373853269	streaming
406.4189	0.1037485312554054	18	systole	25	A	4559.460373853269	streaming
406.6276	0.1037485312554054	18	systole	26	B	500.0	streaming
406.8364	0.1037485312554054	18	systole	27	A	4559.460373853269	streaming
407.2734	0.1037485312554054	18	systole	28	A	4559.460373853269	streaming
407.4834	0.1037485312554054	18	systole	29	B	500.0	streaming
407.6934	0.1037485312554054	18	systole	30	A	4559.460373853269	streaming
408.1234	0.1037485312554054	18	systole	31	A	4559.460373853269	streaming
408.3334	0.1037485312554054	18	systole	32	B	500.0	streaming
408.5434	0.1037485312554054	18	systole	33	A	4559.460373853269	streaming
410.6496	0.1038732581073418	19	systole	1	A	4559.460373853269	streaming
410.8586	0.1038732581073418	19	systole	2	B	500.0	streaming
411.0676	0.1038732581073418	19	systole	3	A	4559.460373853269	streaming
411.4616	0.1038732581073418	19	systole	4	A	4559.460373853269	streaming
411.6707	0.1038732581073418	19	systole	5	B	500.0	streaming
411.8796	0.1038732581073418	19	systole	6	A	4559.460373853269	streaming
412.2451	0.1038732581073418	19	systole	7	A	4559.460373853269	streaming
412.4528	0.1038732581073418	19	systole	8	B	500.0	streaming
412.6606	0.1038732581073418	19	systole	9	A	4559.460373853269	streaming
413.0331	0.1038732581073418	19	systole	10	A	4559.460373853269	streaming
413.2408	0.1038732581073418	19	systole	11	B	500.0	streaming
413.4485	0.1038732581073418	19	systole	12	A	4559.460373853269	streaming
413.8211	0.1038732581073418	19	systole	13	A	4559.460373853269	streaming
414.0288	0.1038732581073418	19	systole	14	B	500.0	streaming
414.2366	0.1038732581073418	19	systole	15	A	4559.460373853269	streaming
414.6502	0.1038732581073418	19	systole	16	A	4559.460373853269	streaming
414.8578	0.1038732581073418	19	systole	17	B	500.0	streaming
415.0653	0.1038732581073418	19	systole	18	A	4559.460373853269	streaming
415.4606	0.1038732581073418	19	systole	19	A	4559.460373853269	streaming
415.6681	0.1038732581073418	19	systole	20	B	500.0	streaming
415.8756	0.1038732581073418	19	systole	21	A	4559.460373853269	streaming
416.271	0.1038732581073418	19	systole	22	A	4559.460373853269	streaming
416.4785	0.1038732581073418	19	systole	23	B	500.0	streaming
416.686	0.1038732581073418	19	systole	24	A	4559.460373853269	streaming
417.0814	0.1038732581073418	19	systole	25	A	4559.460373853269	streaming
417.2889	0.1038732581073418	19	systole	26	B	500.0	streaming
417.4964	0.1038732581073418	19	systole	27	A	4559.460373853269	streaming
417.9268	0.1038732581073418	19	systole	28	A	4559.460373853269	streaming
418.1331	0.1038732581073418	19	systole	29	B	500.0	streaming
418.3393	0.1038732581073418	19	systole	30	A	4559.460373853269	streaming
418.7769	0.1038732581073418	19	systole	31	A	4559.460373853269	streaming
418.9831	0.1038732581073418	19	systole	32	B	500.0	streaming
419.1894	0.1038732581073418	19	systole	33	A	4559.460373853269	streaming
419.5924	0.1038732581073418	19	systole	34	A	4559.460373853269	streaming
419.7974	0.1038732581073418	19	systole	35	B	500.0	streaming
420.0024	0.1038732581073418	19	systole	36	A	4559.460373853269	streaming
420.3886	0.1038732581073418	19	systole	37	A	4559.460373853269	streaming
420.5926	0.1038732581073418	19	systole	38	B	500.0	streaming
420.7966	0.1038732581073418	19	systole	39	A	4559.460373853269	streaming
424.1921	0.1024980292422697	20	diastole	1	A	3152.7331318609326	coherent
424.3984	0.1024980292422697	20	diastole	2	B	500.0	coherent
424.6046	0.1024980292422697	20	diastole	3	A	3152.7331318609326	coherent
425.022	0.1024980292422697	20	diastole	4	A	3152.7331318609326	coherent
425.2284	0.1024980292422697	20	diastole	5	B	500.0	coherent
425.4346	0.1024980292422697	20	diastole	6	A	3152.7331318609326	coherent
425.8891	0.1024980292422697	20	diastole	7	A	3152.7331318609326	coherent
426.0967	0.1024980292422697	20	diastole	8	B	500.0	coherent
426.3041	0.1024980292422697	20	diastole	9	A	3152.7331318609326	coherent
426.7491	0.1024980292422697	20	diastole	10	A	3152.7331318609326	coherent
426.9567	0.1024980292422697	20	diastole	11	B	500.0	coherent
427.1641	0.1024980292422697	20	diastole	12	A	3152.7331318609326	coherent
427.5621	0.1024980292422697	20	diastole	13	A	3152.7331318609326	coherent
427.7684	0.1024980292422697	20	diastole	14	B	500.0	coherent
427.9746	0.1024980292422697	20	diastole	15	A	3152.7331318609326	coherent
428.3721	0.1024980292422697	20	diastole	16	A	3152.7331318609326	coherent
428.5784	0.1024980292422697	20	diastole	17	B	500.0	coherent
428.7846	0.1024980292422697	20	diastole	18	A	3152.7331318609326	coherent
429.2292	0.1024980292422697	20	diastole	19	A	3152.7331318609326	coherent
429.4368	0.1024980292422697	20	diastole	20	B	500.0	coherent
429.6442	0.1024980292422697	20	diastole	21	A	3152.7331318609326	coherent
430.0793	0.1024980292422697	20	diastole	22	A	3152.7331318609326	coherent
430.2869	0.1024980292422697	20	diastole	23	B	500.0	coherent
430.4942	0.1024980292422697	20	diastole	24	A	3152.7331318609326	coherent
430.9293	0.1024980292422697	20	diastole	25	A	3152.7331318609326	coherent
431.1369	0.1024980292422697	20	diastole	26	B	500.0	coherent
431.3443	0.1024980292422697	20	diastole	27	A	3152.7331318609326	coherent
431.715	0.1024980292422697	20	diastole	28	A	3152.7331318609326	coherent
431.9201	0.1024980292422697	20	diastole	29	B	500.0	coherent
432.125	0.1024980292422697	20	diastole	30	A	3152.7331318609326	coherent
432.5353	0.1024980292422697	20	diastole	31	A	3152.7331318609326	coherent
432.7404	0.1024980292422697	20	diastole	32	B	500.0	coherent
432.9453	0.1024980292422697	20	diastole	33	A	3152.7331318609326	coherent
435.6581	0.1025021982495673	21	diastole	1	A	4062.961875947593	coherent
435.862	0.1025021982495673	21	diastole	2	B	500.0	coherent
436.0656	0.1025021982495673	21	diastole	3	A	4062.961875947593	coherent
436.431	0.1025021982495673	21	diastole	4	A	4062.961875947593	coherent
436.6336	0.1025021982495673	21	diastole	5	B	500.0	coherent
436.836	0.1025021982495673	21	diastole	6	A	4062.961875947593	coherent
437.2111	0.1025021982495673	21	diastole	7	A	4062.961875947593	coherent
437.4137	0.1025021982495673	21	diastole	8	B	500.0	coherent
437.6161	0.1025021982495673	21	diastole	9	A	4062.961875947593	coherent
438.0398	0.1025021982495673	21	diastole	10	A	4062.961875947593	coherent
438.2437	0.1025021982495673	21	diastole	11	B	500.0	coherent
438.4473	0.1025021982495673	21	diastole	12	A	4062.961875947593	coherent
438.8384	0.1025021982495673	21	diastole	13	A	4062.961875947593	coherent
439.0421	0.1025021982495673	21	diastole	14	B	500.0	coherent
439.2454	0.1025021982495673	21	diastole	15	A	4062.961875947593	coherent
439.6385	0.1025021982495673	21	diastole	16	A	4062.961875947593	coherent
439.8421	0.1025021982495673	21	diastole	17	B	500.0	coherent
440.0455	0.1025021982495673	21	diastole	18	A	4062.961875947593	coherent
440.3954	0.1025021982495673	21	diastole	19	A	4062.961875947593	coherent
440.5967	0.1025021982495673	21	diastole	20	B	500.0	coherent
440.7979	0.1025021982495673	21	diastole	21	A	4062.961875947593	coherent
441.1649	0.1025021982495673	21	diastole	22	A	4062.961875947593	coherent
441.3663	0.1025021982495673	21	diastole	23	B	500.0	coherent
441.5674	0.1025021982495673	21	diastole	24	A	4062.961875947593	coherent
441.9254	0.1025021982495673	21	diastole	25	A	4062.961875947593	coherent
442.1267	0.1025021982495673	21	diastole	26	B	500.0	coherent
442.3279	0.1025021982495673	21	diastole	27	A	4062.961875947593	coherent
442.6858	0.1025021982495673	21	diastole	28	A	4062.961875947593	coherent
442.8871	0.1025021982495673	21	diastole	29	B	500.0	coherent
443.0883	0.1025021982495673	21	diastole	30	A	4062.961875947593	coherent
443.4462	0.1025021982495673	21	diastole	31	A	4062.961875947593	coherent
443.6475	0.1025021982495673	21	diastole	32	B	500.0	coherent
443.8487	0.1025021982495673	21	diastole	33	A	4062.961875947593	coherent
444.1114	0.1025021982495673	21	diastole	34	A	4062.961875947593	coherent
444.3066	0.1025021982495673	21	diastole	35	B	500.0	coherent
444.5015	0.1025021982495673	21	diastole	36	A	4062.961875947593	coherent
447.8464	0.0937794125638902	22	diastole	1	A	3538.000656405778	streaming
448.0341	0.0937794125638902	22	diastole	2	B	500.0	streaming
448.2215	0.0937794125638902	22	diastole	3	A	3538.000656405778	streaming
448.6828	0.0937794125638902	22	diastole	4	A	3538.000656405778	streaming
448.8718	0.0937794125638902	22	diastole	5	B	500.0	streaming
449.0603	0.0937794125638902	22	diastole	6	A	3538.000656405778	streaming
449.5115	0.0937794125638902	22	diastole	7	A	3538.000656405778	streaming
449.7054	0.0937794125638902	22	diastole	8	B	500.0	streaming
449.899	0.0937794125638902	22	diastole	9	A	3538.000656405778	streaming
450.3119	0.0937794125638902	22	diastole	10	A	3538.000656405778	streaming
450.5058	0.0937794125638902	22	diastole	11	B	500.0	streaming
450.6994	0.0937794125638902	22	diastole	12	A	3538.000656405778	streaming
451.0715	0.0937794125638902	22	diastole	13	A	3538.000656405778	streaming
451.2654	0.0937794125638902	22	diastole	14	B	500.0	streaming
451.459	0.0937794125638902	22	diastole	15	A	3538.000656405778	streaming
451.8421	0.0937794125638902	22	diastole	16	A	3538.000656405778	streaming
452.0361	0.0937794125638902	22	diastole	17	B	500.0	streaming
452.2297	0.0937794125638902	22	diastole	18	A	3538.000656405778	streaming
452.6289	0.0937794125638902	22	diastole	19	A	3538.000656405778	streaming
452.8241	0.0937794125638902	22	diastole	20	B	500.0	streaming
453.0189	0.0937794125638902	22	diastole	21	A	3538.000656405778	streaming
453.409	0.0937794125638902	22	diastole	22	A	3538.000656405778	streaming
453.6042	0.0937794125638902	22	diastole	23	B	500.0	streaming
453.799	0.0937794125638902	22	diastole	24	A	3538.000656405778	streaming
454.189	0.0937794125638902	22	diastole	25	A	3538.000656405778	streaming
454.3842	0.0937794125638902	22	diastole	26	B	500.0	streaming
454.579	0.0937794125638902	22	diastole	27	A	3538.000656405778	streaming
455.0534	0.0937794125638902	22	diastole	28	A	3538.000656405778	streaming
455.2512	0.0937794125638902	22	diastole	29	B	500.0	streaming
455.4485	0.0937794125638902	22	diastole	30	A	3538.000656405778	streaming
455.9035	0.0937794125638902	22	diastole	31	A	3538.000656405778	streaming
456.1012	0.0937794125638902	22	diastole	32	B	500.0	streaming
456.2986	0.0937794125638902	22	diastole	33	A	3538.000656405778	streaming
456.7339	0.0937794125638902	22	diastole	34	A	3538.000656405778	streaming
456.9316	0.0937794125638902	22	diastole	35	B	500.0	streaming
457.1289	0.0937794125638902	22	diastole	36	A	3538.000656405778	streaming
457.5291	0.0937794125638902	22	diastole	37	A	3538.000656405778	streaming
457.7242	0.0937794125638902	22	diastole	38	B	500.0	streaming
457.9191	0.0937794125638902	22	diastole	39	A	3538.000656405778	streaming
460.6565	0.099981024977751	23	diastole	1	A	2390.658456026444	coherent
460.8566	0.099981024977751	23	diastole	2	B	500.0	coherent
461.0565	0.099981024977751	23	diastole	3	A	2390.658456026444	coherent
461.4366	0.099981024977751	23	diastole	4	A	2390.658456026444	coherent
461.6367	0.099981024977751	23	diastole	5	B	500.0	coherent
461.8365	0.099981024977751	23	diastole	6	A	2390.658456026444	coherent
462.2166	0.099981024977751	23	diastole	7	A	2390.658456026444	coherent
462.4167	0.099981024977751	23	diastole	8	B	500.0	coherent
462.6165	0.099981024977751	23	diastole	9	A	2390.658456026444	coherent
462.9829	0.099981024977751	23	diastole	10	A	2390.658456026444	coherent
463.1805	0.099981024977751	23	diastole	11	B	500.0	coherent
463.3779	0.099981024977751	23	diastole	12	A	2390.658456026444	coherent
463.7355	0.099981024977751	23	diastole	13	A	2390.658456026444	coherent
463.9319	0.099981024977751	23	diastole	14	B	500.0	coherent
464.1281	0.099981024977751	23	diastole	15	A	2390.658456026444	coherent
464.5085	0.099981024977751	23	diastole	16	A	2390.658456026444	coherent
464.7036	0.099981024977751	23	diastole	17	B	500.0	coherent
464.8985	0.099981024977751	23	diastole	18	A	2390.658456026444	coherent
465.2886	0.099981024977751	23	diastole	19	A	2390.658456026444	coherent
465.4837	0.099981024977751	23	diastole	20	B	500.0	coherent
465.6786	0.099981024977751	23	diastole	21	A	2390.658456026444	coherent
466.0687	0.099981024977751	23	diastole	22	A	2390.658456026444	coherent
466.2638	0.099981024977751	23	diastole	23	B	500.0	coherent
466.4587	0.099981024977751	23	diastole	24	A	2390.658456026444	coherent
466.8384	0.099981024977751	23	diastole	25	A	2390.658456026444	coherent
467.0336	0.099981024977751	23	diastole	26	B	500.0	coherent
467.2285	0.099981024977751	23	diastole	27	A	2390.658456026444	coherent
467.6084	0.099981024977751	23	diastole	28	A	2390.658456026444	coherent
467.8035	0.099981024977751	23	diastole	29	B	500.0	coherent
467.9984	0.099981024977751	23	diastole	30	A	2390.658456026444	coherent
468.3785	0.099981024977751	23	diastole	31	A	2390.658456026444	coherent
468.5736	0.099981024977751	23	diastole	32	B	500.0	coherent
468.7685	0.099981024977751	23	diastole	33	A	2390.658456026444	coherent
469.1484	0.099981024977751	23	diastole	34	A	2390.658456026444	coherent
469.3435	0.099981024977751	23	diastole	35	B	500.0	coherent
469.5384	0.099981024977751	23	diastole	36	A	2390.658456026444	coherent
471.7392	0.0962467937497422	24	systole	1	A	3301.531841080714	streaming
471.9318	0.0962467937497422	24	systole	2	B	500.0	streaming
472.1242	0.0962467937497422	24	systole	3	A	3301.531841080714	streaming
472.5092	0.0962467937497422	24	systole	4	A	3301.531841080714	streaming
472.7018	0.0962467937497422	24	systole	5	B	500.0	streaming
472.8941	0.0962467937497422	24	systole	6	A	3301.531841080714	streaming
473.2792	0.0962467937497422	24	systole	7	A	3301.531841080714	streaming
473.4718	0.0962467937497422	24	systole	8	B	500.0	streaming
473.6641	0.0962467937497422	24	systole	9	A	3301.531841080714	streaming
474.0446	0.0962467937497422	24	systole	10	A	3301.531841080714	streaming
474.236	0.0962467937497422	24	systole	11	B	500.0	streaming
474.4271	0.0962467937497422	24	systole	12	A	3301.531841080714	streaming
474.8444	0.0962467937497422	24	systole	13	A	3301.531841080714	streaming
475.0358	0.0962467937497422	24	systole	14	B	500.0	streaming
475.2269	0.0962467937497422	24	systole	15	A	3301.531841080714	streaming
475.6244	0.0962467937497422	24	systole	16	A	3301.531841080714	streaming
475.8158	0.0962467937497422	24	systole	17	B	500.0	streaming
476.0069	0.0962467937497422	24	systole	18	A	3301.531841080714	streaming
476.4044	0.0962467937497422	24	systole	19	A	3301.531841080714	streaming
476.5958	0.0962467937497422	24	systole	20	B	500.0	streaming
476.7869	0.0962467937497422	24	systole	21	A	3301.531841080714	streaming
477.1548	0.0962467937497422	24	systole	22	A	3301.531841080714	streaming
477.3461	0.0962467937497422	24	systole	23	B	500.0	streaming
477.5373	0.0962467937497422	24	systole	24	A	3301.531841080714	streaming
477.9538	0.0962467937497422	24	systole	25	A	3301.531841080714	streaming
478.1476	0.0962467937497422	24	systole	26	B	500.0	streaming
478.3412	0.0962467937497422	24	systole	27	A	3301.531841080714	streaming
478.7438	0.0962467937497422	24	systole	28	A	3301.531841080714	streaming
478.9377	0.0962467937497422	24	systole	29	B	500.0	streaming
479.1312	0.0962467937497422	24	systole	30	A	3301.531841080714	streaming
479.5338	0.0962467937497422	24	systole	31	A	3301.531841080714	streaming
479.7277	0.0962467937497422	24	systole	32	B	500.0	streaming
479.9212	0.0962467937497422	24	systole	33	A	3301.531841080714	streaming
480.3239	0.0962467937497422	24	systole	34	A	3301.531841080714	streaming
480.5177	0.0962467937497422	24	systole	35	B	500.0	streaming
480.7113	0.0962467937497422	24	systole	36	A	3301.531841080714	streaming
481.1489	0.0962467937497422	24	systole	37	A	3301.531841080714	streaming
481.344	0.0962467937497422	24	systole	38	B	500.0	streaming
481.5388	0.0962467937497422	24	systole	39	A	3301.531841080714	streaming
484.7294	0.098754369362723	25	diastole	1	A	2503.4897289455444	coherent
484.9284	0.098754369362723	25	diastole	2	B	500.0	coherent
485.1269	0.098754369362723	25	diastole	3	A	2503.4897289455444	coherent
485.5394	0.098754369362723	25	diastole	4	A	2503.4897289455444	coherent
485.7384	0.098754369362723	25	diastole	5	B	500.0	coherent
485.9369	0.098754369362723	25	diastole	6	A	2503.4897289455444	coherent
486.3665	0.098754369362723	25	diastole	7	A	2503.4897289455444	coherent
486.5667	0.098754369362723	25	diastole	8	B	500.0	coherent
486.7665	0.098754369362723	25	diastole	9	A	2503.4897289455444	coherent
487.1865	0.098754369362723	25	diastole	10	A	2503.4897289455444	coherent
487.3867	0.098754369362723	25	diastole	11	B	500.0	coherent
487.5865	0.098754369362723	25	diastole	12	A	2503.4897289455444	coherent
487.9561	0.098754369362723	25	diastole	13	A	2503.4897289455444	coherent
488.1563	0.098754369362723	25	diastole	14	B	500.0	coherent
488.3562	0.098754369362723	25	diastole	15	A	2503.4897289455444	coherent
488.7258	0.098754369362723	25	diastole	16	A	2503.4897289455444	coherent
488.9259	0.098754369362723	25	diastole	17	B	500.0	coherent
489.1258	0.098754369362723	25	diastole	18	A	2503.4897289455444	coherent
489.4958	0.098754369362723	25	diastole	19	A	2503.4897289455444	coherent
489.6959	0.098754369362723	25	diastole	20	B	500.0	coherent
489.8958	0.098754369362723	25	diastole	21	A	2503.4897289455444	coherent
490.2661	0.098754369362723	25	diastole	22	A	2503.4897289455444	coherent
490.4663	0.098754369362723	25	diastole	23	B	500.0	coherent
490.6661	0.098754369362723	25	diastole	24	A	2503.4897289455444	coherent
491.0148	0.098754369362723	25	diastole	25	A	2503.4897289455444	coherent
491.2112	0.098754369362723	25	diastole	26	B	500.0	coherent
491.4073	0.098754369362723	25	diastole	27	A	2503.4897289455444	coherent
491.7739	0.098754369362723	25	diastole	28	A	2503.4897289455444	coherent
491.9666	0.098754369362723	25	diastole	29	B	500.0	coherent
492.159	0.098754369362723	25	diastole	30	A	2503.4897289455444	coherent
492.5543	0.098754369362723	25	diastole	31	A	2503.4897289455444	coherent
492.747	0.098754369362723	25	diastole	32	B	500.0	coherent
492.9394	0.098754369362723	25	diastole	33	A	2503.4897289455444	coherent
499.2875	0.0981439811876043	26	systole	1	A	2621.646269519023	streaming
499.4852	0.0981439811876043	26	systole	2	B	500.0	streaming
499.6825	0.0981439811876043	26	systole	3	A	2621.646269519023	streaming
500.0675	0.0981439811876043	26	systole	4	A	2621.646269519023	streaming
500.2652	0.0981439811876043	26	systole	5	B	500.0	streaming
500.4625	0.0981439811876043	26	systole	6	A	2621.646269519023	streaming
500.8329	0.0981439811876043	26	systole	7	A	2621.646269519023	streaming
501.0294	0.0981439811876043	26	systole	8	B	500.0	streaming
501.2255	0.0981439811876043	26	systole	9	A	2621.646269519023	streaming
501.613	0.0981439811876043	26	systole	10	A	2621.646269519023	streaming
501.8094	0.0981439811876043	26	systole	11	B	500.0	streaming
502.0055	0.0981439811876043	26	systole	12	A	2621.646269519023	streaming
502.4076	0.0981439811876043	26	systole	13	A	2621.646269519023	streaming
502.6053	0.0981439811876043	26	systole	14	B	500.0	streaming
502.8026	0.0981439811876043	26	systole	15	A	2621.646269519023	streaming
503.1976	0.0981439811876043	26	systole	16	A	2621.646269519023	streaming
503.3953	0.0981439811876043	26	systole	17	B	500.0	streaming
503.5926	0.0981439811876043	26	systole	18	A	2621.646269519023	streaming
503.9401	0.0981439811876043	26	systole	19	A	2621.646269519023	streaming
504.1353	0.0981439811876043	26	systole	20	B	500.0	streaming
504.3302	0.0981439811876043	26	systole	21	A	2621.646269519023	streaming
504.7185	0.0981439811876043	26	systole	22	A	2621.646269519023	streaming
504.9137	0.0981439811876043	26	systole	23	B	500.0	streaming
505.1085	0.0981439811876043	26	systole	24	A	2621.646269519023	streaming
505.5184	0.0981439811876043	26	systole	25	A	2621.646269519023	streaming
505.7137	0.0981439811876043	26	systole	26	B	500.0	streaming
505.9085	0.0981439811876043	26	systole	27	A	2621.646269519023	streaming
506.3185	0.0981439811876043	26	systole	28	A	2621.646269519023	streaming
506.5137	0.0981439811876043	26	systole	29	B	500.0	streaming
506.7085	0.0981439811876043	26	systole	30	A	2621.646269519023	streaming
507.1185	0.0981439811876043	26	systole	31	A	2621.646269519023	streaming
507.3137	0.0981439811876043	26	systole	32	B	500.0	streaming
507.5085	0.0981439811876043	26	systole	33	A	2621.646269519023	streaming
507.9185	0.0981439811876043	26	systole	34	A	2621.646269519023	streaming
508.1138	0.0981439811876043	26	systole	35	B	500.0	streaming
508.3086	0.0981439811876043	26	systole	36	A	2621.646269519023	streaming
508.7329	0.0981439811876043	26	systole	37	A	2621.646269519023	streaming
508.9294	0.0981439811876043	26	systole	38	B	500.0	streaming
509.1254	0.0981439811876043	26	systole	39	A	2621.646269519023	streaming
511.8035	0.0981401205644942	27	systole	1	A	1771.4696608628924	coherent
511.9996	0.0981401205644942	27	systole	2	B	500.0	coherent
512.1961	0.0981401205644942	27	systole	3	A	1771.4696608628924	coherent
512.6224	0.0981401205644942	27	systole	4	A	1771.4696608628924	coherent
512.821	0.0981401205644942	27	systole	5	B	500.0	coherent
513.02	0.0981401205644942	27	systole	6	A	1771.4696608628924	coherent
513.4322	0.0981401205644942	27	systole	7	A	1771.4696608628924	coherent
513.6308	0.0981401205644942	27	systole	8	B	500.0	coherent
513.8298	0.0981401205644942	27	systole	9	A	1771.4696608628924	coherent
514.1681	0.0981401205644942	27	systole	10	A	1771.4696608628924	coherent
514.3629	0.0981401205644942	27	systole	11	B	500.0	coherent
514.5582	0.0981401205644942	27	systole	12	A	1771.4696608628924	coherent
514.9381	0.0981401205644942	27	systole	13	A	1771.4696608628924	coherent
515.1329	0.0981401205644942	27	systole	14	B	500.0	coherent
515.3281	0.0981401205644942	27	systole	15	A	1771.4696608628924	coherent
515.7037	0.0981401205644942	27	systole	16	A	1771.4696608628924	coherent
515.8972	0.0981401205644942	27	systole	17	B	500.0	coherent
516.0913	0.0981401205644942	27	systole	18	A	1771.4696608628924	coherent
516.4691	0.0981401205644942	27	systole	19	A	1771.4696608628924	coherent
516.6615	0.0981401205644942	27	systole	20	B	500.0	coherent
516.8543	0.0981401205644942	27	systole	21	A	1771.4696608628924	coherent
517.1989	0.0981401205644942	27	systole	22	A	1771.4696608628924	coherent
517.3912	0.0981401205644942	27	systole	23	B	500.0	coherent
517.5839	0.0981401205644942	27	systole	24	A	1771.4696608628924	coherent
517.9589	0.0981401205644942	27	systole	25	A	1771.4696608628924	coherent
518.1512	0.0981401205644942	27	systole	26	B	500.0	coherent
518.3439	0.0981401205644942	27	systole	27	A	1771.4696608628924	coherent
518.7189	0.0981401205644942	27	systole	28	A	1771.4696608628924	coherent
518.9111	0.0981401205644942	27	systole	29	B	500.0	coherent
519.1038	0.0981401205644942	27	systole	30	A	1771.4696608628924	coherent
519.4789	0.0981401205644942	27	systole	31	A	1771.4696608628924	coherent
519.6712	0.0981401205644942	27	systole	32	B	500.0	coherent
519.8638	0.0981401205644942	27	systole	33	A	1771.4696608628924	coherent
520.2789	0.0981401205644942	27	systole	34	A	1771.4696608628924	coherent
520.4712	0.0981401205644942	27	systole	35	B	500.0	coherent
520.6639	0.0981401205644942	27	systole	36	A	1771.4696608628924	coherent
522.6687	0.0962503562914207	28	systole	1	A	1855.0772444844133	coherent
522.8635	0.0962503562914207	28	systole	2	B	500.0	coherent
523.0587	0.0962503562914207	28	systole	3	A	1855.0772444844133	coherent
523.4687	0.0962503562914207	28	systole	4	A	1855.0772444844133	coherent
523.6635	0.0962503562914207	28	systole	5	B	500.0	coherent
523.8587	0.0962503562914207	28	systole	6	A	1855.0772444844133	coherent
524.2387	0.0962503562914207	28	systole	7	A	1855.0772444844133	coherent
524.4336	0.0962503562914207	28	systole	8	B	500.0	coherent
524.6287	0.0962503562914207	28	systole	9	A	1855.0772444844133	coherent
525.0087	0.0962503562914207	28	systole	10	A	1855.0772444844133	coherent
525.2036	0.0962503562914207	28	systole	11	B	500.0	coherent
525.3987	0.0962503562914207	28	systole	12	A	1855.0772444844133	coherent
525.7787	0.0962503562914207	28	systole	13	A	1855.0772444844133	coherent
525.9735	0.0962503562914207	28	systole	14	B	500.0	coherent
526.1687	0.0962503562914207	28	systole	15	A	1855.0772444844133	coherent
526.5879	0.0962503562914207	28	systole	16	A	1855.0772444844133	coherent
526.7852	0.0962503562914207	28	systole	17	B	500.0	coherent
526.9829	0.0962503562914207	28	systole	18	A	1855.0772444844133	coherent
527.3724	0.0962503562914207	28	systole	19	A	1855.0772444844133	coherent
527.571	0.0962503562914207	28	systole	20	B	500.0	coherent
527.7699	0.0962503562914207	28	systole	21	A	1855.0772444844133	coherent
528.1524	0.0962503562914207	28	systole	22	A	1855.0772444844133	coherent
528.351	0.0962503562914207	28	systole	23	B	500.0	coherent
528.5499	0.0962503562914207	28	systole	24	A	1855.0772444844133	coherent
528.9678	0.0962503562914207	28	systole	25	A	1855.0772444844133	coherent
529.1652	0.0962503562914207	28	systole	26	B	500.0	coherent
529.3628	0.0962503562914207	28	systole	27	A	1855.0772444844133	coherent
529.8277	0.0962503562914207	28	systole	28	A	1855.0772444844133	coherent
530.025	0.0962503562914207	28	systole	29	B	500.0	coherent
530.2226	0.0962503562914207	28	systole	30	A	1855.0772444844133	coherent
530.6875	0.0962503562914207	28	systole	31	A	1855.0772444844133	coherent
530.8848	0.0962503562914207	28	systole	32	B	500.0	coherent
531.0825	0.0962503562914207	28	systole	33	A	1855.0772444844133	coherent
531.5267	0.0962503562914207	28	systole	34	A	1855.0772444844133	coherent
531.7265	0.0962503562914207	28	systole	35	B	500.0	coherent
531.9267	0.0962503562914207	28	systole	36	A	1855.0772444844133	coherent
534.472	0.1031262984033674	29	diastole	1	A	2621.646269519023	streaming
534.6785	0.1031262984033674	29	diastole	2	B	500.0	streaming
534.8845	0.1031262984033674	29	diastole	3	A	2621.646269519023	streaming
535.252	0.1031262984033674	29	diastole	4	A	2621.646269519023	streaming
535.4585	0.1031262984033674	29	diastole	5	B	500.0	streaming
535.6645	0.1031262984033674	29	diastole	6	A	2621.646269519023	streaming
536.0321	0.1031262984033674	29	diastole	7	A	2621.646269519023	streaming
536.2385	0.1031262984033674	29	diastole	8	B	500.0	streaming
536.4446	0.1031262984033674	29	diastole	9	A	2621.646269519023	streaming
536.8022	0.1031262984033674	29	diastole	10	A	2621.646269519023	streaming
537.0087	0.1031262984033674	29	diastole	11	B	500.0	streaming
537.2147	0.1031262984033674	29	diastole	12	A	2621.646269519023	streaming
537.612	0.1031262984033674	29	diastole	13	A	2621.646269519023	streaming
537.8185	0.1031262984033674	29	diastole	14	B	500.0	streaming
538.0245	0.1031262984033674	29	diastole	15	A	2621.646269519023	streaming
538.3921	0.1031262984033674	29	diastole	16	A	2621.646269519023	streaming
538.5985	0.1031262984033674	29	diastole	17	B	500.0	streaming
538.8046	0.1031262984033674	29	diastole	18	A	2621.646269519023	streaming
539.1378	0.1031262984033674	29	diastole	19	A	2621.646269519023	streaming
539.3417	0.1031262984033674	29	diastole	20	B	500.0	streaming
539.5452	0.1031262984033674	29	diastole	21	A	2621.646269519023	streaming
539.8896	0.1031262984033674	29	diastole	22	A	2621.646269519023	streaming
540.0885	0.1031262984033674	29	diastole	23	B	500.0	streaming
540.287	0.1031262984033674	29	diastole	24	A	2621.646269519023	streaming
540.6654	0.1031262984033674	29	diastole	25	A	2621.646269519023	streaming
540.8619	0.1031262984033674	29	diastole	26	B	500.0	streaming
541.0579	0.1031262984033674	29	diastole	27	A	2621.646269519023	streaming
541.4185	0.1031262984033674	29	diastole	28	A	2621.646269519023	streaming
541.6137	0.1031262984033674	29	diastole	29	B	500.0	streaming
541.8085	0.1031262984033674	29	diastole	30	A	2621.646269519023	streaming
542.1502	0.1031262984033674	29	diastole	31	A	2621.646269519023	streaming
542.3454	0.1031262984033674	29	diastole	32	B	500.0	streaming
542.5402	0.1031262984033674	29	diastole	33	A	2621.646269519023	streaming
542.8912	0.1031262984033674	29	diastole	34	A	2621.646269519023	streaming
543.0852	0.1031262984033674	29	diastole	35	B	500.0	streaming
543.2788	0.1031262984033674	29	diastole	36	A	2621.646269519023	streaming
543.6393	0.1031262984033674	29	diastole	37	A	2621.646269519023	streaming
543.8332	0.1031262984033674	29	diastole	38	B	500.0	streaming
544.0268	0.1031262984033674	29	diastole	39	A	2621.646269519023	streaming
545.743	0.0975252438220195	30	systole	1	A	4999.999999999997	streaming
545.9394	0.0975252438220195	30	systole	2	B	500.0	streaming
546.1356	0.0975252438220195	30	systole	3	A	4999.999999999997	streaming
546.5731	0.0975252438220195	30	systole	4	A	4999.999999999997	streaming
546.7695	0.0975252438220195	30	systole	5	B	500.0	streaming
546.9656	0.0975252438220195	30	systole	6	A	4999.999999999997	streaming
547.3531	0.0975252438220195	30	systole	7	A	4999.999999999997	streaming
547.5495	0.0975252438220195	30	systole	8	B	500.0	streaming
547.7457	0.0975252438220195	30	systole	9	A	4999.999999999997	streaming
548.1575	0.0975252438220195	30	systole	10	A	4999.999999999997	streaming
548.3551	0.0975252438220195	30	systole	11	B	500.0	streaming
548.5524	0.0975252438220195	30	systole	12	A	4999.999999999997	streaming
548.9575	0.0975252438220195	30	systole	13	A	4999.999999999997	streaming
549.155	0.0975252438220195	30	systole	14	B	500.0	streaming
549.3524	0.0975252438220195	30	systole	15	A	4999.999999999997	streaming
549.7675	0.0975252438220195	30	systole	16	A	4999.999999999997	streaming
549.9651	0.0975252438220195	30	systole	17	B	500.0	streaming
550.1625	0.0975252438220195	30	systole	18	A	4999.999999999997	streaming
550.5624	0.0975252438220195	30	systole	19	A	4999.999999999997	streaming
550.7613	0.0975252438220195	30	systole	20	B	500.0	streaming
550.9599	0.0975252438220195	30	systole	21	A	4999.999999999997	streaming
551.3526	0.0975252438220195	30	systole	22	A	4999.999999999997	streaming
551.5514	0.0975252438220195	30	systole	23	B	500.0	streaming
551.7501	0.0975252438220195	30	systole	24	A	4999.999999999997	streaming
552.1671	0.0975252438220195	30	systole	25	A	4999.999999999997	streaming
552.3672	0.0975252438220195	30	systole	26	B	500.0	streaming
552.5671	0.0975252438220195	30	systole	27	A	4999.999999999997	streaming
552.9933	0.0975252438220195	30	systole	28	A	4999.999999999997	streaming
553.1947	0.0975252438220195	30	systole	29	B	500.0	streaming
553.3958	0.0975252438220195	30	systole	30	A	4999.999999999997	streaming
553.7771	0.0975252438220195	30	systole	31	A	4999.999999999997	streaming
553.9772	0.0975252438220195	30	systole	32	B	500.0	streaming
554.1771	0.0975252438220195	30	systole	33	A	4999.999999999997	streaming
554.5655	0.0975252438220195	30	systole	34	A	4999.999999999997	streaming
554.7656	0.0975252438220195	30	systole	35	B	500.0	streaming
554.9655	0.0975252438220195	30	systole	36	A	4999.999999999997	streaming
555.3917	0.0975252438220195	30	systole	37	A	4999.999999999997	streaming
555.593	0.0975252438220195	30	systole	38	B	500.0	streaming
555.7942	0.0975252438220195	30	systole	39	A	4999.999999999997	streaming
558.2994	0.1019785251119174	31	diastole	1	A	1812.791509567848	coherent
558.5031	0.1019785251119174	31	diastole	2	B	500.0	coherent
558.7073	0.1019785251119174	31	diastole	3	A	1812.791509567848	coherent
559.0791	0.1019785251119174	31	diastole	4	A	1812.791509567848	coherent
559.2829	0.1019785251119174	31	diastole	5	B	500.0	coherent
559.487	0.1019785251119174	31	diastole	6	A	1812.791509567848	coherent
559.872	0.1019785251119174	31	diastole	7	A	1812.791509567848	coherent
560.0746	0.1019785251119174	31	diastole	8	B	500.0	coherent
560.2774	0.1019785251119174	31	diastole	9	A	1812.791509567848	coherent
560.672	0.1019785251119174	31	diastole	10	A	1812.791509567848	coherent
560.8746	0.1019785251119174	31	diastole	11	B	500.0	coherent
561.0774	0.1019785251119174	31	diastole	12	A	1812.791509567848	coherent
561.457	0.1019785251119174	31	diastole	13	A	1812.791509567848	coherent
561.6568	0.1019785251119174	31	diastole	14	B	500.0	coherent
561.857	0.1019785251119174	31	diastole	15	A	1812.791509567848	coherent
562.2569	0.1019785251119174	31	diastole	16	A	1812.791509567848	coherent
562.4567	0.1019785251119174	31	diastole	17	B	500.0	coherent
562.6569	0.1019785251119174	31	diastole	18	A	1812.791509567848	coherent
563.0569	0.1019785251119174	31	diastole	19	A	1812.791509567848	coherent
563.2567	0.1019785251119174	31	diastole	20	B	500.0	coherent
563.4569	0.1019785251119174	31	diastole	21	A	1812.791509567848	coherent
563.8569	0.1019785251119174	31	diastole	22	A	1812.791509567848	coherent
564.0567	0.1019785251119174	31	diastole	23	B	500.0	coherent
564.2569	0.1019785251119174	31	diastole	24	A	1812.791509567848	coherent
564.6667	0.1019785251119174	31	diastole	25	A	1812.791509567848	coherent
564.8665	0.1019785251119174	31	diastole	26	B	500.0	coherent
565.0667	0.1019785251119174	31	diastole	27	A	1812.791509567848	coherent
565.4765	0.1019785251119174	31	diastole	28	A	1812.791509567848	coherent
565.6763	0.1019785251119174	31	diastole	29	B	500.0	coherent
565.8765	0.1019785251119174	31	diastole	30	A	1812.791509567848	coherent
566.2863	0.1019785251119174	31	diastole	31	A	1812.791509567848	coherent
566.4861	0.1019785251119174	31	diastole	32	B	500.0	coherent
566.6863	0.1019785251119174	31	diastole	33	A	1812.791509567848	coherent
567.0863	0.1019785251119174	31	diastole	34	A	1812.791509567848	coherent
567.2861	0.1019785251119174	31	diastole	35	B	500.0	coherent
567.4863	0.1019785251119174	31	diastole	36	A	1812.791509567848	coherent
570.2138	0.1006139778764918	32	diastole	1	A	1855.0772444844133	coherent
570.4149	0.1006139778764918	32	diastole	2	B	500.0	coherent
570.6163	0.1006139778764918	32	diastole	3	A	1855.0772444844133	coherent
571.0239	0.1006139778764918	32	diastole	4	A	1855.0772444844133	coherent
571.225	0.1006139778764918	32	diastole	5	B	500.0	coherent
571.4264	0.1006139778764918	32	diastole	6	A	1855.0772444844133	coherent
571.834	0.1006139778764918	32	diastole	7	A	1855.0772444844133	coherent
572.0351	0.1006139778764918	32	diastole	8	B	500.0	coherent
572.2365	0.1006139778764918	32	diastole	9	A	1855.0772444844133	coherent
572.6071	0.1006139778764918	32	diastole	10	A	1855.0772444844133	coherent
572.8069	0.1006139778764918	32	diastole	11	B	500.0	coherent
573.0071	0.1006139778764918	32	diastole	12	A	1855.0772444844133	coherent
573.38	0.1006139778764918	32	diastole	13	A	1855.0772444844133	coherent
573.5786	0.1006139778764918	32	diastole	14	B	500.0	coherent
573.7775	0.1006139778764918	32	diastole	15	A	1855.0772444844133	coherent
574.1531	0.1006139778764918	32	diastole	16	A	1855.0772444844133	coherent
574.3504	0.1006139778764918	32	diastole	17	B	500.0	coherent
574.5481	0.1006139778764918	32	diastole	18	A	1855.0772444844133	coherent
574.9336	0.1006139778764918	32	diastole	19	A	1855.0772444844133	coherent
575.1309	0.1006139778764918	32	diastole	20	B	500.0	coherent
575.3285	0.1006139778764918	32	diastole	21	A	1855.0772444844133	coherent
575.6668	0.1006139778764918	32	diastole	22	A	1855.0772444844133	coherent
575.8629	0.1006139778764918	32	diastole	23	B	500.0	coherent
576.0593	0.1006139778764918	32	diastole	24	A	1855.0772444844133	coherent
576.3899	0.1006139778764918	32	diastole	25	A	1855.0772444844133	coherent
576.5847	0.1006139778764918	32	diastole	26	B	500.0	coherent
576.78	0.1006139778764918	32	diastole	27	A	1855.0772444844133	coherent
577.1199	0.1006139778764918	32	diastole	28	A	1855.0772444844133	coherent
577.3148	0.1006139778764918	32	diastole	29	B	500.0	coherent
577.51	0.1006139778764918	32	diastole	30	A	1855.0772444844133	coherent
577.878	0.1006139778764918	32	diastole	31	A	1855.0772444844133	coherent
578.0729	0.1006139778764918	32	diastole	32	B	500.0	coherent
578.268	0.1006139778764918	32	diastole	33	A	1855.0772444844133	coherent
578.6364	0.1006139778764918	32	diastole	34	A	1855.0772444844133	coherent
578.8313	0.1006139778764918	32	diastole	35	B	500.0	coherent
579.0265	0.1006139778764918	32	diastole	36	A	1855.0772444844133	coherent
580.5644	0.0956049727974459	33	systole	1	A	4999.999999999997	streaming
580.7557	0.0956049727974459	33	systole	2	B	500.0	streaming
580.9468	0.0956049727974459	33	systole	3	A	4999.999999999997	streaming
581.3441	0.0956049727974459	33	systole	4	A	4999.999999999997	streaming
581.5354	0.0956049727974459	33	systole	5	B	500.0	streaming
581.7265	0.0956049727974459	33	systole	6	A	4999.999999999997	streaming
582.1141	0.0956049727974459	33	systole	7	A	4999.999999999997	streaming
582.3054	0.0956049727974459	33	systole	8	B	500.0	streaming
582.4965	0.0956049727974459	33	systole	9	A	4999.999999999997	streaming
582.8841	0.0956049727974459	33	systole	10	A	4999.999999999997	streaming
583.0755	0.0956049727974459	33	systole	11	B	500.0	streaming
583.2666	0.0956049727974459	33	systole	12	A	4999.999999999997	streaming
583.6542	0.0956049727974459	33	systole	13	A	4999.999999999997	streaming
583.8455	0.0956049727974459	33	systole	14	B	500.0	streaming
584.0366	0.0956049727974459	33	systole	15	A	4999.999999999997	streaming
584.4142	0.0956049727974459	33	systole	16	A	4999.999999999997	streaming
584.6055	0.0956049727974459	33	systole	17	B	500.0	streaming
584.7966	0.0956049727974459	33	systole	18	A	4999.999999999997	streaming
585.2088	0.0956049727974459	33	systole	19	A	4999.999999999997	streaming
585.4014	0.0956049727974459	33	systole	20	B	500.0	streaming
585.5937	0.0956049727974459	33	systole	21	A	4999.999999999997	streaming
585.9988	0.0956049727974459	33	systole	22	A	4999.999999999997	streaming
586.1914	0.0956049727974459	33	systole	23	B	500.0	streaming
586.3837	0.0956049727974459	33	systole	24	A	4999.999999999997	streaming
586.7879	0.0956049727974459	33	systole	25	A	4999.999999999997	streaming
586.983	0.0956049727974459	33	systole	26	B	500.0	streaming
587.1779	0.0956049727974459	33	systole	27	A	4999.999999999997	streaming
587.6326	0.0956049727974459	33	systole	28	A	4999.999999999997	streaming
587.829	0.0956049727974459	33	systole	29	B	500.0	streaming
588.0251	0.0956049727974459	33	systole	30	A	4999.999999999997	streaming
588.4426	0.0956049727974459	33	systole	31	A	4999.999999999997	streaming
588.639	0.0956049727974459	33	systole	32	B	500.0	streaming
588.8351	0.0956049727974459	33	systole	33	A	4999.999999999997	streaming
589.2518	0.0956049727974459	33	systole	34	A	4999.999999999997	streaming
589.4507	0.0956049727974459	33	systole	35	B	500.0	streaming
589.6493	0.0956049727974459	33	systole	36	A	4999.999999999997	streaming
590.0865	0.0956049727974459	33	systole	37	A	4999.999999999997	streaming
590.2866	0.0956049727974459	33	systole	38	B	500.0	streaming
590.4865	0.0956049727974459	33	systole	39	A	4999.999999999997	streaming
592.9911	0.1012540638912469	34	diastole	1	A	1942.6308330494364	coherent
593.1935	0.1012540638912469	34	diastole	2	B	500.0	coherent
593.3961	0.1012540638912469	34	diastole	3	A	1942.6308330494364	coherent
593.7911	0.1012540638912469	34	diastole	4	A	1942.6308330494364	coherent
593.9935	0.1012540638912469	34	diastole	5	B	500.0	coherent
594.1961	0.1012540638912469	34	diastole	6	A	1942.6308330494364	coherent
594.5911	0.1012540638912469	34	diastole	7	A	1942.6308330494364	coherent
594.7935	0.1012540638912469	34	diastole	8	B	500.0	coherent
594.9961	0.1012540638912469	34	diastole	9	A	1942.6308330494364	coherent
595.3639	0.1012540638912469	34	diastole	10	A	1942.6308330494364	coherent
595.5651	0.1012540638912469	34	diastole	11	B	500.0	coherent
595.7665	0.1012540638912469	34	diastole	12	A	1942.6308330494364	coherent
596.174	0.1012540638912469	34	diastole	13	A	1942.6308330494364	coherent
596.3752	0.1012540638912469	34	diastole	14	B	500.0	coherent
596.5765	0.1012540638912469	34	diastole	15	A	1942.6308330494364	coherent
596.9911	0.1012540638912469	34	diastole	16	A	1942.6308330494364	coherent
597.1935	0.1012540638912469	34	diastole	17	B	500.0	coherent
597.396	0.1012540638912469	34	diastole	18	A	1942.6308330494364	coherent
597.8011	0.1012540638912469	34	diastole	19	A	1942.6308330494364	coherent
598.0035	0.1012540638912469	34	diastole	20	B	500.0	coherent
598.2061	0.1012540638912469	34	diastole	21	A	1942.6308330494364	coherent
598.6111	0.1012540638912469	34	diastole	22	A	1942.6308330494364	coherent
598.8135	0.1012540638912469	34	diastole	23	B	500.0	coherent
599.0161	0.1012540638912469	34	diastole	24	A	1942.6308330494364	coherent
599.407	0.1012540638912469	34	diastole	25	A	1942.6308330494364	coherent
599.6084	0.1012540638912469	34	diastole	26	B	500.0	coherent
599.81	0.1012540638912469	34	diastole	27	A	1942.6308330494364	coherent
600.1984	0.1012540638912469	34	diastole	28	A	1942.6308330494364	coherent
600.3985	0.1012540638912469	34	diastole	29	B	500.0	coherent
600.5988	0.1012540638912469	34	diastole	30	A	1942.6308330494364	coherent
600.9969	0.1012540638912469	34	diastole	31	A	1942.6308330494364	coherent
601.197	0.1012540638912469	34	diastole	32	B	500.0	coherent
601.3973	0.1012540638912469	34	diastole	33	A	1942.6308330494364	coherent
601.8039	0.1012540638912469	34	diastole	34	A	1942.6308330494364	coherent
602.0053	0.1012540638912469	34	diastole	35	B	500.0	coherent
602.2068	0.1012540638912469	34	diastole	36	A	1942.6308330494364	coherent
605.0069	0.1001095687388442	35	diastole	1	A	2034.3166651064248	coherent
605.2069	0.1001095687388442	35	diastole	2	B	500.0	coherent
605.4069	0.1001095687388442	35	diastole	3	A	2034.3166651064248	coherent
605.7971	0.1001095687388442	35	diastole	4	A	2034.3166651064248	coherent
605.997	0.1001095687388442	35	diastole	5	B	500.0	coherent
606.1971	0.1001095687388442	35	diastole	6	A	2034.3166651064248	coherent
606.5758	0.1001095687388442	35	diastole	7	A	2034.3166651064248	coherent
606.7756	0.1001095687388442	35	diastole	8	B	500.0	coherent
606.9754	0.1001095687388442	35	diastole	9	A	2034.3166651064248	coherent
607.3499	0.1001095687388442	35	diastole	10	A	2034.3166651064248	coherent
607.5486	0.1001095687388442	35	diastole	11	B	500.0	coherent
607.7474	0.1001095687388442	35	diastole	12	A	2034.3166651064248	coherent
608.1299	0.1001095687388442	35	diastole	13	A	2034.3166651064248	coherent
608.3286	0.1001095687388442	35	diastole	14	B	500.0	coherent
608.5274	0.1001095687388442	35	diastole	15	A	2034.3166651064248	coherent
608.9027	0.1001095687388442	35	diastole	16	A	2034.3166651064248	coherent
609.1002	0.1001095687388442	35	diastole	17	B	500.0	coherent
609.2977	0.1001095687388442	35	diastole	18	A	2034.3166651064248	coherent
609.6827	0.1001095687388442	35	diastole	19	A	2034.3166651064248	coherent
609.8802	0.1001095687388442	35	diastole	20	B	500.0	coherent
610.0777	0.1001095687388442	35	diastole	21	A	2034.3166651064248	coherent
610.4457	0.1001095687388442	35	diastole	22	A	2034.3166651064248	coherent
610.6419	0.1001095687388442	35	diastole	23	B	500.0	coherent
610.8381	0.1001095687388442	35	diastole	24	A	2034.3166651064248	coherent
611.2158	0.1001095687388442	35	diastole	25	A	2034.3166651064248	coherent
611.412	0.1001095687388442	35	diastole	26	B	500.0	coherent
611.6083	0.1001095687388442	35	diastole	27	A	2034.3166651064248	coherent
611.9889	0.1001095687388442	35	diastole	28	A	2034.3166651064248	coherent
612.1839	0.1001095687388442	35	diastole	29	B	500.0	coherent
612.379	0.1001095687388442	35	diastole	30	A	2034.3166651064248	coherent
612.7489	0.1001095687388442	35	diastole	31	A	2034.3166651064248	coherent
612.9438	0.1001095687388442	35	diastole	32	B	500.0	coherent
613.1389	0.1001095687388442	35	diastole	33	A	2034.3166651064248	coherent
613.5118	0.1001095687388442	35	diastole	34	A	2034.3166651064248	coherent
613.7055	0.1001095687388442	35	diastole	35	B	500.0	coherent
613.8993	0.1001095687388442	35	diastole	36	A	2034.3166651064248	coherent
615.8917	0.0968851845827885	36	diastole	1	A	2081.769764253799	streaming
616.0855	0.0968851845827885	36	diastole	2	B	500.0	streaming
616.2793	0.0968851845827885	36	diastole	3	A	2081.769764253799	streaming
616.6987	0.0968851845827885	36	diastole	4	A	2081.769764253799	streaming
616.8937	0.0968851845827885	36	diastole	5	B	500.0	streaming
617.0887	0.0968851845827885	36	diastole	6	A	2081.769764253799	streaming
617.4987	0.0968851845827885	36	diastole	7	A	2081.769764253799	streaming
617.6937	0.0968851845827885	36	diastole	8	B	500.0	streaming
617.8887	0.0968851845827885	36	diastole	9	A	2081.769764253799	streaming
618.2987	0.0968851845827885	36	diastole	10	A	2081.769764253799	streaming
618.4937	0.0968851845827885	36	diastole	11	B	500.0	streaming
618.6887	0.0968851845827885	36	diastole	12	A	2081.769764253799	streaming
619.0727	0.0968851845827885	36	diastole	13	A	2081.769764253799	streaming
619.2702	0.0968851845827885	36	diastole	14	B	500.0	streaming
619.4676	0.0968851845827885	36	diastole	15	A	2081.769764253799	streaming
619.8326	0.0968851845827885	36	diastole	16	A	2081.769764253799	streaming
620.0301	0.0968851845827885	36	diastole	17	B	500.0	streaming
620.2276	0.0968851845827885	36	diastole	18	A	2081.769764253799	streaming
620.5827	0.0968851845827885	36	diastole	19	A	2081.769764253799	streaming
620.7801	0.0968851845827885	36	diastole	20	B	500.0	streaming
620.9777	0.0968851845827885	36	diastole	21	A	2081.769764253799	streaming
621.3326	0.0968851845827885	36	diastole	22	A	2081.769764253799	streaming
621.5301	0.0968851845827885	36	diastole	23	B	500.0	streaming
621.7276	0.0968851845827885	36	diastole	24	A	2081.769764253799	streaming
622.0356	0.0968851845827885	36	diastole	25	A	2081.769764253799	streaming
622.2319	0.0968851845827885	36	diastole	26	B	500.0	streaming
622.4281	0.0968851845827885	36	diastole	27	A	2081.769764253799	streaming
622.7044	0.0968851845827885	36	diastole	28	A	2081.769764253799	streaming
622.8968	0.0968851845827885	36	diastole	29	B	500.0	streaming
623.0893	0.0968851845827885	36	diastole	30	A	2081.769764253799	streaming
623.4031	0.0968851845827885	36	diastole	31	A	2081.769764253799	streaming
623.5919	0.0968851845827885	36	diastole	32	B	500.0	streaming
623.7806	0.0968851845827885	36	diastole	33	A	2081.769764253799	streaming
624.1631	0.0968851845827885	36	diastole	34	A	2081.769764253799	streaming
624.3519	0.0968851845827885	36	diastole	35	B	500.0	streaming
624.5406	0.0968851845827885	36	diastole	36	A	2081.769764253799	streaming
624.9231	0.0968851845827885	36	diastole	37	A	2081.769764253799	streaming
625.1119	0.0968851845827885	36	diastole	38	B	500.0	streaming
625.3006	0.0968851845827885	36	diastole	39	A	2081.769764253799	streaming
628.1752	0.0987525865202769	37	systole	1	A	2130.3297690552017	coherent
628.3802	0.0987525865202769	37	systole	2	B	500.0	coherent
628.5852	0.0987525865202769	37	systole	3	A	2130.3297690552017	coherent
628.9952	0.0987525865202769	37	systole	4	A	2130.3297690552017	coherent
629.2003	0.0987525865202769	37	systole	5	B	500.0	coherent
629.4053	0.0987525865202769	37	systole	6	A	2130.3297690552017	coherent
629.7752	0.0987525865202769	37	systole	7	A	2130.3297690552017	coherent
629.9802	0.0987525865202769	37	systole	8	B	500.0	coherent
630.1853	0.0987525865202769	37	systole	9	A	2130.3297690552017	coherent
630.5552	0.0987525865202769	37	systole	10	A	2130.3297690552017	coherent
630.7602	0.0987525865202769	37	systole	11	B	500.0	coherent
630.9652	0.0987525865202769	37	systole	12	A	2130.3297690552017	coherent
631.3352	0.0987525865202769	37	systole	13	A	2130.3297690552017	coherent
631.5402	0.0987525865202769	37	systole	14	B	500.0	coherent
631.7452	0.0987525865202769	37	systole	15	A	2130.3297690552017	coherent
632.1452	0.0987525865202769	37	systole	16	A	2130.3297690552017	coherent
632.3502	0.0987525865202769	37	systole	17	B	500.0	coherent
632.5552	0.0987525865202769	37	systole	18	A	2130.3297690552017	coherent
632.9451	0.0987525865202769	37	systole	19	A	2130.3297690552017	coherent
633.1502	0.0987525865202769	37	systole	20	B	500.0	coherent
633.3552	0.0987525865202769	37	systole	21	A	2130.3297690552017	coherent
633.7205	0.0987525865202769	37	systole	22	A	2130.3297690552017	coherent
633.9243	0.0987525865202769	37	systole	23	B	500.0	coherent
634.1281	0.0987525865202769	37	systole	24	A	2130.3297690552017	coherent
634.5006	0.0987525865202769	37	systole	25	A	2130.3297690552017	coherent
634.7043	0.0987525865202769	37	systole	26	B	500.0	coherent
634.9081	0.0987525865202769	37	systole	27	A	2130.3297690552017	coherent
635.2614	0.0987525865202769	37	systole	28	A	2130.3297690552017	coherent
635.4626	0.0987525865202769	37	systole	29	B	500.0	coherent
635.6639	0.0987525865202769	37	systole	30	A	2130.3297690552017	coherent
636.0568	0.0987525865202769	37	systole	31	A	2130.3297690552017	coherent
636.2568	0.0987525865202769	37	systole	32	B	500.0	coherent
636.4567	0.0987525865202769	37	systole	33	A	2130.3297690552017	coherent
636.8567	0.0987525865202769	37	systole	34	A	2130.3297690552017	coherent
637.0567	0.0987525865202769	37	systole	35	B	500.0	coherent
637.2567	0.0987525865202769	37	systole	36	A	2130.3297690552017	coherent
639.8838	0.0975014499272219	38	systole	1	A	4774.652015515508	streaming
640.0776	0.0975014499272219	38	systole	2	B	500.0	streaming
640.2713	0.0975014499272219	38	systole	3	A	4774.652015515508	streaming
640.6537	0.0975014499272219	38	systole	4	A	4774.652015515508	streaming
640.8476	0.0975014499272219	38	systole	5	B	500.0	streaming
641.0413	0.0975014499272219	38	systole	6	A	4774.652015515508	streaming
641.4482	0.0975014499272219	38	systole	7	A	4774.652015515508	streaming
641.6433	0.0975014499272219	38	systole	8	B	500.0	streaming
641.8382	0.0975014499272219	38	systole	9	A	4774.652015515508	streaming
642.2382	0.0975014499272219	38	systole	10	A	4774.652015515508	streaming
642.4332	0.0975014499272219	38	systole	11	B	500.0	streaming
642.6282	0.0975014499272219	38	systole	12	A	4774.652015515508	streaming
643.0281	0.0975014499272219	38	systole	13	A	4774.652015515508	streaming
643.2231	0.0975014499272219	38	systole	14	B	500.0	streaming
643.4181	0.0975014499272219	38	systole	15	A	4774.652015515508	streaming
643.7785	0.0975014499272219	38	systole	16	A	4774.652015515508	streaming
643.9711	0.0975014499272219	38	systole	17	B	500.0	streaming
644.1635	0.0975014499272219	38	systole	18	A	4774.652015515508	streaming
644.5381	0.0975014499272219	38	systole	19	A	4774.652015515508	streaming
644.7307	0.0975014499272219	38	systole	20	B	500.0	streaming
644.9231	0.0975014499272219	38	systole	21	A	4774.652015515508	streaming
645.3181	0.0975014499272219	38	systole	22	A	4774.652015515508	streaming
645.5107	0.0975014499272219	38	systole	23	B	500.0	streaming
645.7031	0.0975014499272219	38	systole	24	A	4774.652015515508	streaming
646.1081	0.0975014499272219	38	systole	25	A	4774.652015515508	streaming
646.3007	0.0975014499272219	38	systole	26	B	500.0	streaming
646.4931	0.0975014499272219	38	systole	27	A	4774.652015515508	streaming
646.8681	0.0975014499272219	38	systole	28	A	4774.652015515508	streaming
647.0607	0.0975014499272219	38	systole	29	B	500.0	streaming
647.2531	0.0975014499272219	38	systole	30	A	4774.652015515508	streaming
647.6528	0.0975014499272219	38	systole	31	A	4774.652015515508	streaming
647.8466	0.0975014499272219	38	systole	32	B	500.0	streaming
648.0403	0.0975014499272219	38	systole	33	A	4774.652015515508	streaming
648.4328	0.0975014499272219	38	systole	34	A	4774.652015515508	streaming
648.6266	0.0975014499272219	38	systole	35	B	500.0	streaming
648.8203	0.0975014499272219	38	systole	36	A	4774.652015515508	streaming
649.2128	0.0975014499272219	38	systole	37	A	4774.652015515508	streaming
649.4066	0.0975014499272219	38	systole	38	B	500.0	streaming
649.6003	0.0975014499272219	38	systole	39	A	4774.652015515508	streaming
651.4292	0.0962539356551133	39	systole	1	A	4665.815755436727	streaming
651.6218	0.0962539356551133	39	systole	2	B	500.0	streaming
651.8142	0.0962539356551133	39	systole	3	A	4665.815755436727	streaming
652.2238	0.0962539356551133	39	systole	4	A	4665.815755436727	streaming
652.4176	0.0962539356551133	39	systole	5	B	500.0	streaming
652.6113	0.0962539356551133	39	systole	6	A	4665.815755436727	streaming
653.0138	0.0962539356551133	39	systole	7	A	4665.815755436727	streaming
653.2076	0.0962539356551133	39	systole	8	B	500.0	streaming
653.4013	0.0962539356551133	39	systole	9	A	4665.815755436727	streaming
653.7792	0.0962539356551133	39	systole	10	A	4665.815755436727	streaming
653.9717	0.0962539356551133	39	systole	11	B	500.0	streaming
654.1642	0.0962539356551133	39	systole	12	A	4665.815755436727	streaming
654.5491	0.0962539356551133	39	systole	13	A	4665.815755436727	streaming
654.7417	0.0962539356551133	39	systole	14	B	500.0	streaming
654.9341	0.0962539356551133	39	systole	15	A	4665.815755436727	streaming
655.3191	0.0962539356551133	39	systole	16	A	4665.815755436727	streaming
655.5116	0.0962539356551133	39	systole	17	B	500.0	streaming
655.7041	0.0962539356551133	39	systole	18	A	4665.815755436727	streaming
656.1291	0.0962539356551133	39	systole	19	A	4665.815755436727	streaming
656.3217	0.0962539356551133	39	systole	20	B	500.0	streaming
656.5141	0.0962539356551133	39	systole	21	A	4665.815755436727	streaming
656.9391	0.0962539356551133	39	systole	22	A	4665.815755436727	streaming
657.1317	0.0962539356551133	39	systole	23	B	500.0	streaming
657.3241	0.0962539356551133	39	systole	24	A	4665.815755436727	streaming
657.733	0.0962539356551133	39	systole	25	A	4665.815755436727	streaming
657.9293	0.0962539356551133	39	systole	26	B	500.0	streaming
658.1255	0.0962539356551133	39	systole	27	A	4665.815755436727	streaming
658.5422	0.0962539356551133	39	systole	28	A	4665.815755436727	streaming
658.741	0.0962539356551133	39	systole	29	B	500.0	streaming
658.9397	0.0962539356551133	39	systole	30	A	4665.815755436727	streaming
659.3768	0.0962539356551133	39	systole	31	A	4665.815755436727	streaming
659.5768	0.0962539356551133	39	systole	32	B	500.0	streaming
659.7768	0.0962539356551133	39	systole	33	A	4665.815755436727	streaming
660.2068	0.0962539356551133	39	systole	34	A	4665.815755436727	streaming
660.4068	0.0962539356551133	39	systole	35	B	500.0	streaming
660.6068	0.0962539356551133	39	systole	36	A	4665.815755436727	streaming
661.0069	0.0962539356551133	39	systole	37	A	4665.815755436727	streaming
661.2069	0.0962539356551133	39	systole	38	B	500.0	streaming
661.4069	0.0962539356551133	39	systole	39	A	4665.815755436727	streaming
663.5215	0.1000063936808146	40	systole	1	A	2390.658456026444	coherent
663.7229	0.1000063936808146	40	systole	2	B	500.0	coherent
663.924	0.1000063936808146	40	systole	3	A	2390.658456026444	coherent
664.3331	0.1000063936808146	40	systole	4	A	2390.658456026444	coherent
664.5345	0.1000063936808146	40	systole	5	B	500.0	coherent
664.7356	0.1000063936808146	40	systole	6	A	2390.658456026444	coherent
665.1447	0.1000063936808146	40	systole	7	A	2390.658456026444	coherent
665.3461	0.1000063936808146	40	systole	8	B	500.0	coherent
665.5472	0.1000063936808146	40	systole	9	A	2390.658456026444	coherent
665.9428	0.1000063936808146	40	systole	10	A	2390.658456026444	coherent
666.1441	0.1000063936808146	40	systole	11	B	500.0	coherent
666.3453	0.1000063936808146	40	systole	12	A	2390.658456026444	coherent
666.7578	0.1000063936808146	40	systole	13	A	2390.658456026444	coherent
666.9605	0.1000063936808146	40	systole	14	B	500.0	coherent
667.1629	0.1000063936808146	40	systole	15	A	2390.658456026444	coherent
667.5786	0.1000063936808146	40	systole	16	A	2390.658456026444	coherent
667.7815	0.1000063936808146	40	systole	17	B	500.0	coherent
667.9841	0.1000063936808146	40	systole	18	A	2390.658456026444	coherent
668.3986	0.1000063936808146	40	systole	19	A	2390.658456026444	coherent
668.6014	0.1000063936808146	40	systole	20	B	500.0	coherent
668.8041	0.1000063936808146	40	systole	21	A	2390.658456026444	coherent
669.1885	0.1000063936808146	40	systole	22	A	2390.658456026444	coherent
669.3914	0.1000063936808146	40	systole	23	B	500.0	coherent
669.594	0.1000063936808146	40	systole	24	A	2390.658456026444	coherent
669.9586	0.1000063936808146	40	systole	25	A	2390.658456026444	coherent
670.1615	0.1000063936808146	40	systole	26	B	500.0	coherent
670.3641	0.1000063936808146	40	systole	27	A	2390.658456026444	coherent
670.7024	0.1000063936808146	40	systole	28	A	2390.658456026444	coherent
670.9036	0.1000063936808146	40	systole	29	B	500.0	coherent
671.1045	0.1000063936808146	40	systole	30	A	2390.658456026444	coherent
671.4531	0.1000063936808146	40	systole	31	A	2390.658456026444	coherent
671.6517	0.1000063936808146	40	systole	32	B	500.0	coherent
671.8501	0.1000063936808146	40	systole	33	A	2390.658456026444	coherent
672.2132	0.1000063936808146	40	systole	34	A	2390.658456026444	coherent
672.4118	0.1000063936808146	40	systole	35	B	500.0	coherent
672.6101	0.1000063936808146	40	systole	36	A	2390.658456026444	coherent
672.9362	0.1000063936808146	40	systole	37	A	2390.658456026444	coherent
673.1276	0.1000063936808146	40	systole	38	B	500.0	coherent
673.3187	0.1000063936808146	40	systole	39	A	2390.658456026444	coherent
675.1827	0.095631523465272	41	systole	1	A	4353.967332736322	coherent
675.3732	0.095631523465272	41	systole	2	B	500.0	coherent
675.5632	0.095631523465272	41	systole	3	A	4353.967332736322	coherent
675.9447	0.095631523465272	41	systole	4	A	4353.967332736322	coherent
676.1351	0.095631523465272	41	systole	5	B	500.0	coherent
676.3252	0.095631523465272	41	systole	6	A	4353.967332736322	coherent
676.7066	0.095631523465272	41	systole	7	A	4353.967332736322	coherent
676.8971	0.095631523465272	41	systole	8	B	500.0	coherent
677.0872	0.095631523465272	41	systole	9	A	4353.967332736322	coherent
677.4658	0.095631523465272	41	systole	10	A	4353.967332736322	coherent
677.656	0.095631523465272	41	systole	11	B	500.0	coherent
677.8458	0.095631523465272	41	systole	12	A	4353.967332736322	coherent
678.2259	0.095631523465272	41	systole	13	A	4353.967332736322	coherent
678.416	0.095631523465272	41	systole	14	B	500.0	coherent
678.6059	0.095631523465272	41	systole	15	A	4353.967332736322	coherent
678.9968	0.095631523465272	41	systole	16	A	4353.967332736322	coherent
679.1872	0.095631523465272	41	systole	17	B	500.0	coherent
679.3773	0.095631523465272	41	systole	18	A	4353.967332736322	coherent
679.7668	0.095631523465272	41	systole	19	A	4353.967332736322	coherent
679.9572	0.095631523465272	41	systole	20	B	500.0	coherent
680.1472	0.095631523465272	41	systole	21	A	4353.967332736322	coherent
680.5039	0.095631523465272	41	systole	22	A	4353.967332736322	coherent
680.6941	0.095631523465272	41	systole	23	B	500.0	coherent
680.8839	0.095631523465272	41	systole	24	A	4353.967332736322	coherent
681.2242	0.095631523465272	41	systole	25	A	4353.967332736322	coherent
681.4144	0.095631523465272	41	systole	26	B	500.0	coherent
681.6042	0.095631523465272	41	systole	27	A	4353.967332736322	coherent
681.9446	0.095631523465272	41	systole	28	A	4353.967332736322	coherent
682.1348	0.095631523465272	41	systole	29	B	500.0	coherent
