onset	duration	trial_num	trial_type	tone_num	tone_type	frequency	response
59.55839999999989	0.1056275800801813	1	systole	1	B	500	diastole
60.39840000000004	0.1056275800801813	1	systole	2	B	500	diastole
61.192600000000084	0.1056275800801813	1	systole	3	B	500	diastole
62.02669999999989	0.1056275800801813	1	systole	4	B	500	diastole
62.86670000000004	0.1056275800801813	1	systole	5	B	500	diastole
63.72260000000006	0.1056275800801813	1	systole	6	B	500	diastole
64.57259999999997	0.1056275800801813	1	systole	7	B	500	diastole
65.35670000000005	0.1056275800801813	1	systole	8	B	500	diastole
66.14660000000003	0.1056275800801813	1	systole	9	B	500	diastole
66.9366	0.1056275800801813	1	systole	10	B	500	diastole
67.74499999999989	0.1056275800801813	1	systole	11	B	500	diastole
68.49919999999997	0.1056275800801813	1	systole	12	B	500	diastole
74.28950000000009	0.0987494516302831	2	diastole	1	B	500	diastole
75.12920000000008	0.0987494516302831	2	diastole	2	B	500	diastole
75.96890000000008	0.0987494516302831	2	diastole	3	B	500	diastole
76.80040000000008	0.0987494516302831	2	diastole	4	B	500	diastole
77.61040000000003	0.0987494516302831	2	diastole	5	B	500	diastole
78.4384	0.0987494516302831	2	diastole	6	B	500	diastole
79.24839999999995	0.0987494516302831	2	diastole	7	B	500	diastole
80.04029999999989	0.0987494516302831	2	diastole	8	B	500	diastole
80.84040000000005	0.0987494516302831	2	diastole	9	B	500	diastole
81.61210000000005	0.0987494516302831	2	diastole	10	B	500	diastole
82.43200000000002	0.0987494516302831	2	diastole	11	B	500	diastole
83.28199999999993	0.0987494516302831	2	diastole	12	B	500	diastole
86.17910000000006	0.1024973249295726	3	systole	1	B	500	diastole
86.98919999999998	0.1024973249295726	3	systole	2	B	500	diastole
87.78919999999994	0.1024973249295726	3	systole	3	B	500	diastole
88.6090999999999	0.1024973249295726	3	systole	4	B	500	diastole
89.44910000000004	0.1024973249295726	3	systole	5	B	500	diastole
90.28909999999996	0.1024973249295726	3	systole	6	B	500	diastole
91.12490000000003	0.1024973249295726	3	systole	7	B	500	diastole
91.90910000000008	0.1024973249295726	3	systole	8	B	500	diastole
92.69910000000004	0.1024973249295726	3	systole	9	B	500	diastole
93.48910000000001	0.1024973249295726	3	systole	10	B	500	diastole
94.3092999999999	0.1024973249295726	3	systole	11	B	500	diastole
95.12940000000003	0.1024973249295726	3	systole	12	B	500	diastole
98.46329999999989	0.1025045314454473	4	systole	1	B	500	diastole
99.27330000000006	0.1025045314454473	4	systole	2	B	500	diastole
100.1092000000001	0.1025045314454473	4	systole	3	B	500	diastole
100.9393	0.1025045314454473	4	systole	4	B	500	diastole
101.7693999999999	0.1025045314454473	4	systole	5	B	500	diastole
102.5739000000001	0.1025045314454473	4	systole	6	B	500	diastole
103.36549999999988	0.1025045314454473	4	systole	7	B	500	diastole
104.1570999999999	0.1025045314454473	4	systole	8	B	500	diastole
104.94859999999994	0.1025045314454473	4	systole	9	B	500	diastole
105.73669999999993	0.1025045314454473	4	systole	10	B	500	diastole
106.5268000000001	0.1025045314454473	4	systole	11	B	500	diastole
109.28909999999996	0.0987542437505908	5	diastole	1	B	500	diastole
110.10899999999992	0.0987542437505908	5	diastole	2	B	500	diastole
110.90910000000008	0.0987542437505908	5	diastole	3	B	500	diastole
111.71900000000005	0.0987542437505908	5	diastole	4	B	500	diastole
112.50700000000006	0.0987542437505908	5	diastole	5	B	500	diastole
113.29500000000007	0.0987542437505908	5	diastole	6	B	500	diastole
114.08300000000008	0.0987542437505908	5	diastole	7	B	500	diastole
114.89110000000005	0.0987542437505908	5	diastole	8	B	500	diastole
115.72929999999997	0.0987542437505908	5	diastole	9	B	500	diastole
116.5507	0.0987542437505908	5	diastole	10	B	500	diastole
117.36899999999991	0.0987542437505908	5	diastole	11	B	500	diastole
118.18889999999988	0.0987542437505908	5	diastole	12	B	500	diastole
121.1699000000001	0.1024870750843547	6	systole	1	B	500	diastole
122.00990000000002	0.1024870750843547	6	systole	2	B	500	diastole
122.88650000000007	0.1024870750843547	6	systole	3	B	500	diastole
123.6866	0.1024870750843547	6	systole	4	B	500	diastole
124.48669999999993	0.1024870750843547	6	systole	5	B	500	diastole
125.35840000000007	0.1024870750843547	6	systole	6	B	500	diastole
126.21839999999997	0.1024870750843547	6	systole	7	B	500	diastole
127.04269999999997	0.1024870750843547	6	systole	8	B	500	diastole
127.87290000000007	0.1024870750843547	6	systole	9	B	500	diastole
128.72890000000007	0.1024870750843547	6	systole	10	B	500	diastole
129.57899999999995	0.1024870750843547	6	systole	11	B	500	diastole
134.20429999999988	0.1056029402534477	7	diastole	1	B	500	systole
135.0344	0.1056029402534477	7	diastole	2	B	500	systole
135.8161	0.1056029402534477	7	diastole	3	B	500	systole
136.64660000000003	0.1056029402534477	7	diastole	4	B	500	systole
137.51430000000005	0.1056029402534477	7	diastole	5	B	500	systole
138.3164999999999	0.1056029402534477	7	diastole	6	B	500	systole
139.12650000000008	0.1056029402534477	7	diastole	7	B	500	systole
139.93650000000002	0.1056029402534477	7	diastole	8	B	500	systole
140.77649999999994	0.1056029402534477	7	diastole	9	B	500	systole
141.6545000000001	0.1056029402534477	7	diastole	10	B	500	systole
142.52109999999993	0.1056029402534477	7	diastole	11	B	500	systole
145.03459999999995	0.1056122686713934	8	diastole	1	B	500	systole
145.8547000000001	0.1056122686713934	8	diastole	2	B	500	systole
146.7222999999999	0.1056122686713934	8	diastole	3	B	500	systole
147.58210000000008	0.1056122686713934	8	diastole	4	B	500	systole
148.37599999999998	0.1056122686713934	8	diastole	5	B	500	systole
149.17769999999996	0.1056122686713934	8	diastole	6	B	500	systole
150.0139999999999	0.1056122686713934	8	diastole	7	B	500	systole
150.86200000000008	0.1056122686713934	8	diastole	8	B	500	systole
151.70350000000008	0.1056122686713934	8	diastole	9	B	500	systole
152.51189999999997	0.1056122686713934	8	diastole	10	B	500	systole
153.34179999999992	0.1056122686713934	8	diastole	11	B	500	systole
154.19360000000006	0.1056122686713934	8	diastole	12	B	500	systole
157.08069999999998	0.1042421560268849	9	systole	1	B	500	systole
157.90069999999992	0.1042421560268849	9	systole	2	B	500	systole
158.70489999999995	0.1042421560268849	9	systole	3	B	500	systole
159.48929999999996	0.1042421560268849	9	systole	4	B	500	systole
160.3191999999999	0.1042421560268849	9	systole	5	B	500	systole
161.15930000000003	0.1042421560268849	9	systole	6	B	500	systole
161.96929999999998	0.1042421560268849	9	systole	7	B	500	systole
162.75929999999994	0.1042421560268849	9	systole	8	B	500	systole
163.54919999999993	0.1042421560268849	9	systole	9	B	500	systole
164.35349999999994	0.1042421560268849	9	systole	10	B	500	systole
165.15789999999993	0.1042421560268849	9	systole	11	B	500	systole
165.9679000000001	0.1042421560268849	9	systole	12	B	500	systole
169.72250000000008	0.1018712987424805	10	diastole	1	B	500	diastole
170.50260000000003	0.1018712987424805	10	diastole	2	B	500	diastole
171.28279999999995	0.1018712987424805	10	diastole	3	B	500	diastole
172.11099999999988	0.1018712987424805	10	diastole	4	B	500	diastole
172.93900000000008	0.1018712987424805	10	diastole	5	B	500	diastole
173.72900000000004	0.1018712987424805	10	diastole	6	B	500	diastole
174.53909999999996	0.1018712987424805	10	diastole	7	B	500	diastole
175.34089999999992	0.1018712987424805	10	diastole	8	B	500	diastole
176.15100000000007	0.1018712987424805	10	diastole	9	B	500	diastole
176.971	0.1018712987424805	10	diastole	10	B	500	diastole
177.76279999999997	0.1018712987424805	10	diastole	11	B	500	diastole
181.0326	0.1018686750321649	11	diastole	1	B	500	diastole
181.81259999999997	0.1018686750321649	11	diastole	2	B	500	diastole
182.6126999999999	0.1018686750321649	11	diastole	3	B	500	diastole
183.44029999999998	0.1018686750321649	11	diastole	4	B	500	diastole
184.26859999999988	0.1018686750321649	11	diastole	5	B	500	diastole
185.0709999999999	0.1018686750321649	11	diastole	6	B	500	diastole
185.8409999999999	0.1018686750321649	11	diastole	7	B	500	diastole
186.6228000000001	0.1018686750321649	11	diastole	8	B	500	diastole
187.39480000000003	0.1018686750321649	11	diastole	9	B	500	diastole
188.21479999999997	0.1018686750321649	11	diastole	10	B	500	diastole
188.98779999999988	0.1018686750321649	11	diastole	11	B	500	diastole
189.76769999999988	0.1018686750321649	11	diastole	12	B	500	diastole
193.97900000000004	0.1012524606776423	12	diastole	1	B	500	systole
194.80899999999997	0.1012524606776423	12	diastole	2	B	500	systole
195.62920000000008	0.1012524606776423	12	diastole	3	B	500	systole
196.4592	0.1012524606776423	12	diastole	4	B	500	systole
197.28909999999996	0.1012524606776423	12	diastole	5	B	500	systole
198.09899999999993	0.1012524606776423	12	diastole	6	B	500	systole
198.90899999999988	0.1012524606776423	12	diastole	7	B	500	systole
199.7092	0.1012524606776423	12	diastole	8	B	500	systole
200.47419999999988	0.1012524606776423	12	diastole	9	B	500	systole
201.26420000000007	0.1012524606776423	12	diastole	10	B	500	systole
202.05420000000004	0.1012524606776423	12	diastole	11	B	500	systole
202.8841	0.1012524606776423	12	diastole	12	B	500	systole
205.3025	0.1006381097249686	13	diastole	1	B	500	diastole
206.11259999999993	0.1006381097249686	13	diastole	2	B	500	diastole
206.93270000000007	0.1006381097249686	13	diastole	3	B	500	diastole
207.69270000000006	0.1006381097249686	13	diastole	4	B	500	diastole
208.46280000000002	0.1006381097249686	13	diastole	5	B	500	diastole
209.23289999999997	0.1006381097249686	13	diastole	6	B	500	diastole
210.0426	0.1006381097249686	13	diastole	7	B	500	diastole
210.8143	0.1006381097249686	13	diastole	8	B	500	diastole
211.59429999999998	0.1006381097249686	13	diastole	9	B	500	diastole
212.32269999999994	0.1006381097249686	13	diastole	10	B	500	diastole
213.1226999999999	0.1006381097249686	13	diastole	11	B	500	diastole
213.90249999999992	0.1006381097249686	13	diastole	12	B	500	diastole
214.68239999999992	0.1006381097249686	13	diastole	13	B	500	diastole
217.36239999999998	0.0974959012819454	14	systole	1	B	500	systole
218.1425999999999	0.0974959012819454	14	systole	2	B	500	systole
218.9025999999999	0.0974959012819454	14	systole	3	B	500	systole
219.6724999999999	0.0974959012819454	14	systole	4	B	500	systole
220.44249999999988	0.0974959012819454	14	systole	5	B	500	systole
221.18679999999995	0.0974959012819454	14	systole	6	B	500	systole
221.88509999999997	0.0974959012819454	14	systole	7	B	500	systole
222.5951	0.0974959012819454	14	systole	8	B	500	systole
223.28919999999994	0.0974959012819454	14	systole	9	B	500	systole
223.96579999999994	0.0974959012819454	14	systole	10	B	500	systole
224.66589999999997	0.0974959012819454	14	systole	11	B	500	systole
225.3225	0.0974959012819454	14	systole	12	B	500	systole
226.00240000000008	0.0974959012819454	14	systole	13	B	500	systole
228.79770000000008	0.0881289567914791	15	diastole	1	B	500	diastole
229.60809999999992	0.0881289567914791	15	diastole	2	B	500	diastole
230.4194	0.0881289567914791	15	diastole	3	B	500	diastole
231.18900000000008	0.0881289567914791	15	diastole	4	B	500	diastole
232.02700000000004	0.0881289567914791	15	diastole	5	B	500	diastole
232.78700000000003	0.0881289567914791	15	diastole	6	B	500	diastole
233.51700000000005	0.0881289567914791	15	diastole	7	B	500	diastole
234.2274	0.0881289567914791	15	diastole	8	B	500	diastole
234.9378999999999	0.0881289567914791	15	diastole	9	B	500	diastole
235.58490000000006	0.0881289567914791	15	diastole	10	B	500	diastole
236.26479999999992	0.0881289567914791	15	diastole	11	B	500	diastole
236.9034999999999	0.0881289567914791	15	diastole	12	B	500	diastole
237.58359999999993	0.0881289567914791	15	diastole	13	B	500	diastole
243.2548999999999	0.0893758874735795	16	systole	1	B	500	systole
244.04510000000005	0.0893758874735795	16	systole	2	B	500	systole
244.87429999999995	0.0893758874735795	16	systole	3	B	500	systole
245.65419999999995	0.0893758874735795	16	systole	4	B	500	systole
246.43409999999994	0.0893758874735795	16	systole	5	B	500	systole
247.1341	0.0893758874735795	16	systole	6	B	500	systole
247.8382999999999	0.0893758874735795	16	systole	7	B	500	systole
248.52909999999997	0.0893758874735795	16	systole	8	B	500	systole
249.21409999999992	0.0893758874735795	16	systole	9	B	500	systole
249.95409999999993	0.0893758874735795	16	systole	10	B	500	systole
250.69409999999993	0.0893758874735795	16	systole	11	B	500	systole
251.42239999999993	0.0893758874735795	16	systole	12	B	500	systole
252.16259999999988	0.0893758874735795	16	systole	13	B	500	systole
255.13599999999997	0.092500950966496	17	systole	1	B	500	diastole
255.98199999999997	0.092500950966496	17	systole	2	B	500	diastole
256.82359999999994	0.092500950966496	17	systole	3	B	500	diastole
257.6509000000001	0.092500950966496	17	systole	4	B	500	diastole
258.44219999999996	0.092500950966496	17	systole	5	B	500	diastole
259.2222999999999	0.092500950966496	17	systole	6	B	500	diastole
260.0022999999999	0.092500950966496	17	systole	7	B	500	diastole
260.7823000000001	0.092500950966496	17	systole	8	B	500	diastole
261.55230000000006	0.092500950966496	17	systole	9	B	500	diastole
262.32220000000007	0.092500950966496	17	systole	10	B	500	diastole
263.05179999999996	0.092500950966496	17	systole	11	B	500	diastole
263.7816	0.092500950966496	17	systole	12	B	500	diastole
266.35940000000005	0.0956176033942028	18	diastole	1	B	500	systole
267.1196	0.0956176033942028	18	diastole	2	B	500	systole
267.8789999999999	0.0956176033942028	18	diastole	3	B	500	systole
268.61069999999995	0.0956176033942028	18	diastole	4	B	500	systole
269.32439999999997	0.0956176033942028	18	diastole	5	B	500	systole
270.02790000000005	0.0956176033942028	18	diastole	6	B	500	systole
270.7478000000001	0.0956176033942028	18	diastole	7	B	500	systole
271.46759999999995	0.0956176033942028	18	diastole	8	B	500	systole
272.1676	0.0956176033942028	18	diastole	9	B	500	systole
272.8408999999999	0.0956176033942028	18	diastole	10	B	500	systole
273.51240000000007	0.0956176033942028	18	diastole	11	B	500	systole
274.21399999999994	0.0956176033942028	18	diastole	12	B	500	systole
274.9540999999999	0.0956176033942028	18	diastole	13	B	500	systole
275.7738999999999	0.0956176033942028	18	diastole	14	B	500	systole
277.8633	0.0906294888700358	19	systole	1	B	500	systole
278.6732999999999	0.0906294888700358	19	systole	2	B	500	systole
279.4664	0.0906294888700358	19	systole	3	B	500	systole
280.2363	0.0906294888700358	19	systole	4	B	500	systole
280.9864	0.0906294888700358	19	systole	5	B	500	systole
281.7587000000001	0.0906294888700358	19	systole	6	B	500	systole
282.52729999999997	0.0906294888700358	19	systole	7	B	500	systole
283.3171	0.0906294888700358	19	systole	8	B	500	systole
284.0712000000001	0.0906294888700358	19	systole	9	B	500	systole
284.8613	0.0906294888700358	19	systole	10	B	500	systole
285.6712	0.0906294888700358	19	systole	11	B	500	systole
286.48109999999997	0.0906294888700358	19	systole	12	B	500	systole
287.2810999999999	0.0906294888700358	19	systole	13	B	500	systole
290.77909999999997	0.0987456249422393	20	diastole	1	B	500	diastole
291.56909999999993	0.0987456249422393	20	diastole	2	B	500	diastole
292.3294000000001	0.0987456249422393	20	diastole	3	B	500	diastole
293.0908999999999	0.0987456249422393	20	diastole	4	B	500	diastole
293.8608999999999	0.0987456249422393	20	diastole	5	B	500	diastole
294.6607999999999	0.0987456249422393	20	diastole	6	B	500	diastole
295.40409999999997	0.0987456249422393	20	diastole	7	B	500	diastole
296.1388999999999	0.0987456249422393	20	diastole	8	B	500	diastole
296.9540999999999	0.0987456249422393	20	diastole	9	B	500	diastole
297.7539999999999	0.0987456249422393	20	diastole	10	B	500	diastole
298.5640000000001	0.0987456249422393	20	diastole	11	B	500	diastole
299.374	0.0987456249422393	20	diastole	12	B	500	diastole
304.9559999999999	0.0999989375122822	21	diastole	1	B	500	systole
305.7958000000001	0.0999989375122822	21	diastole	2	B	500	systole
306.5955999999999	0.0999989375122822	21	diastole	3	B	500	systole
307.39560000000006	0.0999989375122822	21	diastole	4	B	500	systole
308.16560000000004	0.0999989375122822	21	diastole	5	B	500	systole
308.9656	0.0999989375122822	21	diastole	6	B	500	systole
309.7753	0.0999989375122822	21	diastole	7	B	500	systole
310.58500000000004	0.0999989375122822	21	diastole	8	B	500	systole
311.39509999999996	0.0999989375122822	21	diastole	9	B	500	systole
312.1950999999999	0.0999989375122822	21	diastole	10	B	500	systole
312.99520000000007	0.0999989375122822	21	diastole	11	B	500	systole
313.7651000000001	0.0999989375122822	21	diastole	12	B	500	systole
316.77150000000006	0.0931303398683667	22	systole	1	B	500	systole
317.52150000000006	0.0931303398683667	22	systole	2	B	500	systole
318.2872	0.0931303398683667	22	systole	3	B	500	systole
319.02739999999994	0.0931303398683667	22	systole	4	B	500	systole
319.7675999999999	0.0931303398683667	22	systole	5	B	500	systole
320.51189999999997	0.0931303398683667	22	systole	6	B	500	systole
321.2820999999999	0.0931303398683667	22	systole	7	B	500	systole
322.05770000000007	0.0931303398683667	22	systole	8	B	500	systole
322.80770000000007	0.0931303398683667	22	systole	9	B	500	systole
323.55770000000007	0.0931303398683667	22	systole	10	B	500	systole
324.30770000000007	0.0931303398683667	22	systole	11	B	500	systole
325.0075999999999	0.0931303398683667	22	systole	12	B	500	systole
325.7075	0.0931303398683667	22	systole	13	B	500	systole
329.0757000000001	0.0925026220502331	23	diastole	1	B	500	diastole
329.8073999999999	0.0925026220502331	23	diastole	2	B	500	diastole
330.5473999999999	0.0925026220502331	23	diastole	3	B	500	diastole
331.3523	0.0925026220502331	23	diastole	4	B	500	diastole
332.1589999999999	0.0925026220502331	23	diastole	5	B	500	diastole
332.9193	0.0925026220502331	23	diastole	6	B	500	diastole
333.66920000000005	0.0925026220502331	23	diastole	7	B	500	diastole
334.44769999999994	0.0925026220502331	23	diastole	8	B	500	diastole
335.2439999999999	0.0925026220502331	23	diastole	9	B	500	diastole
336.0058999999999	0.0925026220502331	23	diastole	10	B	500	diastole
336.7857999999999	0.0925026220502331	23	diastole	11	B	500	diastole
337.5458000000001	0.0925026220502331	23	diastole	12	B	500	diastole
338.3058000000001	0.0925026220502331	23	diastole	13	B	500	diastole
340.33670000000006	0.0962599676568061	24	systole	1	B	500	systole
341.1467	0.0962599676568061	24	systole	2	B	500	systole
341.96849999999995	0.0962599676568061	24	systole	3	B	500	systole
342.7484999999999	0.0962599676568061	24	systole	4	B	500	systole
343.5286000000001	0.0962599676568061	24	systole	5	B	500	systole
344.3110999999999	0.0962599676568061	24	systole	6	B	500	systole
345.0926999999999	0.0962599676568061	24	systole	7	B	500	systole
345.93820000000005	0.0962599676568061	24	systole	8	B	500	systole
346.7582	0.0962599676568061	24	systole	9	B	500	systole
347.5664999999999	0.0962599676568061	24	systole	10	B	500	systole
348.3964000000001	0.0962599676568061	24	systole	11	B	500	systole
349.2363	0.0962599676568061	24	systole	12	B	500	systole
350.07629999999995	0.0962599676568061	24	systole	13	B	500	systole
354.77420000000006	0.1037426624679938	25	diastole	1	B	500	diastole
355.5742	0.1037426624679938	25	diastole	2	B	500	diastole
356.3441	0.1037426624679938	25	diastole	3	B	500	diastole
357.0842	0.1037426624679938	25	diastole	4	B	500	diastole
357.82439999999997	0.1037426624679938	25	diastole	5	B	500	diastole
358.53909999999996	0.1037426624679938	25	diastole	6	B	500	diastole
359.26430000000005	0.1037426624679938	25	diastole	7	B	500	diastole
359.9605999999999	0.1037426624679938	25	diastole	8	B	500	diastole
360.63390000000004	0.1037426624679938	25	diastole	9	B	500	diastole
361.3737000000001	0.1037426624679938	25	diastole	10	B	500	diastole
362.1536000000001	0.1037426624679938	25	diastole	11	B	500	diastole
362.9833000000001	0.1037426624679938	25	diastole	12	B	500	diastole
363.8128999999999	0.1037426624679938	25	diastole	13	B	500	diastole
366.9152999999999	0.0962313124909997	26	diastole	1	B	500	diastole
367.6053999999999	0.0962313124909997	26	diastole	2	B	500	diastole
368.29549999999995	0.0962313124909997	26	diastole	3	B	500	diastole
368.9855	0.0962313124909997	26	diastole	4	B	500	diastole
369.6123	0.0962313124909997	26	diastole	5	B	500	diastole
370.30899999999997	0.0962313124909997	26	diastole	6	B	500	diastole
371.0389	0.0962313124909997	26	diastole	7	B	500	diastole
371.8085000000001	0.0962313124909997	26	diastole	8	B	500	diastole
372.57809999999995	0.0962313124909997	26	diastole	9	B	500	diastole
373.2902999999999	0.0962313124909997	26	diastole	10	B	500	diastole
374.01060000000007	0.0962313124909997	26	diastole	11	B	500	diastole
374.7309	0.0962313124909997	26	diastole	12	B	500	diastole
375.44229999999993	0.0962313124909997	26	diastole	13	B	500	diastole
377.3913	0.0912438260857015	27	systole	1	B	500	systole
378.1613	0.0912438260857015	27	systole	2	B	500	systole
378.8897999999999	0.0912438260857015	27	systole	3	B	500	systole
379.62979999999993	0.0912438260857015	27	systole	4	B	500	systole
380.3898999999999	0.0912438260857015	27	systole	5	B	500	systole
381.17139999999995	0.0912438260857015	27	systole	6	B	500	systole
381.9272000000001	0.0912438260857015	27	systole	7	B	500	systole
382.6772000000001	0.0912438260857015	27	systole	8	B	500	systole
383.4172000000001	0.0912438260857015	27	systole	9	B	500	systole
384.1573000000001	0.0912438260857015	27	systole	10	B	500	systole
384.8922	0.0912438260857015	27	systole	11	B	500	systole
385.6577	0.0912438260857015	27	systole	12	B	500	systole
386.41779999999994	0.0912438260857015	27	systole	13	B	500	systole
387.17779999999993	0.0912438260857015	27	systole	14	B	500	systole
390.2231999999999	0.0943775473861023	28	systole	1	B	500	systole
390.9631999999999	0.0943775473861023	28	systole	2	B	500	systole
391.7031999999999	0.0943775473861023	28	systole	3	B	500	systole
392.4992	0.0943775473861023	28	systole	4	B	500	systole
393.30500000000006	0.0943775473861023	28	systole	5	B	500	systole
394.08089999999993	0.0943775473861023	28	systole	6	B	500	systole
394.8508999999999	0.0943775473861023	28	systole	7	B	500	systole
395.6008999999999	0.0943775473861023	28	systole	8	B	500	systole
396.3233	0.0943775473861023	28	systole	9	B	500	systole
397.06320000000005	0.0943775473861023	28	systole	10	B	500	systole
397.79140000000007	0.0943775473861023	28	systole	11	B	500	systole
398.5311999999999	0.0943775473861023	28	systole	12	B	500	systole
402.7225000000001	0.0936214920366182	29	diastole	1	B	500	diastole
403.5239999999999	0.0936214920366182	29	diastole	2	B	500	diastole
404.27549999999997	0.0936214920366182	29	diastole	3	B	500	diastole
405.02549999999997	0.0936214920366182	29	diastole	4	B	500	diastole
405.7555	0.0936214920366182	29	diastole	5	B	500	diastole
406.4855	0.0936214920366182	29	diastole	6	B	500	diastole
407.20399999999995	0.0936214920366182	29	diastole	7	B	500	diastole
407.8880999999999	0.0936214920366182	29	diastole	8	B	500	diastole
408.56809999999996	0.0936214920366182	29	diastole	9	B	500	diastole
409.2481	0.0936214920366182	29	diastole	10	B	500	diastole
409.8882000000001	0.0936214920366182	29	diastole	11	B	500	diastole
410.6081999999999	0.0936214920366182	29	diastole	12	B	500	diastole
411.3484000000001	0.0936214920366182	29	diastole	13	B	500	diastole
415.3071	0.0937578062294051	30	diastole	1	B	500	diastole
416.0854999999999	0.0937578062294051	30	diastole	2	B	500	diastole
416.8554999999999	0.0937578062294051	30	diastole	3	B	500	diastole
417.6254999999999	0.0937578062294051	30	diastole	4	B	500	diastole
418.3953999999999	0.0937578062294051	30	diastole	5	B	500	diastole
419.15560000000005	0.0937578062294051	30	diastole	6	B	500	diastole
419.9051999999999	0.0937578062294051	30	diastole	7	B	500	diastole
420.6355000000001	0.0937578062294051	30	diastole	8	B	500	diastole
421.37699999999995	0.0937578062294051	30	diastole	9	B	500	diastole
422.12660000000005	0.0937578062294051	30	diastole	10	B	500	diastole
422.9169999999999	0.0937578062294051	30	diastole	11	B	500	diastole
423.7270000000001	0.0937578062294051	30	diastole	12	B	500	diastole
428.0281	0.0968749977764673	31	systole	1	B	500	diastole
428.7581	0.0968749977764673	31	systole	2	B	500	diastole
429.48800000000006	0.0968749977764673	31	systole	3	B	500	diastole
430.23070000000007	0.0968749977764673	31	systole	4	B	500	diastole
431.0407	0.0968749977764673	31	systole	5	B	500	diastole
431.84069999999997	0.0968749977764673	31	systole	6	B	500	diastole
432.5807	0.0968749977764673	31	systole	7	B	500	diastole
433.31089999999995	0.0968749977764673	31	systole	8	B	500	diastole
434.0410999999999	0.0968749977764673	31	systole	9	B	500	diastole
434.76109999999994	0.0968749977764673	31	systole	10	B	500	diastole
435.45769999999993	0.0968749977764673	31	systole	11	B	500	diastole
436.1703	0.0968749977764673	31	systole	12	B	500	diastole
436.8944999999999	0.0968749977764673	31	systole	13	B	500	diastole
440.4924000000001	0.0906278250040486	32	systole	1	B	500	diastole
441.2022999999999	0.0906278250040486	32	systole	2	B	500	diastole
441.9122	0.0906278250040486	32	systole	3	B	500	diastole
442.6162999999999	0.0906278250040486	32	systole	4	B	500	diastole
443.3563999999999	0.0906278250040486	32	systole	5	B	500	diastole
444.0963999999999	0.0906278250040486	32	systole	6	B	500	diastole
444.8363999999999	0.0906278250040486	32	systole	7	B	500	diastole
445.56639999999993	0.0906278250040486	32	systole	8	B	500	diastole
446.29639999999995	0.0906278250040486	32	systole	9	B	500	diastole
447.0165999999999	0.0906278250040486	32	systole	10	B	500	diastole
447.7367999999999	0.0906278250040486	32	systole	11	B	500	diastole
448.5287000000001	0.0906278250040486	32	systole	12	B	500	diastole
449.3201999999999	0.0906278250040486	32	systole	13	B	500	diastole
451.79089999999997	0.096240182465408	33	systole	1	B	500	diastole
452.5610999999999	0.096240182465408	33	systole	2	B	500	diastole
453.2614000000001	0.096240182465408	33	systole	3	B	500	diastole
453.9711	0.096240182465408	33	systole	4	B	500	diastole
454.68090000000007	0.096240182465408	33	systole	5	B	500	diastole
455.3635999999999	0.096240182465408	33	systole	6	B	500	diastole
456.06410000000005	0.096240182465408	33	systole	7	B	500	diastole
456.7288000000001	0.096240182465408	33	systole	8	B	500	diastole
457.38020000000006	0.096240182465408	33	systole	9	B	500	diastole
458.0501999999999	0.096240182465408	33	systole	10	B	500	diastole
458.7204999999999	0.096240182465408	33	systole	11	B	500	diastole
459.4200000000001	0.096240182465408	33	systole	12	B	500	diastole
460.1600000000001	0.096240182465408	33	systole	13	B	500	diastole
460.9104	0.096240182465408	33	systole	14	B	500	diastole
463.8743999999999	0.0900012322235852	34	systole	1	B	500	systole
464.60390000000007	0.0900012322235852	34	systole	2	B	500	systole
465.3138999999999	0.0900012322235852	34	systole	3	B	500	systole
466.0238999999999	0.0900012322235852	34	systole	4	B	500	systole
466.73389999999995	0.0900012322235852	34	systole	5	B	500	systole
467.4339	0.0900012322235852	34	systole	6	B	500	systole
468.13390000000004	0.0900012322235852	34	systole	7	B	500	systole
468.8339000000001	0.0900012322235852	34	systole	8	B	500	systole
469.54359999999997	0.0900012322235852	34	systole	9	B	500	systole
470.24199999999996	0.0900012322235852	34	systole	10	B	500	systole
470.99199999999996	0.0900012322235852	34	systole	11	B	500	systole
471.74199999999996	0.0900012322235852	34	systole	12	B	500	systole
472.47209999999995	0.0900012322235852	34	systole	13	B	500	systole
475.53739999999993	0.0949929821072146	35	diastole	1	B	500	systole
476.3073999999999	0.0949929821072146	35	diastole	2	B	500	systole
477.0773999999999	0.0949929821072146	35	diastole	3	B	500	systole
477.83709999999996	0.0949929821072146	35	diastole	4	B	500	systole
478.59719999999993	0.0949929821072146	35	diastole	5	B	500	systole
479.3571999999999	0.0949929821072146	35	diastole	6	B	500	systole
480.0775000000001	0.0949929821072146	35	diastole	7	B	500	systole
480.799	0.0949929821072146	35	diastole	8	B	500	systole
481.5042000000001	0.0949929821072146	35	diastole	9	B	500	systole
482.2457999999999	0.0949929821072146	35	diastole	10	B	500	systole
482.9692	0.0949929821072146	35	diastole	11	B	500	systole
483.7092	0.0949929821072146	35	diastole	12	B	500	systole
484.4492	0.0949929821072146	35	diastole	13	B	500	systole
487.2587000000001	0.0931189875118434	36	systole	1	B	500	diastole
488.0884000000001	0.0931189875118434	36	systole	2	B	500	diastole
488.8743999999999	0.0931189875118434	36	systole	3	B	500	diastole
489.634	0.0931189875118434	36	systole	4	B	500	diastole
490.4039	0.0931189875118434	36	systole	5	B	500	diastole
491.1738	0.0931189875118434	36	systole	6	B	500	diastole
491.9338	0.0931189875118434	36	systole	7	B	500	diastole
492.7039	0.0931189875118434	36	systole	8	B	500	diastole
493.4366	0.0931189875118434	36	systole	9	B	500	diastole
494.19049999999993	0.0931189875118434	36	systole	10	B	500	diastole
494.96039999999994	0.0931189875118434	36	systole	11	B	500	diastole
495.7303999999999	0.0931189875118434	36	systole	12	B	500	diastole
496.4687999999999	0.0931189875118434	36	systole	13	B	500	diastole
500.4109000000001	0.0962491937098093	37	systole	1	B	500	diastole
501.21669999999995	0.0962491937098093	37	systole	2	B	500	diastole
502.0284999999999	0.0962491937098093	37	systole	3	B	500	diastole
502.8499999999999	0.0962491937098093	37	systole	4	B	500	diastole
503.62979999999993	0.0962491937098093	37	systole	5	B	500	diastole
504.3698999999999	0.0962491937098093	37	systole	6	B	500	diastole
505.0798	0.0962491937098093	37	systole	7	B	500	diastole
505.7839999999999	0.0962491937098093	37	systole	8	B	500	diastole
506.4722999999999	0.0962491937098093	37	systole	9	B	500	diastole
507.17229999999995	0.0962491937098093	37	systole	10	B	500	diastole
507.87889999999993	0.0962491937098093	37	systole	11	B	500	diastole
508.6089999999999	0.0962491937098093	37	systole	12	B	500	diastole
509.37149999999997	0.0962491937098093	37	systole	13	B	500	diastole
512.1623999999999	0.0931272673187777	38	diastole	1	B	500	diastole
512.8822	0.0931272673187777	38	diastole	2	B	500	diastole
513.6224	0.0931272673187777	38	diastole	3	B	500	diastole
514.3626999999999	0.0931272673187777	38	diastole	4	B	500	diastole
515.0823	0.0931272673187777	38	diastole	5	B	500	diastole
515.8018999999999	0.0931272673187777	38	diastole	6	B	500	diastole
516.5216	0.0931272673187777	38	diastole	7	B	500	diastole
517.1385	0.0931272673187777	38	diastole	8	B	500	diastole
517.76	0.0931272673187777	38	diastole	9	B	500	diastole
518.4301	0.0931272673187777	38	diastole	10	B	500	diastole
519.1554000000001	0.0931272673187777	38	diastole	11	B	500	diastole
519.9054000000001	0.0931272673187777	38	diastole	12	B	500	diastole
520.6538	0.0931272673187777	38	diastole	13	B	500	diastole
521.4038	0.0931272673187777	38	diastole	14	B	500	diastole
524.9288999999999	0.0906261596828699	39	diastole	1	B	500	diastole
525.6587999999999	0.0906261596828699	39	diastole	2	B	500	diastole
526.4071999999999	0.0906261596828699	39	diastole	3	B	500	diastole
527.1773000000001	0.0906261596828699	39	diastole	4	B	500	diastole
527.9473	0.0906261596828699	39	diastole	5	B	500	diastole
528.7073	0.0906261596828699	39	diastole	6	B	500	diastole
529.4105	0.0906261596828699	39	diastole	7	B	500	diastole
530.1305	0.0906261596828699	39	diastole	8	B	500	diastole
530.8505	0.0906261596828699	39	diastole	9	B	500	diastole
531.5889	0.0906261596828699	39	diastole	10	B	500	diastole
532.424	0.0906261596828699	39	diastole	11	B	500	diastole
533.2587000000001	0.0906261596828699	39	diastole	12	B	500	diastole
534.0767000000001	0.0906261596828699	39	diastole	13	B	500	diastole
538.4348	0.0988243736792355	40	systole	1	B	500	diastole
539.2047	0.0988243736792355	40	systole	2	B	500	diastole
539.9582	0.0988243736792355	40	systole	3	B	500	diastole
540.7182	0.0988243736792355	40	systole	4	B	500	diastole
541.4368	0.0988243736792355	40	systole	5	B	500	diastole
542.1641	0.0988243736792355	40	systole	6	B	500	diastole
542.9041	0.0988243736792355	40	systole	7	B	500	diastole
543.6176	0.0988243736792355	40	systole	8	B	500	diastole
544.3477	0.0988243736792355	40	systole	9	B	500	diastole
545.0459000000001	0.0988243736792355	40	systole	10	B	500	diastole
545.7402999999999	0.0988243736792355	40	systole	11	B	500	diastole
546.51	0.0988243736792355	40	systole	12	B	500	diastole
547.25	0.0988243736792355	40	systole	13	B	500	diastole
550.8137999999999	0.0943620310281403	41	diastole	1	B	500	diastole
551.5937999999999	0.0943620310281403	41	diastole	2	B	500	diastole
552.3337999999999	0.0943620310281403	41	diastole	3	B	500	diastole
553.0936999999999	0.0943620310281403	41	diastole	4	B	500	diastole
553.8642	0.0943620310281403	41	diastole	5	B	500	diastole
554.6522	0.0943620310281403	41	diastole	6	B	500	diastole
555.4322	0.0943620310281403	41	diastole	7	B	500	diastole
556.1922999999999	0.0943620310281403	41	diastole	8	B	500	diastole
557.0223000000001	0.0943620310281403	41	diastole	9	B	500	diastole
557.8124	0.0943620310281403	41	diastole	10	B	500	diastole
558.5642	0.0943620310281403	41	diastole	11	B	500	diastole
559.3242	0.0943620310281403	41	diastole	12	B	500	diastole
562.5589	0.098124322539661	42	diastole	1	B	500	diastole
563.3387	0.098124322539661	42	diastole	2	B	500	diastole
564.1184000000001	0.098124322539661	42	diastole	3	B	500	diastole
564.8701000000001	0.098124322539661	42	diastole	4	B	500	diastole
565.6317999999999	0.098124322539661	42	diastole	5	B	500	diastole
566.4016999999999	0.098124322539661	42	diastole	6	B	500	diastole
567.1615999999999	0.098124322539661	42	diastole	7	B	500	diastole
567.8834999999999	0.098124322539661	42	diastole	8	B	500	diastole
568.6136999999999	0.098124322539661	42	diastole	9	B	500	diastole
569.3354999999999	0.098124322539661	42	diastole	10	B	500	diastole
570.067	0.098124322539661	42	diastole	11	B	500	diastole
570.7786000000001	0.098124322539661	42	diastole	12	B	500	diastole
573.2938999999999	0.0912535624811425	43	systole	1	B	500	systole
574.0739000000001	0.0912535624811425	43	systole	2	B	500	systole
574.8339000000001	0.0912535624811425	43	systole	3	B	500	systole
575.5937999999999	0.0912535624811425	43	systole	4	B	500	systole
576.3739	0.0912535624811425	43	systole	5	B	500	systole
577.1514	0.0912535624811425	43	systole	6	B	500	systole
577.9113	0.0912535624811425	43	systole	7	B	500	systole
578.6431	0.0912535624811425	43	systole	8	B	500	systole
579.363	0.0912535624811425	43	systole	9	B	500	systole
580.0828999999999	0.0912535624811425	43	systole	10	B	500	systole
580.7928999999999	0.0912535624811425	43	systole	11	B	500	systole
581.4577999999999	0.0912535624811425	43	systole	12	B	500	systole
582.1415999999999	0.0912535624811425	43	systole	13	B	500	systole
582.8458	0.0912535624811425	43	systole	14	B	500	systole
585.6860999999999	0.0893658811692148	44	systole	1	B	500	diastole
586.4061999999999	0.0893658811692148	44	systole	2	B	500	diastole
587.1262999999999	0.0893658811692148	44	systole	3	B	500	diastole
587.8263	0.0893658811692148	44	systole	4	B	500	diastole
588.5063	0.0893658811692148	44	systole	5	B	500	diastole
589.1863000000001	0.0893658811692148	44	systole	6	B	500	diastole
589.8666000000001	0.0893658811692148	44	systole	7	B	500	diastole
590.5766000000001	0.0893658811692148	44	systole	8	B	500	diastole
591.2864999999999	0.0893658811692148	44	systole	9	B	500	diastole
592.0260999999998	0.0893658811692148	44	systole	10	B	500	diastole
592.7465	0.0893658811692148	44	systole	11	B	500	diastole
593.4669000000001	0.0893658811692148	44	systole	12	B	500	diastole
594.1713000000002	0.0893658811692148	44	systole	13	B	500	diastole
594.9469000000001	0.0893658811692148	44	systole	14	B	500	diastole
597.9938	0.0918549123452976	45	systole	1	B	500	diastole
598.7137999999998	0.0918549123452976	45	systole	2	B	500	diastole
599.4338	0.0918549123452976	45	systole	3	B	500	diastole
600.164	0.0918549123452976	45	systole	4	B	500	diastole
600.8738999999998	0.0918549123452976	45	systole	5	B	500	diastole
601.5838000000001	0.0918549123452976	45	systole	6	B	500	diastole
602.3140999999998	0.0918549123452976	45	systole	7	B	500	diastole
603.0739000000001	0.0918549123452976	45	systole	8	B	500	diastole
603.8138999999999	0.0918549123452976	45	systole	9	B	500	diastole
604.5438000000001	0.0918549123452976	45	systole	10	B	500	diastole
605.2639000000001	0.0918549123452976	45	systole	11	B	500	diastole
606.0040000000001	0.0918549123452976	45	systole	12	B	500	diastole
606.7439999999999	0.0918549123452976	45	systole	13	B	500	diastole
609.1814000000002	0.0931296687340363	46	systole	1	B	500	systole
609.9716000000001	0.0931296687340363	46	systole	2	B	500	systole
610.7338000000002	0.0931296687340363	46	systole	3	B	500	systole
611.4837	0.0931296687340363	46	systole	4	B	500	systole
612.2337	0.0931296687340363	46	systole	5	B	500	systole
612.9678999999999	0.0931296687340363	46	systole	6	B	500	systole
613.6978000000001	0.0931296687340363	46	systole	7	B	500	systole
614.4278000000002	0.0931296687340363	46	systole	8	B	500	systole
615.1159	0.0931296687340363	46	systole	9	B	500	systole
615.8043	0.0931296687340363	46	systole	10	B	500	systole
616.4768000000001	0.0931296687340363	46	systole	11	B	500	systole
617.2009	0.0931296687340363	46	systole	12	B	500	systole
617.9309000000001	0.0931296687340363	46	systole	13	B	500	systole
618.6807000000001	0.0931296687340363	46	systole	14	B	500	systole
621.4756	0.0912471981719136	47	diastole	1	B	500	diastole
622.3122000000001	0.0912471981719136	47	diastole	2	B	500	diastole
623.1173999999999	0.0912471981719136	47	diastole	3	B	500	diastole
623.8974000000001	0.0912471981719136	47	diastole	4	B	500	diastole
624.7311000000002	0.0912471981719136	47	diastole	5	B	500	diastole
625.4907999999998	0.0912471981719136	47	diastole	6	B	500	diastole
626.2407999999998	0.0912471981719136	47	diastole	7	B	500	diastole
626.9509	0.0912471981719136	47	diastole	8	B	500	diastole
627.6609999999998	0.0912471981719136	47	diastole	9	B	500	diastole
628.3507999999999	0.0912471981719136	47	diastole	10	B	500	diastole
629.0406999999998	0.0912471981719136	47	diastole	11	B	500	diastole
629.6387000000002	0.0912471981719136	47	diastole	12	B	500	diastole
630.3286999999998	0.0912471981719136	47	diastole	13	B	500	diastole
634.1573000000001	0.0862536813947372	48	systole	1	B	500	diastole
634.9332999999999	0.0862536813947372	48	systole	2	B	500	diastole
635.7032999999999	0.0862536813947372	48	systole	3	B	500	diastole
636.4882	0.0862536813947372	48	systole	4	B	500	diastole
637.2872	0.0862536813947372	48	systole	5	B	500	diastole
638.0690999999999	0.0862536813947372	48	systole	6	B	500	diastole
638.8392999999999	0.0862536813947372	48	systole	7	B	500	diastole
639.5692999999999	0.0862536813947372	48	systole	8	B	500	diastole
640.2994000000001	0.0862536813947372	48	systole	9	B	500	diastole
641.0177000000001	0.0862536813947372	48	systole	10	B	500	diastole
641.7477999999999	0.0862536813947372	48	systole	11	B	500	diastole
642.4619	0.0862536813947372	48	systole	12	B	500	diastole
643.1445999999999	0.0862536813947372	48	systole	13	B	500	diastole
646.3021000000001	0.0899956058128736	49	diastole	1	B	500	systole
647.0721000000001	0.0899956058128736	49	diastole	2	B	500	systole
647.8421000000001	0.0899956058128736	49	diastole	3	B	500	systole
648.6321	0.0899956058128736	49	diastole	4	B	500	systole
649.3920999999998	0.0899956058128736	49	diastole	5	B	500	systole
650.1622	0.0899956058128736	49	diastole	6	B	500	systole
651.0372	0.0899956058128736	49	diastole	7	B	500	systole
651.8372000000002	0.0899956058128736	49	diastole	8	B	500	systole
652.5975999999998	0.0899956058128736	49	diastole	9	B	500	systole
653.3475999999998	0.0899956058128736	49	diastole	10	B	500	systole
654.1076	0.0899956058128736	49	diastole	11	B	500	systole
654.8776	0.0899956058128736	49	diastole	12	B	500	systole
655.6292999999998	0.0899956058128736	49	diastole	13	B	500	systole
658.6571999999999	0.0950157063780352	50	diastole	1	B	500	systole
659.3873999999998	0.0950157063780352	50	diastole	2	B	500	systole
660.1472999999999	0.0950157063780352	50	diastole	3	B	500	systole
660.8873000000001	0.0950157063780352	50	diastole	4	B	500	systole
661.6272000000001	0.0950157063780352	50	diastole	5	B	500	systole
662.3489000000002	0.0950157063780352	50	diastole	6	B	500	systole
663.0521000000001	0.0950157063780352	50	diastole	7	B	500	systole
663.7522999999999	0.0950157063780352	50	diastole	8	B	500	systole
664.4642999999999	0.0950157063780352	50	diastole	9	B	500	systole
665.2142999999999	0.0950157063780352	50	diastole	10	B	500	systole
665.9642999999999	0.0950157063780352	50	diastole	11	B	500	systole
666.7243999999998	0.0950157063780352	50	diastole	12	B	500	systole
667.4923000000001	0.0950157063780352	50	diastole	13	B	500	systole
670.5986999999998	0.0949866339797154	51	diastole	1	B	500	systole
671.3889999999999	0.0949866339797154	51	diastole	2	B	500	systole
672.1789999999999	0.0949866339797154	51	diastole	3	B	500	systole
673.0058000000001	0.0949866339797154	51	diastole	4	B	500	systole
673.8156999999999	0.0949866339797154	51	diastole	5	B	500	systole
674.613	0.0949866339797154	51	diastole	6	B	500	systole
675.4208000000001	0.0949866339797154	51	diastole	7	B	500	systole
676.2587999999998	0.0949866339797154	51	diastole	8	B	500	systole
677.0771000000002	0.0949866339797154	51	diastole	9	B	500	systole
677.8871000000001	0.0949866339797154	51	diastole	10	B	500	systole
678.6971000000001	0.0949866339797154	51	diastole	11	B	500	systole
679.5539999999999	0.0949866339797154	51	diastole	12	B	500	systole
683.5604999999998	0.101879374589771	52	diastole	1	B	500	diastole
684.2938000000001	0.101879374589771	52	diastole	2	B	500	diastole
685.0438000000001	0.101879374589771	52	diastole	3	B	500	diastole
685.7771	0.101879374589771	52	diastole	4	B	500	diastole
686.5388	0.101879374589771	52	diastole	5	B	500	diastole
687.2839000000001	0.101879374589771	52	diastole	6	B	500	diastole
688.0255	0.101879374589771	52	diastole	7	B	500	diastole
688.7555	0.101879374589771	52	diastole	8	B	500	diastole
689.4788000000001	0.101879374589771	52	diastole	9	B	500	diastole
690.2187999999999	0.101879374589771	52	diastole	10	B	500	diastole
690.9120999999998	0.101879374589771	52	diastole	11	B	500	diastole
691.6220999999998	0.101879374589771	52	diastole	12	B	500	diastole
696.3124	0.0900169499218463	53	systole	1	B	500	systole
697.0723999999998	0.0900169499218463	53	systole	2	B	500	systole
697.8324	0.0900169499218463	53	systole	3	B	500	systole
698.6632000000002	0.0900169499218463	53	systole	4	B	500	systole
699.4532000000002	0.0900169499218463	53	systole	5	B	500	systole
700.2447	0.0900169499218463	53	systole	6	B	500	systole
700.9747	0.0900169499218463	53	systole	7	B	500	systole
701.7148	0.0900169499218463	53	systole	8	B	500	systole
702.4433000000001	0.0900169499218463	53	systole	9	B	500	systole
703.1832999999999	0.0900169499218463	53	systole	10	B	500	systole
703.9233000000002	0.0900169499218463	53	systole	11	B	500	systole
704.6415	0.0900169499218463	53	systole	12	B	500	systole
705.3558	0.0900169499218463	53	systole	13	B	500	systole
708.3453999999999	0.0925013063242659	54	systole	1	B	500	diastole
709.0696	0.0925013063242659	54	systole	2	B	500	diastole
709.8100000000002	0.0925013063242659	54	systole	3	B	500	diastole
710.5998999999999	0.0925013063242659	54	systole	4	B	500	diastole
711.4176	0.0925013063242659	54	systole	5	B	500	diastole
712.2191	0.0925013063242659	54	systole	6	B	500	diastole
713.0645999999999	0.0925013063242659	54	systole	7	B	500	diastole
713.9044999999999	0.0925013063242659	54	systole	8	B	500	diastole
714.7733000000001	0.0925013063242659	54	systole	9	B	500	diastole
715.6092000000001	0.0925013063242659	54	systole	10	B	500	diastole
716.4390000000001	0.0925013063242659	54	systole	11	B	500	diastole
717.2607999999998	0.0925013063242659	54	systole	12	B	500	diastole
723.0346000000002	0.1037336574518121	55	systole	1	B	500	diastole
723.8329999999999	0.1037336574518121	55	systole	2	B	500	diastole
724.6429999999998	0.1037336574518121	55	systole	3	B	500	diastole
725.4530000000002	0.1037336574518121	55	systole	4	B	500	diastole
726.213	0.1037336574518121	55	systole	5	B	500	diastole
726.9572000000001	0.1037336574518121	55	systole	6	B	500	diastole
727.6854999999998	0.1037336574518121	55	systole	7	B	500	diastole
728.4253000000001	0.1037336574518121	55	systole	8	B	500	diastole
729.1362999999999	0.1037336574518121	55	systole	9	B	500	diastole
729.8012000000001	0.1037336574518121	55	systole	10	B	500	diastole
730.4950000000001	0.1037336574518121	55	systole	11	B	500	diastole
731.2052000000001	0.1037336574518121	55	systole	12	B	500	diastole
731.9548000000002	0.1037336574518121	55	systole	13	B	500	diastole
734.5856000000001	0.0925002205185592	56	diastole	1	B	500	systole
735.2888	0.0925002205185592	56	diastole	2	B	500	systole
735.9739999999999	0.0925002205185592	56	diastole	3	B	500	systole
736.6740000000002	0.0925002205185592	56	diastole	4	B	500	systole
737.3839999999998	0.0925002205185592	56	diastole	5	B	500	systole
738.0939000000001	0.0925002205185592	56	diastole	6	B	500	systole
738.7839000000001	0.0925002205185592	56	diastole	7	B	500	systole
739.4839	0.0925002205185592	56	diastole	8	B	500	systole
740.1854000000001	0.0925002205185592	56	diastole	9	B	500	systole
740.8754000000001	0.0925002205185592	56	diastole	10	B	500	systole
741.5772	0.0925002205185592	56	diastole	11	B	500	systole
742.3073000000002	0.0925002205185592	56	diastole	12	B	500	systole
743.0573000000002	0.0925002205185592	56	diastole	13	B	500	systole
743.8253000000002	0.0925002205185592	56	diastole	14	B	500	systole
746.1672000000001	0.0900039474363438	57	diastole	1	B	500	diastole
746.9772	0.0900039474363438	57	diastole	2	B	500	diastole
747.7738999999999	0.0900039474363438	57	diastole	3	B	500	diastole
748.5303000000001	0.0900039474363438	57	diastole	4	B	500	diastole
749.2701	0.0900039474363438	57	diastole	5	B	500	diastole
749.97	0.0900039474363438	57	diastole	6	B	500	diastole
750.6800000000001	0.0900039474363438	57	diastole	7	B	500	diastole
751.3716000000002	0.0900039474363438	57	diastole	8	B	500	diastole
752.0716	0.0900039474363438	57	diastole	9	B	500	diastole
752.7153999999998	0.0900039474363438	57	diastole	10	B	500	diastole
753.4257	0.0900039474363438	57	diastole	11	B	500	diastole
754.1456999999998	0.0900039474363438	57	diastole	12	B	500	diastole
754.8958	0.0900039474363438	57	diastole	13	B	500	diastole
755.6757	0.0900039474363438	57	diastole	14	B	500	diastole
758.5305000000001	0.0949931988143362	58	systole	1	B	500	diastole
759.3405	0.0949931988143362	58	systole	2	B	500	diastole
760.1505	0.0949931988143362	58	systole	3	B	500	diastole
760.8704	0.0949931988143362	58	systole	4	B	500	diastole
761.5901999999999	0.0949931988143362	58	systole	5	B	500	diastole
762.3044000000002	0.0949931988143362	58	systole	6	B	500	diastole
763.0244	0.0949931988143362	58	systole	7	B	500	diastole
763.7196000000001	0.0949931988143362	58	systole	8	B	500	diastole
764.4696000000001	0.0949931988143362	58	systole	9	B	500	diastole
765.2194999999999	0.0949931988143362	58	systole	10	B	500	diastole
765.9995000000001	0.0949931988143362	58	systole	11	B	500	diastole
766.7796000000001	0.0949931988143362	58	systole	12	B	500	diastole
767.5411000000001	0.0949931988143362	58	systole	13	B	500	diastole
770.9172000000001	0.0943810375174507	59	diastole	1	B	500	diastole
771.6472000000001	0.0943810375174507	59	diastole	2	B	500	diastole
772.3772000000001	0.0943810375174507	59	diastole	3	B	500	diastole
773.0971999999999	0.0943810375174507	59	diastole	4	B	500	diastole
773.8172000000002	0.0943810375174507	59	diastole	5	B	500	diastole
774.5220999999999	0.0943810375174507	59	diastole	6	B	500	diastole
775.3021000000001	0.0943810375174507	59	diastole	7	B	500	diastole
776.0820999999999	0.0943810375174507	59	diastole	8	B	500	diastole
776.9087999999999	0.0943810375174507	59	diastole	9	B	500	diastole
777.7187999999999	0.0943810375174507	59	diastole	10	B	500	diastole
778.4986000000001	0.0943810375174507	59	diastole	11	B	500	diastole
779.2785999999999	0.0943810375174507	59	diastole	12	B	500	diastole
783.1521	0.0974935685517266	60	diastole	1	B	500	systole
783.9521000000002	0.0974935685517266	60	diastole	2	B	500	systole
784.7421000000002	0.0974935685517266	60	diastole	3	B	500	systole
785.5321000000001	0.0974935685517266	60	diastole	4	B	500	systole
786.3623	0.0974935685517266	60	diastole	5	B	500	systole
787.2086999999999	0.0974935685517266	60	diastole	6	B	500	systole
788.0386000000001	0.0974935685517266	60	diastole	7	B	500	systole
788.8068999999998	0.0974935685517266	60	diastole	8	B	500	systole
789.5667999999998	0.0974935685517266	60	diastole	9	B	500	systole
790.3468999999998	0.0974935685517266	60	diastole	10	B	500	systole
791.1269	0.0974935685517266	60	diastole	11	B	500	systole
791.9069000000002	0.0974935685517266	60	diastole	12	B	500	systole
796.5820999999999	0.0974849376943893	61	diastole	1	B	500	systole
797.4021999999998	0.0974849376943893	61	diastole	2	B	500	systole
798.2686000000001	0.0974849376943893	61	diastole	3	B	500	systole
799.0953000000002	0.0974849376943893	61	diastole	4	B	500	systole
799.8853000000001	0.0974849376943893	61	diastole	5	B	500	systole
800.7137999999998	0.0974849376943893	61	diastole	6	B	500	systole
801.5420000000001	0.0974849376943893	61	diastole	7	B	500	systole
802.3419999999999	0.0974849376943893	61	diastole	8	B	500	systole
803.142	0.0974849376943893	61	diastole	9	B	500	systole
803.9037999999998	0.0974849376943893	61	diastole	10	B	500	systole
804.6739	0.0974849376943893	61	diastole	11	B	500	systole
807.4098000000001	0.0988563562277704	62	systole	1	B	500	systole
808.2097000000001	0.0988563562277704	62	systole	2	B	500	systole
809.0296999999998	0.0988563562277704	62	systole	3	B	500	systole
809.8498000000002	0.0988563562277704	62	systole	4	B	500	systole
810.6249	0.0988563562277704	62	systole	5	B	500	systole
811.4048	0.0988563562277704	62	systole	6	B	500	systole
812.1548999999998	0.0988563562277704	62	systole	7	B	500	systole
812.9089999999999	0.0988563562277704	62	systole	8	B	500	systole
813.6690000000001	0.0988563562277704	62	systole	9	B	500	systole
814.3963999999999	0.0988563562277704	62	systole	10	B	500	systole
815.1047000000001	0.0988563562277704	62	systole	11	B	500	systole
815.8389	0.0988563562277704	62	systole	12	B	500	systole
816.6189000000002	0.0988563562277704	62	systole	13	B	500	systole
819.6946999999998	0.0950008312356658	63	systole	1	B	500	diastole
820.4847000000002	0.0950008312356658	63	systole	2	B	500	diastole
821.2764	0.0950008312356658	63	systole	3	B	500	diastole
822.0622999999998	0.0950008312356658	63	systole	4	B	500	diastole
822.8423	0.0950008312356658	63	systole	5	B	500	diastole
823.6523	0.0950008312356658	63	systole	6	B	500	diastole
824.4323999999999	0.0950008312356658	63	systole	7	B	500	diastole
825.2122999999999	0.0950008312356658	63	systole	8	B	500	diastole
826.0022000000001	0.0950008312356658	63	systole	9	B	500	diastole
826.8021999999999	0.0950008312356658	63	systole	10	B	500	diastole
827.6022	0.0950008312356658	63	systole	11	B	500	diastole
828.3524	0.0950008312356658	63	systole	12	B	500	diastole
830.6980000000001	0.0981245900620706	64	systole	1	B	500	diastole
831.4779999999998	0.0981245900620706	64	systole	2	B	500	diastole
832.258	0.0981245900620706	64	systole	3	B	500	diastole
833.0377999999998	0.0981245900620706	64	systole	4	B	500	diastole
833.8596	0.0981245900620706	64	systole	5	B	500	diastole
834.6697999999999	0.0981245900620706	64	systole	6	B	500	diastole
835.434	0.0981245900620706	64	systole	7	B	500	diastole
836.1740000000002	0.0981245900620706	64	systole	8	B	500	diastole
836.934	0.0981245900620706	64	systole	9	B	500	diastole
837.6940000000002	0.0981245900620706	64	systole	10	B	500	diastole
838.4521000000002	0.0981245900620706	64	systole	11	B	500	diastole
839.2221000000002	0.0981245900620706	64	systole	12	B	500	diastole
839.9763	0.0981245900620706	64	systole	13	B	500	diastole
842.5687999999998	0.0950045874924399	65	diastole	1	B	500	diastole
843.3003999999999	0.0950045874924399	65	diastole	2	B	500	diastole
844.0402999999999	0.0950045874924399	65	diastole	3	B	500	diastole
844.7603999999999	0.0950045874924399	65	diastole	4	B	500	diastole
845.4842000000001	0.0950045874924399	65	diastole	5	B	500	diastole
846.2160000000001	0.0950045874924399	65	diastole	6	B	500	diastole
846.9741999999999	0.0950045874924399	65	diastole	7	B	500	diastole
847.7241999999999	0.0950045874924399	65	diastole	8	B	500	diastole
848.4559999999999	0.0950045874924399	65	diastole	9	B	500	diastole
849.1960999999999	0.0950045874924399	65	diastole	10	B	500	diastole
849.9559999999999	0.0950045874924399	65	diastole	11	B	500	diastole
850.7443000000001	0.0950045874924399	65	diastole	12	B	500	diastole
851.5022000000001	0.0950045874924399	65	diastole	13	B	500	diastole
854.3246999999999	0.0956220224616117	66	systole	1	B	500	diastole
855.0546999999999	0.0956220224616117	66	systole	2	B	500	diastole
855.8149000000001	0.0956220224616117	66	systole	3	B	500	diastole
856.6063999999999	0.0956220224616117	66	systole	4	B	500	diastole
857.4064999999998	0.0956220224616117	66	systole	5	B	500	diastole
858.2066000000002	0.0956220224616117	66	systole	6	B	500	diastole
858.9963999999998	0.0956220224616117	66	systole	7	B	500	diastole
859.7666999999999	0.0956220224616117	66	systole	8	B	500	diastole
860.5368999999998	0.0956220224616117	66	systole	9	B	500	diastole
861.3371	0.0956220224616117	66	systole	10	B	500	diastole
862.1373000000001	0.0956220224616117	66	systole	11	B	500	diastole
862.8873000000001	0.0956220224616117	66	systole	12	B	500	diastole
865.9464999999998	0.0981143062235787	67	systole	1	B	500	systole
866.6863999999998	0.0981143062235787	67	systole	2	B	500	systole
867.4464999999998	0.0981143062235787	67	systole	3	B	500	systole
868.2780999999998	0.0981143062235787	67	systole	4	B	500	systole
869.068	0.0981143062235787	67	systole	5	B	500	systole
869.8579000000002	0.0981143062235787	67	systole	6	B	500	systole
870.6177	0.0981143062235787	67	systole	7	B	500	systole
871.3916999999999	0.0981143062235787	67	systole	8	B	500	systole
872.1715000000002	0.0981143062235787	67	systole	9	B	500	systole
872.9044000000001	0.0981143062235787	67	systole	10	B	500	systole
873.6344000000001	0.0981143062235787	67	systole	11	B	500	systole
874.4258000000002	0.0981143062235787	67	systole	12	B	500	systole
876.9262999999999	0.0968764402205124	68	systole	1	B	500	diastole
877.6706999999999	0.0968764402205124	68	systole	2	B	500	diastole
878.472	0.0968764402205124	68	systole	3	B	500	diastole
879.2677999999999	0.0968764402205124	68	systole	4	B	500	diastole
880.0575999999999	0.0968764402205124	68	systole	5	B	500	diastole
880.8277	0.0968764402205124	68	systole	6	B	500	diastole
881.5182000000002	0.0968764402205124	68	systole	7	B	500	diastole
882.2086000000002	0.0968764402205124	68	systole	8	B	500	diastole
882.8927999999999	0.0968764402205124	68	systole	9	B	500	diastole
883.5600999999999	0.0968764402205124	68	systole	10	B	500	diastole
884.2798	0.0968764402205124	68	systole	11	B	500	diastole
885.0296999999998	0.0968764402205124	68	systole	12	B	500	diastole
885.7479999999998	0.0968764402205124	68	systole	13	B	500	diastole
886.4781	0.0968764402205124	68	systole	14	B	500	diastole
889.9523999999999	0.0937689876300282	69	diastole	1	B	500	diastole
890.7027	0.0937689876300282	69	diastole	2	B	500	diastole
891.4527999999998	0.0937689876300282	69	diastole	3	B	500	diastole
892.1928999999998	0.0937689876300282	69	diastole	4	B	500	diastole
892.9424999999999	0.0937689876300282	69	diastole	5	B	500	diastole
893.6722000000002	0.0937689876300282	69	diastole	6	B	500	diastole
894.4021999999998	0.0937689876300282	69	diastole	7	B	500	diastole
895.1519000000001	0.0937689876300282	69	diastole	8	B	500	diastole
895.9017999999999	0.0937689876300282	69	diastole	9	B	500	diastole
896.6618000000001	0.0937689876300282	69	diastole	10	B	500	diastole
897.4118999999998	0.0937689876300282	69	diastole	11	B	500	diastole
898.1618999999998	0.0937689876300282	69	diastole	12	B	500	diastole
898.9118999999998	0.0937689876300282	69	diastole	13	B	500	diastole
899.6818000000001	0.0937689876300282	69	diastole	14	B	500	diastole
902.4646999999998	0.0950009883963503	70	systole	1	B	500	diastole
903.2747000000002	0.0950009883963503	70	systole	2	B	500	diastole
904.0663000000002	0.0950009883963503	70	systole	3	B	500	diastole
904.8621999999998	0.0950009883963503	70	systole	4	B	500	diastole
905.6521999999998	0.0950009883963503	70	systole	5	B	500	diastole
906.4523000000002	0.0950009883963503	70	systole	6	B	500	diastole
907.2540000000001	0.0950009883963503	70	systole	7	B	500	diastole
908.0438999999999	0.0950009883963503	70	systole	8	B	500	diastole
908.8538999999998	0.0950009883963503	70	systole	9	B	500	diastole
909.6796000000002	0.0950009883963503	70	systole	10	B	500	diastole
910.4995000000001	0.0950009883963503	70	systole	11	B	500	diastole
911.3313	0.0950009883963503	70	systole	12	B	500	diastole
916.6569999999999	0.1023700426449067	71	diastole	1	B	500	diastole
917.4669999999999	0.1023700426449067	71	diastole	2	B	500	diastole
918.2769999999998	0.1023700426449067	71	diastole	3	B	500	diastole
919.1859000000002	0.1023700426449067	71	diastole	4	B	500	diastole
919.9966999999999	0.1023700426449067	71	diastole	5	B	500	diastole
920.8066999999999	0.1023700426449067	71	diastole	6	B	500	diastole
921.6168	0.1023700426449067	71	diastole	7	B	500	diastole
922.4466	0.1023700426449067	71	diastole	8	B	500	diastole
923.22	0.1023700426449067	71	diastole	9	B	500	diastole
923.9820000000002	0.1023700426449067	71	diastole	10	B	500	diastole
924.7720000000002	0.1023700426449067	71	diastole	11	B	500	diastole
927.9271000000001	0.0987523460644297	72	diastole	1	B	500	systole
928.7573	0.0987523460644297	72	diastole	2	B	500	systole
929.5672999999999	0.0987523460644297	72	diastole	3	B	500	systole
930.3289000000002	0.0987523460644297	72	diastole	4	B	500	systole
931.1189000000002	0.0987523460644297	72	diastole	5	B	500	systole
931.9089000000001	0.0987523460644297	72	diastole	6	B	500	systole
932.6807999999999	0.0987523460644297	72	diastole	7	B	500	systole
933.4527	0.0987523460644297	72	diastole	8	B	500	systole
934.2326	0.0987523460644297	72	diastole	9	B	500	systole
935.0327	0.0987523460644297	72	diastole	10	B	500	systole
935.8909999999998	0.0987523460644297	72	diastole	11	B	500	systole
936.7410000000002	0.0987523460644297	72	diastole	12	B	500	systole
940.5372	0.09865258843638	73	diastole	1	B	500	diastole
941.2672	0.09865258843638	73	diastole	2	B	500	diastole
941.9972	0.09865258843638	73	diastole	3	B	500	diastole
942.7371	0.09865258843638	73	diastole	4	B	500	diastole
943.4871	0.09865258843638	73	diastole	5	B	500	diastole
944.2394000000002	0.09865258843638	73	diastole	6	B	500	diastole
945.0094000000001	0.09865258843638	73	diastole	7	B	500	diastole
945.7792999999999	0.09865258843638	73	diastole	8	B	500	diastole
946.5690999999999	0.09865258843638	73	diastole	9	B	500	diastole
947.3689999999999	0.09865258843638	73	diastole	10	B	500	diastole
948.1272000000001	0.09865258843638	73	diastole	11	B	500	diastole
948.8772999999999	0.09865258843638	73	diastole	12	B	500	diastole
952.0253999999998	0.0937462823349051	74	systole	1	B	500	diastole
952.7553999999998	0.0937462823349051	74	systole	2	B	500	diastole
953.4853999999998	0.0937462823349051	74	systole	3	B	500	diastole
954.2137	0.0937462823349051	74	systole	4	B	500	diastole
954.9336999999998	0.0937462823349051	74	systole	5	B	500	diastole
955.6537999999998	0.0937462823349051	74	systole	6	B	500	diastole
956.4037000000001	0.0937462823349051	74	systole	7	B	500	diastole
957.1537000000001	0.0937462823349051	74	systole	8	B	500	diastole
957.9037000000001	0.0937462823349051	74	systole	9	B	500	diastole
958.6137999999999	0.0937462823349051	74	systole	10	B	500	diastole
959.3237999999999	0.0937462823349051	74	systole	11	B	500	diastole
960.0337000000002	0.0937462823349051	74	systole	12	B	500	diastole
960.7337	0.0937462823349051	74	systole	13	B	500	diastole
963.3428999999999	0.086874236818403	75	systole	1	B	500	diastole
964.0532000000001	0.086874236818403	75	systole	2	B	500	diastole
964.8030999999999	0.086874236818403	75	systole	3	B	500	diastole
965.5530000000001	0.086874236818403	75	systole	4	B	500	diastole
966.2684999999999	0.086874236818403	75	systole	5	B	500	diastole
966.9783	0.086874236818403	75	systole	6	B	500	diastole
967.7101	0.086874236818403	75	systole	7	B	500	diastole
968.4302999999998	0.086874236818403	75	systole	8	B	500	diastole
969.1503999999998	0.086874236818403	75	systole	9	B	500	diastole
969.8606000000002	0.086874236818403	75	systole	10	B	500	diastole
970.5705999999998	0.086874236818403	75	systole	11	B	500	diastole
971.3417999999999	0.086874236818403	75	systole	12	B	500	diastole
972.1018000000001	0.086874236818403	75	systole	13	B	500	diastole
972.8518999999999	0.086874236818403	75	systole	14	B	500	diastole
976.3806999999999	0.0937486846814863	76	diastole	1	B	500	diastole
977.1607000000001	0.0937486846814863	76	diastole	2	B	500	diastole
977.8823	0.0937486846814863	76	diastole	3	B	500	diastole
978.5908000000002	0.0937486846814863	76	diastole	4	B	500	diastole
979.3005999999998	0.0937486846814863	76	diastole	5	B	500	diastole
980.0022999999999	0.0937486846814863	76	diastole	6	B	500	diastole
980.7155999999998	0.0937486846814863	76	diastole	7	B	500	diastole
981.4019000000001	0.0937486846814863	76	diastole	8	B	500	diastole
982.0840000000001	0.0937486846814863	76	diastole	9	B	500	diastole
982.7839000000001	0.0937486846814863	76	diastole	10	B	500	diastole
983.4655	0.0937486846814863	76	diastole	11	B	500	diastole
984.1652999999999	0.0937486846814863	76	diastole	12	B	500	diastole
984.8653000000002	0.0937486846814863	76	diastole	13	B	500	diastole
987.7373	0.088127568771597	77	diastole	1	B	500	diastole
988.4970999999998	0.088127568771597	77	diastole	2	B	500	diastole
989.2571	0.088127568771597	77	diastole	3	B	500	diastole
989.9923999999999	0.088127568771597	77	diastole	4	B	500	diastole
990.7385000000002	0.088127568771597	77	diastole	5	B	500	diastole
991.4684	0.088127568771597	77	diastole	6	B	500	diastole
992.1782999999998	0.088127568771597	77	diastole	7	B	500	diastole
992.8882999999998	0.088127568771597	77	diastole	8	B	500	diastole
993.5782999999999	0.088127568771597	77	diastole	9	B	500	diastole
994.3450999999998	0.088127568771597	77	diastole	10	B	500	diastole
995.0584000000001	0.088127568771597	77	diastole	11	B	500	diastole
995.7983999999999	0.088127568771597	77	diastole	12	B	500	diastole
996.5982999999999	0.088127568771597	77	diastole	13	B	500	diastole
1000.5071999999998	0.0981294914963655	78	systole	1	B	500	diastole
1001.3272	0.0981294914963655	78	systole	2	B	500	diastole
1002.1429	0.0981294914963655	78	systole	3	B	500	diastole
1002.9529	0.0981294914963655	78	systole	4	B	500	diastole
1003.7427999999998	0.0981294914963655	78	systole	5	B	500	diastole
1004.5328000000002	0.0981294914963655	78	systole	6	B	500	diastole
1005.3587	0.0981294914963655	78	systole	7	B	500	diastole
1006.1587000000002	0.0981294914963655	78	systole	8	B	500	diastole
1006.9327999999998	0.0981294914963655	78	systole	9	B	500	diastole
1007.7569999999998	0.0981294914963655	78	systole	10	B	500	diastole
1008.5869	0.0981294914963655	78	systole	11	B	500	diastole
1009.4168999999999	0.0981294914963655	78	systole	12	B	500	diastole
1012.8491000000001	0.099378956190776	79	diastole	1	B	500	diastole
1013.6290000000001	0.099378956190776	79	diastole	2	B	500	diastole
1014.3990000000001	0.099378956190776	79	diastole	3	B	500	diastole
1015.1220999999998	0.099378956190776	79	diastole	4	B	500	diastole
1015.8534000000002	0.099378956190776	79	diastole	5	B	500	diastole
1016.604	0.099378956190776	79	diastole	6	B	500	diastole
1017.3286999999998	0.099378956190776	79	diastole	7	B	500	diastole
1018.0784000000001	0.099378956190776	79	diastole	8	B	500	diastole
1018.8176000000001	0.099378956190776	79	diastole	9	B	500	diastole
1019.6189000000002	0.099378956190776	79	diastole	10	B	500	diastole
1020.4188999999999	0.099378956190776	79	diastole	11	B	500	diastole
1021.2292	0.099378956190776	79	diastole	12	B	500	diastole
1022.0395999999998	0.099378956190776	79	diastole	13	B	500	diastole
1024.1815	0.0987374050309881	80	systole	1	B	500	systole
1025.0114999999998	0.0987374050309881	80	systole	2	B	500	systole
1025.7715	0.0987374050309881	80	systole	3	B	500	systole
1026.5114999999998	0.0987374050309881	80	systole	4	B	500	systole
1027.2715	0.0987374050309881	80	systole	5	B	500	systole
1028.0296999999998	0.0987374050309881	80	systole	6	B	500	systole
1028.7604	0.0987374050309881	80	systole	7	B	500	systole
1029.4945	0.0987374050309881	80	systole	8	B	500	systole
1030.2344	0.0987374050309881	80	systole	9	B	500	systole
1030.9986999999999	0.0987374050309881	80	systole	10	B	500	systole
1031.7686	0.0987374050309881	80	systole	11	B	500	systole
1032.5287	0.0987374050309881	80	systole	12	B	500	systole
1033.3244000000002	0.0987374050309881	80	systole	13	B	500	systole
1036.3549	0.0956224880646914	81	systole	1	B	500	diastole
1037.0752	0.0956224880646914	81	systole	2	B	500	diastole
1037.8050999999998	0.0956224880646914	81	systole	3	B	500	diastole
1038.5150999999998	0.0956224880646914	81	systole	4	B	500	diastole
1039.2093000000002	0.0956224880646914	81	systole	5	B	500	diastole
1039.8918999999999	0.0956224880646914	81	systole	6	B	500	diastole
1040.5669999999998	0.0956224880646914	81	systole	7	B	500	diastole
1041.2969999999998	0.0956224880646914	81	systole	8	B	500	diastole
1042.0467999999998	0.0956224880646914	81	systole	9	B	500	diastole
1042.7965000000002	0.0956224880646914	81	systole	10	B	500	diastole
1043.5768999999998	0.0956224880646914	81	systole	11	B	500	diastole
1044.3439999999998	0.0956224880646914	81	systole	12	B	500	diastole
1045.1676	0.0956224880646914	81	systole	13	B	500	diastole
1048.6099000000002	0.0951006101677194	82	diastole	1	B	500	diastole
1049.3399000000002	0.0951006101677194	82	diastole	2	B	500	diastole
1050.0602999999999	0.0951006101677194	82	diastole	3	B	500	diastole
1050.7903	0.0951006101677194	82	diastole	4	B	500	diastole
1051.4838000000002	0.0951006101677194	82	diastole	5	B	500	diastole
1052.2337	0.0951006101677194	82	diastole	6	B	500	diastole
1053.0137000000002	0.0951006101677194	82	diastole	7	B	500	diastole
1053.7452	0.0951006101677194	82	diastole	8	B	500	diastole
1054.4849000000002	0.0951006101677194	82	diastole	9	B	500	diastole
1055.197	0.0951006101677194	82	diastole	10	B	500	diastole
1055.9087000000002	0.0951006101677194	82	diastole	11	B	500	diastole
1056.6671	0.0951006101677194	82	diastole	12	B	500	diastole
1057.4147999999998	0.0951006101677194	82	diastole	13	B	500	diastole
1060.3971	0.0918898814124986	83	diastole	1	B	500	diastole
1061.1771	0.0918898814124986	83	diastole	2	B	500	diastole
1061.9075999999998	0.0918898814124986	83	diastole	3	B	500	diastole
1062.6380000000001	0.0918898814124986	83	diastole	4	B	500	diastole
1063.3887000000002	0.0918898814124986	83	diastole	5	B	500	diastole
1064.0871	0.0918898814124986	83	diastole	6	B	500	diastole
1064.7856	0.0918898814124986	83	diastole	7	B	500	diastole
1065.4488	0.0918898814124986	83	diastole	8	B	500	diastole
1066.1088000000002	0.0918898814124986	83	diastole	9	B	500	diastole
1066.7448000000002	0.0918898814124986	83	diastole	10	B	500	diastole
1067.4248	0.0918898814124986	83	diastole	11	B	500	diastole
1068.1348	0.0918898814124986	83	diastole	12	B	500	diastole
1068.7900000000002	0.0918898814124986	83	diastole	13	B	500	diastole
1069.4547	0.0918898814124986	83	diastole	14	B	500	diastole
1072.2562999999998	0.0868784062331542	84	systole	1	B	500	diastole
1073.0138	0.0868784062331542	84	systole	2	B	500	diastole
1073.7538000000002	0.0868784062331542	84	systole	3	B	500	diastole
1074.5269999999998	0.0868784062331542	84	systole	4	B	500	diastole
1075.2569999999998	0.0868784062331542	84	systole	5	B	500	diastole
1075.977	0.0868784062331542	84	systole	6	B	500	diastole
1076.677	0.0868784062331542	84	systole	7	B	500	diastole
1077.3812	0.0868784062331542	84	systole	8	B	500	diastole
1078.0912	0.0868784062331542	84	systole	9	B	500	diastole
1078.8095999999998	0.0868784062331542	84	systole	10	B	500	diastole
1079.5395999999998	0.0868784062331542	84	systole	11	B	500	diastole
1080.2796	0.0868784062331542	84	systole	12	B	500	diastole
1081.0296	0.0868784062331542	84	systole	13	B	500	diastole
1081.7796	0.0868784062331542	84	systole	14	B	500	diastole
1083.6869	0.0931256937910802	85	systole	1	B	500	diastole
1084.5159999999998	0.0931256937910802	85	systole	2	B	500	diastole
1085.3300000000002	0.0931256937910802	85	systole	3	B	500	diastole
1086.1355999999998	0.0931256937910802	85	systole	4	B	500	diastole
1086.9356	0.0931256937910802	85	systole	5	B	500	diastole
1087.7155999999998	0.0931256937910802	85	systole	6	B	500	diastole
1088.4655999999998	0.0931256937910802	85	systole	7	B	500	diastole
1089.24	0.0931256937910802	85	systole	8	B	500	diastole
1090.0400000000002	0.0931256937910802	85	systole	9	B	500	diastole
1090.8083	0.0931256937910802	85	systole	10	B	500	diastole
1091.5719000000001	0.0931256937910802	85	systole	11	B	500	diastole
1092.3416	0.0931256937910802	85	systole	12	B	500	diastole
1093.1418999999999	0.0931256937910802	85	systole	13	B	500	diastole
1095.9851999999998	0.0987511812127195	86	diastole	1	B	500	systole
1096.7850999999998	0.0987511812127195	86	diastole	2	B	500	systole
1097.6052000000002	0.0987511812127195	86	diastole	3	B	500	systole
1098.4154999999998	0.0987511812127195	86	diastole	4	B	500	systole
1099.2256	0.0987511812127195	86	diastole	5	B	500	systole
1100.0159	0.0987511812127195	86	diastole	6	B	500	systole
1100.834	0.0987511812127195	86	diastole	7	B	500	systole
1101.6838999999998	0.0987511812127195	86	diastole	8	B	500	systole
1102.5339000000001	0.0987511812127195	86	diastole	9	B	500	systole
1103.3256	0.0987511812127195	86	diastole	10	B	500	systole
1104.1055	0.0987511812127195	86	diastole	11	B	500	systole
1104.9243	0.0987511812127195	86	diastole	12	B	500	systole
1108.294	0.1005992971477098	87	systole	1	B	500	diastole
1109.0276999999999	0.1005992971477098	87	systole	2	B	500	diastole
1109.7353999999998	0.1005992971477098	87	systole	3	B	500	diastole
1110.4549	0.1005992971477098	87	systole	4	B	500	diastole
1111.1767000000002	0.1005992971477098	87	systole	5	B	500	diastole
1111.9156999999998	0.1005992971477098	87	systole	6	B	500	diastole
1112.6755	0.1005992971477098	87	systole	7	B	500	diastole
1113.3999000000001	0.1005992971477098	87	systole	8	B	500	diastole
1114.1151000000002	0.1005992971477098	87	systole	9	B	500	diastole
1114.8351	0.1005992971477098	87	systole	10	B	500	diastole
1115.5592	0.1005992971477098	87	systole	11	B	500	diastole
1116.2893000000001	0.1005992971477098	87	systole	12	B	500	diastole
1117.0291	0.1005992971477098	87	systole	13	B	500	diastole
1119.8480000000002	0.0906255043228156	88	systole	1	B	500	diastole
1120.5979	0.0906255043228156	88	systole	2	B	500	diastole
1121.3477999999998	0.0906255043228156	88	systole	3	B	500	diastole
1122.0995	0.0906255043228156	88	systole	4	B	500	diastole
1122.8396	0.0906255043228156	88	systole	5	B	500	diastole
1123.5894999999998	0.0906255043228156	88	systole	6	B	500	diastole
1124.4015000000002	0.0906255043228156	88	systole	7	B	500	diastole
1125.1670000000001	0.0906255043228156	88	systole	8	B	500	diastole
1125.9268	0.0906255043228156	88	systole	9	B	500	diastole
1126.7025	0.0906255043228156	88	systole	10	B	500	diastole
1127.4824999999998	0.0906255043228156	88	systole	11	B	500	diastole
1128.2625	0.0906255043228156	88	systole	12	B	500	diastole
1129.0759	0.0906255043228156	88	systole	13	B	500	diastole
1132.1762999999999	0.0968656701734289	89	systole	1	B	500	diastole
1132.9563	0.0968656701734289	89	systole	2	B	500	diastole
1133.6964	0.0968656701734289	89	systole	3	B	500	diastole
1134.4365	0.0968656701734289	89	systole	4	B	500	diastole
1135.1767000000002	0.0968656701734289	89	systole	5	B	500	diastole
1135.9723000000001	0.0968656701734289	89	systole	6	B	500	diastole
1136.7622	0.0968656701734289	89	systole	7	B	500	diastole
1137.552	0.0968656701734289	89	systole	8	B	500	diastole
1138.332	0.0968656701734289	89	systole	9	B	500	diastole
1139.0963	0.0968656701734289	89	systole	10	B	500	diastole
1139.8562	0.0968656701734289	89	systole	11	B	500	diastole
1140.6161	0.0968656701734289	89	systole	12	B	500	diastole
1144.6274999999998	0.0969967576675117	90	systole	1	B	500	systole
1145.3875999999998	0.0969967576675117	90	systole	2	B	500	systole
1146.1317999999999	0.0969967576675117	90	systole	3	B	500	systole
1146.8717	0.0969967576675117	90	systole	4	B	500	systole
1147.6116	0.0969967576675117	90	systole	5	B	500	systole
1148.3516000000002	0.0969967576675117	90	systole	6	B	500	systole
1149.0916	0.0969967576675117	90	systole	7	B	500	systole
1149.8189	0.0969967576675117	90	systole	8	B	500	systole
1150.5287999999998	0.0969967576675117	90	systole	9	B	500	systole
1151.2326	0.0969967576675117	90	systole	10	B	500	systole
1151.9309999999998	0.0969967576675117	90	systole	11	B	500	systole
1152.6454999999999	0.0969967576675117	90	systole	12	B	500	systole
1153.3441	0.0969967576675117	90	systole	13	B	500	systole
1156.4372	0.0887522874982096	91	diastole	1	B	500	diastole
1157.1355	0.0887522874982096	91	diastole	2	B	500	diastole
1157.8338	0.0887522874982096	91	diastole	3	B	500	diastole
1158.5438000000001	0.0887522874982096	91	diastole	4	B	500	diastole
1159.2539	0.0887522874982096	91	diastole	5	B	500	diastole
1159.9637999999998	0.0887522874982096	91	diastole	6	B	500	diastole
1160.6737	0.0887522874982096	91	diastole	7	B	500	diastole
1161.3637	0.0887522874982096	91	diastole	8	B	500	diastole
1162.1038	0.0887522874982096	91	diastole	9	B	500	diastole
1162.8437000000001	0.0887522874982096	91	diastole	10	B	500	diastole
1163.5739	0.0887522874982096	91	diastole	11	B	500	diastole
1164.3039999999999	0.0887522874982096	91	diastole	12	B	500	diastole
1165.0339999999999	0.0887522874982096	91	diastole	13	B	500	diastole
1168.8169	0.0918757517356425	92	diastole	1	B	500	diastole
1169.6151000000002	0.0918757517356425	92	diastole	2	B	500	diastole
1170.4221	0.0918757517356425	92	diastole	3	B	500	diastole
1171.2223000000001	0.0918757517356425	92	diastole	4	B	500	diastole
1172.0105	0.0918757517356425	92	diastole	5	B	500	diastole
1172.7904999999998	0.0918757517356425	92	diastole	6	B	500	diastole
1173.6723	0.0918757517356425	92	diastole	7	B	500	diastole
1174.4506	0.0918757517356425	92	diastole	8	B	500	diastole
1175.2007	0.0918757517356425	92	diastole	9	B	500	diastole
1175.9507999999998	0.0918757517356425	92	diastole	10	B	500	diastole
1176.7009	0.0918757517356425	92	diastole	11	B	500	diastole
1177.4705000000001	0.0918757517356425	92	diastole	12	B	500	diastole
1179.6609999999998	0.0993913743877783	93	systole	1	B	500	diastole
1180.4911	0.0993913743877783	93	systole	2	B	500	diastole
1181.331	0.0993913743877783	93	systole	3	B	500	diastole
1182.1809999999998	0.0993913743877783	93	systole	4	B	500	diastole
1182.9727999999998	0.0993913743877783	93	systole	5	B	500	diastole
1183.7829	0.0993913743877783	93	systole	6	B	500	diastole
1184.6242	0.0993913743877783	93	systole	7	B	500	diastole
1185.454	0.0993913743877783	93	systole	8	B	500	diastole
1186.1985000000002	0.0993913743877783	93	systole	9	B	500	diastole
1186.9487000000001	0.0993913743877783	93	systole	10	B	500	diastole
1187.6926999999998	0.0993913743877783	93	systole	11	B	500	diastole
1188.4426999999998	0.0993913743877783	93	systole	12	B	500	diastole
1189.1459000000002	0.0993913743877783	93	systole	13	B	500	diastole
1192.4723999999999	0.0937642031349241	94	diastole	1	B	500	diastole
1193.2324	0.0937642031349241	94	diastole	2	B	500	diastole
1193.9822000000001	0.0937642031349241	94	diastole	3	B	500	diastole
1194.7621000000001	0.0937642031349241	94	diastole	4	B	500	diastole
1195.5420000000001	0.0937642031349241	94	diastole	5	B	500	diastole
1196.3504	0.0937642031349241	94	diastole	6	B	500	diastole
1197.1919	0.0937642031349241	94	diastole	7	B	500	diastole
1197.9821	0.0937642031349241	94	diastole	8	B	500	diastole
1198.7321	0.0937642031349241	94	diastole	9	B	500	diastole
1199.4820000000002	0.0937642031349241	94	diastole	10	B	500	diastole
1200.242	0.0937642031349241	94	diastole	11	B	500	diastole
1201.0503999999999	0.0937642031349241	94	diastole	12	B	500	diastole
1204.2522000000001	0.0981274920632131	95	diastole	1	B	500	diastole
1205.0121000000001	0.0981274920632131	95	diastole	2	B	500	diastole
1205.7721	0.0981274920632131	95	diastole	3	B	500	diastole
1206.5055	0.0981274920632131	95	diastole	4	B	500	diastole
1207.2454999999998	0.0981274920632131	95	diastole	5	B	500	diastole
1208.0238000000002	0.0981274920632131	95	diastole	6	B	500	diastole
1208.8235000000002	0.0981274920632131	95	diastole	7	B	500	diastole
1209.5568999999998	0.0981274920632131	95	diastole	8	B	500	diastole
1210.3068999999998	0.0981274920632131	95	diastole	9	B	500	diastole
1211.0386999999998	0.0981274920632131	95	diastole	10	B	500	diastole
1211.7721	0.0981274920632131	95	diastole	11	B	500	diastole
1212.5222	0.0981274920632131	95	diastole	12	B	500	diastole
1215.2686999999999	0.0956107562524266	96	systole	1	B	500	diastole
1216.0285999999999	0.0956107562524266	96	systole	2	B	500	diastole
1216.7445999999998	0.0956107562524266	96	systole	3	B	500	diastole
1217.4662999999998	0.0956107562524266	96	systole	4	B	500	diastole
1218.2063	0.0956107562524266	96	systole	5	B	500	diastole
1218.9462999999998	0.0956107562524266	96	systole	6	B	500	diastole
1219.722	0.0956107562524266	96	systole	7	B	500	diastole
1220.492	0.0956107562524266	96	systole	8	B	500	diastole
1221.3160999999998	0.0956107562524266	96	systole	9	B	500	diastole
1222.1263000000001	0.0956107562524266	96	systole	10	B	500	diastole
1222.9122	0.0956107562524266	96	systole	11	B	500	diastole
1223.6663	0.0956107562524266	96	systole	12	B	500	diastole
1224.3963999999999	0.0956107562524266	96	systole	13	B	500	diastole
1229.0991000000001	0.0912642874754965	97	diastole	1	B	500	diastole
1229.8190000000002	0.0912642874754965	97	diastole	2	B	500	diastole
1230.5391000000002	0.0912642874754965	97	diastole	3	B	500	diastole
1231.2688999999998	0.0912642874754965	97	diastole	4	B	500	diastole
1231.9788	0.0912642874754965	97	diastole	5	B	500	diastole
1232.6689	0.0912642874754965	97	diastole	6	B	500	diastole
1233.3607	0.0912642874754965	97	diastole	7	B	500	diastole
1234.0721999999998	0.0912642874754965	97	diastole	8	B	500	diastole
1234.7740000000001	0.0912642874754965	97	diastole	9	B	500	diastole
1235.4554999999998	0.0912642874754965	97	diastole	10	B	500	diastole
1236.1937999999998	0.0912642874754965	97	diastole	11	B	500	diastole
1236.9138999999998	0.0912642874754965	97	diastole	12	B	500	diastole
1237.6339999999998	0.0912642874754965	97	diastole	13	B	500	diastole
1238.3074	0.0912642874754965	97	diastole	14	B	500	diastole
1240.8819	0.0893568965257145	98	systole	1	B	500	systole
1241.6298	0.0893568965257145	98	systole	2	B	500	systole
1242.3500000000001	0.0893568965257145	98	systole	3	B	500	systole
1243.0701999999999	0.0893568965257145	98	systole	4	B	500	systole
1243.7895	0.0893568965257145	98	systole	5	B	500	systole
1244.5341	0.0893568965257145	98	systole	6	B	500	systole
1245.2845	0.0893568965257145	98	systole	7	B	500	systole
1246.0051	0.0893568965257145	98	systole	8	B	500	systole
1246.7257000000002	0.0893568965257145	98	systole	9	B	500	systole
1247.4811000000002	0.0893568965257145	98	systole	10	B	500	systole
1248.2611	0.0893568965257145	98	systole	11	B	500	systole
1249.0535000000002	0.0893568965257145	98	systole	12	B	500	systole
1249.8435000000002	0.0893568965257145	98	systole	13	B	500	systole
1253.4221	0.0974956016871146	99	diastole	1	B	500	diastole
1254.1420999999998	0.0974956016871146	99	diastole	2	B	500	diastole
1254.8621	0.0974956016871146	99	diastole	3	B	500	diastole
1255.6020999999998	0.0974956016871146	99	diastole	4	B	500	diastole
1256.3421	0.0974956016871146	99	diastole	5	B	500	diastole
1257.0935000000002	0.0974956016871146	99	diastole	6	B	500	diastole
1257.8536000000001	0.0974956016871146	99	diastole	7	B	500	diastole
1258.597	0.0974956016871146	99	diastole	8	B	500	diastole
1259.3486999999998	0.0974956016871146	99	diastole	9	B	500	diastole
1260.0986999999998	0.0974956016871146	99	diastole	10	B	500	diastole
1260.8104999999998	0.0974956016871146	99	diastole	11	B	500	diastole
1261.5624999999998	0.0974956016871146	99	diastole	12	B	500	diastole
1264.7987999999998	0.0949959296267479	100	diastole	1	B	500	diastole
1265.6085999999998	0.0949959296267479	100	diastole	2	B	500	diastole
1266.3585999999998	0.0949959296267479	100	diastole	3	B	500	diastole
1267.1085	0.0949959296267479	100	diastole	4	B	500	diastole
1267.8585	0.0949959296267479	100	diastole	5	B	500	diastole
1268.6186999999998	0.0949959296267479	100	diastole	6	B	500	diastole
1269.3972999999999	0.0949959296267479	100	diastole	7	B	500	diastole
1270.1674999999998	0.0949959296267479	100	diastole	8	B	500	diastole
1270.9271	0.0949959296267479	100	diastole	9	B	500	diastole
1271.6870999999999	0.0949959296267479	100	diastole	10	B	500	diastole
1272.4471999999998	0.0949959296267479	100	diastole	11	B	500	diastole
1273.2254	0.0949959296267479	100	diastole	12	B	500	diastole
1273.9954	0.0949959296267479	100	diastole	13	B	500	diastole
