onset	duration	trial_num	trial_type	tone_num	tone_type	frequency	response
124.2103	0.0818739814567379	1	systole	1	A	1578.5670027440333	coherent
124.3742	0.0818739814567379	1	systole	2	B	500.0	coherent
124.5378	0.0818739814567379	1	systole	3	A	1578.5670027440333	coherent
124.9484	0.0818739814567379	1	systole	4	A	1578.5670027440333	coherent
125.1122	0.0818739814567379	1	systole	5	B	500.0	coherent
125.2758	0.0818739814567379	1	systole	6	A	1578.5670027440333	coherent
125.6864	0.0818739814567379	1	systole	7	A	1578.5670027440333	coherent
125.8503	0.0818739814567379	1	systole	8	B	500.0	coherent
126.0139	0.0818739814567379	1	systole	9	A	1578.5670027440333	coherent
126.4347	0.0818739814567379	1	systole	10	A	1578.5670027440333	coherent
126.5986	0.0818739814567379	1	systole	11	B	500.0	coherent
126.7622	0.0818739814567379	1	systole	12	A	1578.5670027440333	coherent
127.2026	0.0818739814567379	1	systole	13	A	1578.5670027440333	coherent
127.3742	0.0818739814567379	1	systole	14	B	500.0	coherent
127.5455	0.0818739814567379	1	systole	15	A	1578.5670027440333	coherent
127.9423	0.0818739814567379	1	systole	16	A	1578.5670027440333	coherent
128.1139	0.0818739814567379	1	systole	17	B	500.0	coherent
128.2852	0.0818739814567379	1	systole	18	A	1578.5670027440333	coherent
128.7193	0.0818739814567379	1	systole	19	A	1578.5670027440333	coherent
128.9032	0.0818739814567379	1	systole	20	B	500.0	coherent
129.0868	0.0818739814567379	1	systole	21	A	1578.5670027440333	coherent
129.4512	0.0818739814567379	1	systole	22	A	1578.5670027440333	coherent
129.6351	0.0818739814567379	1	systole	23	B	500.0	coherent
129.8187	0.0818739814567379	1	systole	24	A	1578.5670027440333	coherent
130.1792	0.0818739814567379	1	systole	25	A	1578.5670027440333	coherent
130.3631	0.0818739814567379	1	systole	26	B	500.0	coherent
130.5467	0.0818739814567379	1	systole	27	A	1578.5670027440333	coherent
130.8892	0.0818739814567379	1	systole	28	A	1578.5670027440333	coherent
131.0731	0.0818739814567379	1	systole	29	B	500.0	coherent
131.2567	0.0818739814567379	1	systole	30	A	1578.5670027440333	coherent
131.5992	0.0818739814567379	1	systole	31	A	1578.5670027440333	coherent
131.783	0.0818739814567379	1	systole	32	B	500.0	coherent
131.9666	0.0818739814567379	1	systole	33	A	1578.5670027440333	coherent
132.3093	0.0818739814567379	1	systole	34	A	1578.5670027440333	coherent
132.4932	0.0818739814567379	1	systole	35	B	500.0	coherent
132.6768	0.0818739814567379	1	systole	36	A	1578.5670027440333	coherent
133.0195	0.0818739814567379	1	systole	37	A	1578.5670027440333	coherent
133.2033	0.0818739814567379	1	systole	38	B	500.0	coherent
133.3869	0.0818739814567379	1	systole	39	A	1578.5670027440333	coherent
133.7296	0.0818739814567379	1	systole	40	A	1578.5670027440333	coherent
133.9135	0.0818739814567379	1	systole	41	B	500.0	coherent
134.0971	0.0818739814567379	1	systole	42	A	1578.5670027440333	coherent
151.7633	0.0825035000452771	2	diastole	1	A	1578.5670027440333	coherent
151.9285	0.0825035000452771	2	diastole	2	B	500.0	coherent
152.0933	0.0825035000452771	2	diastole	3	A	1578.5670027440333	coherent
152.4233	0.0825035000452771	2	diastole	4	A	1578.5670027440333	coherent
152.5885	0.0825035000452771	2	diastole	5	B	500.0	coherent
152.7533	0.0825035000452771	2	diastole	6	A	1578.5670027440333	coherent
153.1063	0.0825035000452771	2	diastole	7	A	1578.5670027440333	coherent
153.2737	0.0825035000452771	2	diastole	8	B	500.0	coherent
153.4409	0.0825035000452771	2	diastole	9	A	1578.5670027440333	coherent
153.7763	0.0825035000452771	2	diastole	10	A	1578.5670027440333	coherent
153.9437	0.0825035000452771	2	diastole	11	B	500.0	coherent
154.1109	0.0825035000452771	2	diastole	12	A	1578.5670027440333	coherent
154.41	0.0825035000452771	2	diastole	13	A	1578.5670027440333	coherent
154.5764	0.0825035000452771	2	diastole	14	B	500.0	coherent
154.7425	0.0825035000452771	2	diastole	15	A	1578.5670027440333	coherent
155.0595	0.0825035000452771	2	diastole	16	A	1578.5670027440333	coherent
155.2259	0.0825035000452771	2	diastole	17	B	500.0	coherent
155.392	0.0825035000452771	2	diastole	18	A	1578.5670027440333	coherent
155.7091	0.0825035000452771	2	diastole	19	A	1578.5670027440333	coherent
155.8755	0.0825035000452771	2	diastole	20	B	500.0	coherent
156.0416	0.0825035000452771	2	diastole	21	A	1578.5670027440333	coherent
156.3824	0.0825035000452771	2	diastole	22	A	1578.5670027440333	coherent
156.5476	0.0825035000452771	2	diastole	23	B	500.0	coherent
156.7125	0.0825035000452771	2	diastole	24	A	1578.5670027440333	coherent
157.0629	0.0825035000452771	2	diastole	25	A	1578.5670027440333	coherent
157.228	0.0825035000452771	2	diastole	26	B	500.0	coherent
157.3929	0.0825035000452771	2	diastole	27	A	1578.5670027440333	coherent
157.7324	0.0825035000452771	2	diastole	28	A	1578.5670027440333	coherent
157.8976	0.0825035000452771	2	diastole	29	B	500.0	coherent
158.0625	0.0825035000452771	2	diastole	30	A	1578.5670027440333	coherent
158.4096	0.0825035000452771	2	diastole	31	A	1578.5670027440333	coherent
158.5759	0.0825035000452771	2	diastole	32	B	500.0	coherent
158.742	0.0825035000452771	2	diastole	33	A	1578.5670027440333	coherent
159.1082	0.0825035000452771	2	diastole	34	A	1578.5670027440333	coherent
159.2758	0.0825035000452771	2	diastole	35	B	500.0	coherent
159.4431	0.0825035000452771	2	diastole	36	A	1578.5670027440333	coherent
159.8062	0.0825035000452771	2	diastole	37	A	1578.5670027440333	coherent
159.9738	0.0825035000452771	2	diastole	38	B	500.0	coherent
160.1411	0.0825035000452771	2	diastole	39	A	1578.5670027440333	coherent
160.494	0.0825035000452771	2	diastole	40	A	1578.5670027440333	coherent
160.663	0.0825035000452771	2	diastole	41	B	500.0	coherent
160.8317	0.0825035000452771	2	diastole	42	A	1578.5670027440333	coherent
169.9115	0.0837528556585311	3	diastole	1	A	2180.0224995339627	coherent
170.0815	0.0837528556585311	3	diastole	2	B	500.0	coherent
170.2515	0.0837528556585311	3	diastole	3	A	2180.0224995339627	coherent
170.5715	0.0837528556585311	3	diastole	4	A	2180.0224995339627	coherent
170.7415	0.0837528556585311	3	diastole	5	B	500.0	coherent
170.9115	0.0837528556585311	3	diastole	6	A	2180.0224995339627	coherent
171.2315	0.0837528556585311	3	diastole	7	A	2180.0224995339627	coherent
171.4014	0.0837528556585311	3	diastole	8	B	500.0	coherent
171.5715	0.0837528556585311	3	diastole	9	A	2180.0224995339627	coherent
171.8914	0.0837528556585311	3	diastole	10	A	2180.0224995339627	coherent
172.0614	0.0837528556585311	3	diastole	11	B	500.0	coherent
172.2314	0.0837528556585311	3	diastole	12	A	2180.0224995339627	coherent
172.5414	0.0837528556585311	3	diastole	13	A	2180.0224995339627	coherent
172.7114	0.0837528556585311	3	diastole	14	B	500.0	coherent
172.8814	0.0837528556585311	3	diastole	15	A	2180.0224995339627	coherent
173.1914	0.0837528556585311	3	diastole	16	A	2180.0224995339627	coherent
173.3614	0.0837528556585311	3	diastole	17	B	500.0	coherent
173.5314	0.0837528556585311	3	diastole	18	A	2180.0224995339627	coherent
173.8514	0.0837528556585311	3	diastole	19	A	2180.0224995339627	coherent
174.0214	0.0837528556585311	3	diastole	20	B	500.0	coherent
174.1914	0.0837528556585311	3	diastole	21	A	2180.0224995339627	coherent
174.4773	0.0837528556585311	3	diastole	22	A	2180.0224995339627	coherent
174.6448	0.0837528556585311	3	diastole	23	B	500.0	coherent
174.8123	0.0837528556585311	3	diastole	24	A	2180.0224995339627	coherent
175.1172	0.0837528556585311	3	diastole	25	A	2180.0224995339627	coherent
175.2847	0.0837528556585311	3	diastole	26	B	500.0	coherent
175.4523	0.0837528556585311	3	diastole	27	A	2180.0224995339627	coherent
175.8214	0.0837528556585311	3	diastole	28	A	2180.0224995339627	coherent
175.9914	0.0837528556585311	3	diastole	29	B	500.0	coherent
176.1614	0.0837528556585311	3	diastole	30	A	2180.0224995339627	coherent
176.5114	0.0837528556585311	3	diastole	31	A	2180.0224995339627	coherent
176.6814	0.0837528556585311	3	diastole	32	B	500.0	coherent
176.8514	0.0837528556585311	3	diastole	33	A	2180.0224995339627	coherent
177.2214	0.0837528556585311	3	diastole	34	A	2180.0224995339627	coherent
177.3914	0.0837528556585311	3	diastole	35	B	500.0	coherent
177.5614	0.0837528556585311	3	diastole	36	A	2180.0224995339627	coherent
177.9314	0.0837528556585311	3	diastole	37	A	2180.0224995339627	coherent
178.1014	0.0837528556585311	3	diastole	38	B	500.0	coherent
178.2714	0.0837528556585311	3	diastole	39	A	2180.0224995339627	coherent
178.6455	0.0837528556585311	3	diastole	40	A	2180.0224995339627	coherent
178.818	0.0837528556585311	3	diastole	41	B	500.0	coherent
178.9905	0.0837528556585311	3	diastole	42	A	2180.0224995339627	coherent
182.3402	0.0875150125357322	4	diastole	1	A	1987.9452401467304	streaming
182.5156	0.0875150125357322	4	diastole	2	B	500.0	streaming
182.6904	0.0875150125357322	4	diastole	3	A	1987.9452401467304	streaming
183.0406	0.0875150125357322	4	diastole	4	A	1987.9452401467304	streaming
183.216	0.0875150125357322	4	diastole	5	B	500.0	streaming
183.3908	0.0875150125357322	4	diastole	6	A	1987.9452401467304	streaming
183.7	0.0875150125357322	4	diastole	7	A	1987.9452401467304	streaming
183.8753	0.0875150125357322	4	diastole	8	B	500.0	streaming
184.05	0.0875150125357322	4	diastole	9	A	1987.9452401467304	streaming
184.3597	0.0875150125357322	4	diastole	10	A	1987.9452401467304	streaming
184.535	0.0875150125357322	4	diastole	11	B	500.0	streaming
184.7097	0.0875150125357322	4	diastole	12	A	1987.9452401467304	streaming
185.0295	0.0875150125357322	4	diastole	13	A	1987.9452401467304	streaming
185.2048	0.0875150125357322	4	diastole	14	B	500.0	streaming
185.3794	0.0875150125357322	4	diastole	15	A	1987.9452401467304	streaming
185.6995	0.0875150125357322	4	diastole	16	A	1987.9452401467304	streaming
185.8748	0.0875150125357322	4	diastole	17	B	500.0	streaming
186.0494	0.0875150125357322	4	diastole	18	A	1987.9452401467304	streaming
186.3695	0.0875150125357322	4	diastole	19	A	1987.9452401467304	streaming
186.5448	0.0875150125357322	4	diastole	20	B	500.0	streaming
186.7195	0.0875150125357322	4	diastole	21	A	1987.9452401467304	streaming
186.9973	0.0875150125357322	4	diastole	22	A	1987.9452401467304	streaming
187.1651	0.0875150125357322	4	diastole	23	B	500.0	streaming
187.3323	0.0875150125357322	4	diastole	24	A	1987.9452401467304	streaming
187.6673	0.0875150125357322	4	diastole	25	A	1987.9452401467304	streaming
187.8351	0.0875150125357322	4	diastole	26	B	500.0	streaming
188.0023	0.0875150125357322	4	diastole	27	A	1987.9452401467304	streaming
188.3373	0.0875150125357322	4	diastole	28	A	1987.9452401467304	streaming
188.5052	0.0875150125357322	4	diastole	29	B	500.0	streaming
188.6723	0.0875150125357322	4	diastole	30	A	1987.9452401467304	streaming
189.0374	0.0875150125357322	4	diastole	31	A	1987.9452401467304	streaming
189.2052	0.0875150125357322	4	diastole	32	B	500.0	streaming
189.3724	0.0875150125357322	4	diastole	33	A	1987.9452401467304	streaming
189.7274	0.0875150125357322	4	diastole	34	A	1987.9452401467304	streaming
189.8952	0.0875150125357322	4	diastole	35	B	500.0	streaming
190.0624	0.0875150125357322	4	diastole	36	A	1987.9452401467304	streaming
190.4544	0.0875150125357322	4	diastole	37	A	1987.9452401467304	streaming
190.6235	0.0875150125357322	4	diastole	38	B	500.0	streaming
190.7919	0.0875150125357322	4	diastole	39	A	1987.9452401467304	streaming
191.1985	0.0875150125357322	4	diastole	40	A	1987.9452401467304	streaming
191.3701	0.0875150125357322	4	diastole	41	B	500.0	streaming
191.5411	0.0875150125357322	4	diastole	42	A	1987.9452401467304	streaming
200.6651	0.0868585314019583	5	systole	1	A	2180.0224995339627	streaming
200.8388	0.0868585314019583	5	systole	2	B	500.0	streaming
201.0125	0.0868585314019583	5	systole	3	A	2180.0224995339627	streaming
201.3851	0.0868585314019583	5	systole	4	A	2180.0224995339627	streaming
201.5588	0.0868585314019583	5	systole	5	B	500.0	streaming
201.7325	0.0868585314019583	5	systole	6	A	2180.0224995339627	streaming
202.0951	0.0868585314019583	5	systole	7	A	2180.0224995339627	streaming
202.2689	0.0868585314019583	5	systole	8	B	500.0	streaming
202.4426	0.0868585314019583	5	systole	9	A	2180.0224995339627	streaming
202.8052	0.0868585314019583	5	systole	10	A	2180.0224995339627	streaming
202.9789	0.0868585314019583	5	systole	11	B	500.0	streaming
203.1526	0.0868585314019583	5	systole	12	A	2180.0224995339627	streaming
203.5105	0.0868585314019583	5	systole	13	A	2180.0224995339627	streaming
203.6856	0.0868585314019583	5	systole	14	B	500.0	streaming
203.8606	0.0868585314019583	5	systole	15	A	2180.0224995339627	streaming
204.1801	0.0868585314019583	5	systole	16	A	2180.0224995339627	streaming
204.3552	0.0868585314019583	5	systole	17	B	500.0	streaming
204.5303	0.0868585314019583	5	systole	18	A	2180.0224995339627	streaming
204.8498	0.0868585314019583	5	systole	19	A	2180.0224995339627	streaming
205.0248	0.0868585314019583	5	systole	20	B	500.0	streaming
205.1999	0.0868585314019583	5	systole	21	A	2180.0224995339627	streaming
205.5194	0.0868585314019583	5	systole	22	A	2180.0224995339627	streaming
205.6945	0.0868585314019583	5	systole	23	B	500.0	streaming
205.8695	0.0868585314019583	5	systole	24	A	2180.0224995339627	streaming
206.2194	0.0868585314019583	5	systole	25	A	2180.0224995339627	streaming
206.3944	0.0868585314019583	5	systole	26	B	500.0	streaming
206.5695	0.0868585314019583	5	systole	27	A	2180.0224995339627	streaming
206.8992	0.0868585314019583	5	systole	28	A	2180.0224995339627	streaming
207.0742	0.0868585314019583	5	systole	29	B	500.0	streaming
207.2492	0.0868585314019583	5	systole	30	A	2180.0224995339627	streaming
207.5793	0.0868585314019583	5	systole	31	A	2180.0224995339627	streaming
207.7543	0.0868585314019583	5	systole	32	B	500.0	streaming
207.9293	0.0868585314019583	5	systole	33	A	2180.0224995339627	streaming
208.2647	0.0868585314019583	5	systole	34	A	2180.0224995339627	streaming
208.4385	0.0868585314019583	5	systole	35	B	500.0	streaming
208.6122	0.0868585314019583	5	systole	36	A	2180.0224995339627	streaming
208.9547	0.0868585314019583	5	systole	37	A	2180.0224995339627	streaming
209.1285	0.0868585314019583	5	systole	38	B	500.0	streaming
209.3022	0.0868585314019583	5	systole	39	A	2180.0224995339627	streaming
209.6448	0.0868585314019583	5	systole	40	A	2180.0224995339627	streaming
209.8185	0.0868585314019583	5	systole	41	B	500.0	streaming
209.9923	0.0868585314019583	5	systole	42	A	2180.0224995339627	streaming
232.2285	0.0893757140729576	6	diastole	1	A	1143.0495706741503	coherent
232.4083	0.0893757140729576	6	diastole	2	B	500.0	coherent
232.5885	0.0893757140729576	6	diastole	3	A	1143.0495706741503	coherent
232.9385	0.0893757140729576	6	diastole	4	A	1143.0495706741503	coherent
233.1183	0.0893757140729576	6	diastole	5	B	500.0	coherent
233.2985	0.0893757140729576	6	diastole	6	A	1143.0495706741503	coherent
233.5885	0.0893757140729576	6	diastole	7	A	1143.0495706741503	coherent
233.7683	0.0893757140729576	6	diastole	8	B	500.0	coherent
233.9485	0.0893757140729576	6	diastole	9	A	1143.0495706741503	coherent
234.2385	0.0893757140729576	6	diastole	10	A	1143.0495706741503	coherent
234.4183	0.0893757140729576	6	diastole	11	B	500.0	coherent
234.5985	0.0893757140729576	6	diastole	12	A	1143.0495706741503	coherent
234.8885	0.0893757140729576	6	diastole	13	A	1143.0495706741503	coherent
235.0683	0.0893757140729576	6	diastole	14	B	500.0	coherent
235.2485	0.0893757140729576	6	diastole	15	A	1143.0495706741503	coherent
235.5302	0.0893757140729576	6	diastole	16	A	1143.0495706741503	coherent
235.705	0.0893757140729576	6	diastole	17	B	500.0	coherent
235.8802	0.0893757140729576	6	diastole	18	A	1143.0495706741503	coherent
236.2059	0.0893757140729576	6	diastole	19	A	1143.0495706741503	coherent
236.3782	0.0893757140729576	6	diastole	20	B	500.0	coherent
236.5509	0.0893757140729576	6	diastole	21	A	1143.0495706741503	coherent
236.8959	0.0893757140729576	6	diastole	22	A	1143.0495706741503	coherent
237.0681	0.0893757140729576	6	diastole	23	B	500.0	coherent
237.2408	0.0893757140729576	6	diastole	24	A	1143.0495706741503	coherent
237.5683	0.0893757140729576	6	diastole	25	A	1143.0495706741503	coherent
237.7392	0.0893757140729576	6	diastole	26	B	500.0	coherent
237.9106	0.0893757140729576	6	diastole	27	A	1143.0495706741503	coherent
238.2479	0.0893757140729576	6	diastole	28	A	1143.0495706741503	coherent
238.4189	0.0893757140729576	6	diastole	29	B	500.0	coherent
238.5903	0.0893757140729576	6	diastole	30	A	1143.0495706741503	coherent
238.958	0.0893757140729576	6	diastole	31	A	1143.0495706741503	coherent
239.129	0.0893757140729576	6	diastole	32	B	500.0	coherent
239.3003	0.0893757140729576	6	diastole	33	A	1143.0495706741503	coherent
239.6783	0.0893757140729576	6	diastole	34	A	1143.0495706741503	coherent
239.8493	0.0893757140729576	6	diastole	35	B	500.0	coherent
240.0207	0.0893757140729576	6	diastole	36	A	1143.0495706741503	coherent
240.3987	0.0893757140729576	6	diastole	37	A	1143.0495706741503	coherent
240.5697	0.0893757140729576	6	diastole	38	B	500.0	coherent
240.7411	0.0893757140729576	6	diastole	39	A	1143.0495706741503	coherent
245.3541	0.0887559936963953	7	diastole	1	A	1169.7126981694591	coherent
245.5315	0.0887559936963953	7	diastole	2	B	500.0	coherent
245.7091	0.0887559936963953	7	diastole	3	A	1169.7126981694591	coherent
246.0203	0.0887559936963953	7	diastole	4	A	1169.7126981694591	coherent
246.1951	0.0887559936963953	7	diastole	5	B	500.0	coherent
246.3703	0.0887559936963953	7	diastole	6	A	1169.7126981694591	coherent
246.7006	0.0887559936963953	7	diastole	7	A	1169.7126981694591	coherent
246.8755	0.0887559936963953	7	diastole	8	B	500.0	coherent
247.0506	0.0887559936963953	7	diastole	9	A	1169.7126981694591	coherent
247.318	0.0887559936963953	7	diastole	10	A	1169.7126981694591	coherent
247.4903	0.0887559936963953	7	diastole	11	B	500.0	coherent
247.663	0.0887559936963953	7	diastole	12	A	1169.7126981694591	coherent
247.9909	0.0887559936963953	7	diastole	13	A	1169.7126981694591	coherent
248.162	0.0887559936963953	7	diastole	14	B	500.0	coherent
248.3334	0.0887559936963953	7	diastole	15	A	1169.7126981694591	coherent
248.6709	0.0887559936963953	7	diastole	16	A	1169.7126981694591	coherent
248.842	0.0887559936963953	7	diastole	17	B	500.0	coherent
249.0134	0.0887559936963953	7	diastole	18	A	1169.7126981694591	coherent
249.4111	0.0887559936963953	7	diastole	19	A	1169.7126981694591	coherent
249.5822	0.0887559936963953	7	diastole	20	B	500.0	coherent
249.7536	0.0887559936963953	7	diastole	21	A	1169.7126981694591	coherent
250.1513	0.0887559936963953	7	diastole	22	A	1169.7126981694591	coherent
250.3224	0.0887559936963953	7	diastole	23	B	500.0	coherent
250.4938	0.0887559936963953	7	diastole	24	A	1169.7126981694591	coherent
250.8882	0.0887559936963953	7	diastole	25	A	1169.7126981694591	coherent
251.0605	0.0887559936963953	7	diastole	26	B	500.0	coherent
251.2331	0.0887559936963953	7	diastole	27	A	1169.7126981694591	coherent
251.6182	0.0887559936963953	7	diastole	28	A	1169.7126981694591	coherent
251.7905	0.0887559936963953	7	diastole	29	B	500.0	coherent
251.9631	0.0887559936963953	7	diastole	30	A	1169.7126981694591	coherent
252.3597	0.0887559936963953	7	diastole	31	A	1169.7126981694591	coherent
252.5358	0.0887559936963953	7	diastole	32	B	500.0	coherent
252.7122	0.0887559936963953	7	diastole	33	A	1169.7126981694591	coherent
253.0838	0.0887559936963953	7	diastole	34	A	1169.7126981694591	coherent
253.2624	0.0887559936963953	7	diastole	35	B	500.0	coherent
253.4413	0.0887559936963953	7	diastole	36	A	1169.7126981694591	coherent
253.794	0.0887559936963953	7	diastole	37	A	1169.7126981694591	coherent
253.9725	0.0887559936963953	7	diastole	38	B	500.0	coherent
254.1515	0.0887559936963953	7	diastole	39	A	1169.7126981694591	coherent
263.4067	0.0862506531411781	8	diastole	1	A	3457.353363503972	streaming
263.5796	0.0862506531411781	8	diastole	2	B	500.0	streaming
263.7521	0.0862506531411781	8	diastole	3	A	3457.353363503972	streaming
264.1326	0.0862506531411781	8	diastole	4	A	3457.353363503972	streaming
264.3065	0.0862506531411781	8	diastole	5	B	500.0	streaming
264.4801	0.0862506531411781	8	diastole	6	A	3457.353363503972	streaming
264.8126	0.0862506531411781	8	diastole	7	A	3457.353363503972	streaming
264.9865	0.0862506531411781	8	diastole	8	B	500.0	streaming
265.1601	0.0862506531411781	8	diastole	9	A	3457.353363503972	streaming
265.4926	0.0862506531411781	8	diastole	10	A	3457.353363503972	streaming
265.6665	0.0862506531411781	8	diastole	11	B	500.0	streaming
265.8401	0.0862506531411781	8	diastole	12	A	3457.353363503972	streaming
266.1726	0.0862506531411781	8	diastole	13	A	3457.353363503972	streaming
266.3465	0.0862506531411781	8	diastole	14	B	500.0	streaming
266.5201	0.0862506531411781	8	diastole	15	A	3457.353363503972	streaming
266.9038	0.0862506531411781	8	diastole	16	A	3457.353363503972	streaming
267.0814	0.0862506531411781	8	diastole	17	B	500.0	streaming
267.2588	0.0862506531411781	8	diastole	18	A	3457.353363503972	streaming
267.6139	0.0862506531411781	8	diastole	19	A	3457.353363503972	streaming
267.7915	0.0862506531411781	8	diastole	20	B	500.0	streaming
267.9689	0.0862506531411781	8	diastole	21	A	3457.353363503972	streaming
268.2897	0.0862506531411781	8	diastole	22	A	3457.353363503972	streaming
268.4649	0.0862506531411781	8	diastole	23	B	500.0	streaming
268.6397	0.0862506531411781	8	diastole	24	A	3457.353363503972	streaming
268.9968	0.0862506531411781	8	diastole	25	A	3457.353363503972	streaming
269.1732	0.0862506531411781	8	diastole	26	B	500.0	streaming
269.3493	0.0862506531411781	8	diastole	27	A	3457.353363503972	streaming
269.6968	0.0862506531411781	8	diastole	28	A	3457.353363503972	streaming
269.8732	0.0862506531411781	8	diastole	29	B	500.0	streaming
270.0493	0.0862506531411781	8	diastole	30	A	3457.353363503972	streaming
270.3968	0.0862506531411781	8	diastole	31	A	3457.353363503972	streaming
270.5732	0.0862506531411781	8	diastole	32	B	500.0	streaming
270.7493	0.0862506531411781	8	diastole	33	A	3457.353363503972	streaming
271.0968	0.0862506531411781	8	diastole	34	A	3457.353363503972	streaming
271.2732	0.0862506531411781	8	diastole	35	B	500.0	streaming
271.4493	0.0862506531411781	8	diastole	36	A	3457.353363503972	streaming
271.7968	0.0862506531411781	8	diastole	37	A	3457.353363503972	streaming
271.9732	0.0862506531411781	8	diastole	38	B	500.0	streaming
272.1493	0.0862506531411781	8	diastole	39	A	3457.353363503972	streaming
272.4729	0.0862506531411781	8	diastole	40	A	3457.353363503972	streaming
272.6468	0.0862506531411781	8	diastole	41	B	500.0	streaming
272.8205	0.0862506531411781	8	diastole	42	A	3457.353363503972	streaming
278.0895	0.0868613916682079	9	diastole	1	A	3704.9827347719142	streaming
278.2647	0.0868613916682079	9	diastole	2	B	500.0	streaming
278.4395	0.0868613916682079	9	diastole	3	A	3704.9827347719142	streaming
278.8175	0.0868613916682079	9	diastole	4	A	3704.9827347719142	streaming
278.9927	0.0868613916682079	9	diastole	5	B	500.0	streaming
279.1675	0.0868613916682079	9	diastole	6	A	3704.9827347719142	streaming
279.4991	0.0868613916682079	9	diastole	7	A	3704.9827347719142	streaming
279.6743	0.0868613916682079	9	diastole	8	B	500.0	streaming
279.8491	0.0868613916682079	9	diastole	9	A	3704.9827347719142	streaming
280.1875	0.0868613916682079	9	diastole	10	A	3704.9827347719142	streaming
280.3627	0.0868613916682079	9	diastole	11	B	500.0	streaming
280.5375	0.0868613916682079	9	diastole	12	A	3704.9827347719142	streaming
280.8875	0.0868613916682079	9	diastole	13	A	3704.9827347719142	streaming
281.0627	0.0868613916682079	9	diastole	14	B	500.0	streaming
281.2375	0.0868613916682079	9	diastole	15	A	3704.9827347719142	streaming
281.5873	0.0868613916682079	9	diastole	16	A	3704.9827347719142	streaming
281.7625	0.0868613916682079	9	diastole	17	B	500.0	streaming
281.9373	0.0868613916682079	9	diastole	18	A	3704.9827347719142	streaming
282.2199	0.0868613916682079	9	diastole	19	A	3704.9827347719142	streaming
282.3938	0.0868613916682079	9	diastole	20	B	500.0	streaming
282.5673	0.0868613916682079	9	diastole	21	A	3704.9827347719142	streaming
282.8918	0.0868613916682079	9	diastole	22	A	3704.9827347719142	streaming
283.0643	0.0868613916682079	9	diastole	23	B	500.0	streaming
283.2364	0.0868613916682079	9	diastole	24	A	3704.9827347719142	streaming
283.5659	0.0868613916682079	9	diastole	25	A	3704.9827347719142	streaming
283.7373	0.0868613916682079	9	diastole	26	B	500.0	streaming
283.9084	0.0868613916682079	9	diastole	27	A	3704.9827347719142	streaming
284.2659	0.0868613916682079	9	diastole	28	A	3704.9827347719142	streaming
284.4374	0.0868613916682079	9	diastole	29	B	500.0	streaming
284.6084	0.0868613916682079	9	diastole	30	A	3704.9827347719142	streaming
284.9659	0.0868613916682079	9	diastole	31	A	3704.9827347719142	streaming
285.1374	0.0868613916682079	9	diastole	32	B	500.0	streaming
285.3084	0.0868613916682079	9	diastole	33	A	3704.9827347719142	streaming
285.6659	0.0868613916682079	9	diastole	34	A	3704.9827347719142	streaming
285.8374	0.0868613916682079	9	diastole	35	B	500.0	streaming
286.0084	0.0868613916682079	9	diastole	36	A	3704.9827347719142	streaming
286.3402	0.0868613916682079	9	diastole	37	A	3704.9827347719142	streaming
286.5107	0.0868613916682079	9	diastole	38	B	500.0	streaming
286.6808	0.0868613916682079	9	diastole	39	A	3704.9827347719142	streaming
287.0202	0.0868613916682079	9	diastole	40	A	3704.9827347719142	streaming
287.1907	0.0868613916682079	9	diastole	41	B	500.0	streaming
287.3607	0.0868613916682079	9	diastole	42	A	3704.9827347719142	streaming
293.2261	0.0862510384758934	10	diastole	1	A	1169.7126981694591	coherent
293.3984	0.0862510384758934	10	diastole	2	B	500.0	coherent
293.5711	0.0862510384758934	10	diastole	3	A	1169.7126981694591	coherent
293.906	0.0862510384758934	10	diastole	4	A	1169.7126981694591	coherent
294.0784	0.0862510384758934	10	diastole	5	B	500.0	coherent
294.251	0.0862510384758934	10	diastole	6	A	1169.7126981694591	coherent
294.586	0.0862510384758934	10	diastole	7	A	1169.7126981694591	coherent
294.7583	0.0862510384758934	10	diastole	8	B	500.0	coherent
294.9309	0.0862510384758934	10	diastole	9	A	1169.7126981694591	coherent
295.2359	0.0862510384758934	10	diastole	10	A	1169.7126981694591	coherent
295.4083	0.0862510384758934	10	diastole	11	B	500.0	coherent
295.5809	0.0862510384758934	10	diastole	12	A	1169.7126981694591	coherent
295.8859	0.0862510384758934	10	diastole	13	A	1169.7126981694591	coherent
296.0583	0.0862510384758934	10	diastole	14	B	500.0	coherent
296.2309	0.0862510384758934	10	diastole	15	A	1169.7126981694591	coherent
296.5388	0.0862510384758934	10	diastole	16	A	1169.7126981694591	coherent
296.7099	0.0862510384758934	10	diastole	17	B	500.0	coherent
296.8813	0.0862510384758934	10	diastole	18	A	1169.7126981694591	coherent
297.1676	0.0862510384758934	10	diastole	19	A	1169.7126981694591	coherent
297.3349	0.0862510384758934	10	diastole	20	B	500.0	coherent
297.5026	0.0862510384758934	10	diastole	21	A	1169.7126981694591	coherent
297.8176	0.0862510384758934	10	diastole	22	A	1169.7126981694591	coherent
297.9849	0.0862510384758934	10	diastole	23	B	500.0	coherent
298.1525	0.0862510384758934	10	diastole	24	A	1169.7126981694591	coherent
298.4264	0.0862510384758934	10	diastole	25	A	1169.7126981694591	coherent
298.59	0.0862510384758934	10	diastole	26	B	500.0	coherent
298.7539	0.0862510384758934	10	diastole	27	A	1169.7126981694591	coherent
299.0293	0.0862510384758934	10	diastole	28	A	1169.7126981694591	coherent
299.1916	0.0862510384758934	10	diastole	29	B	500.0	coherent
299.3543	0.0862510384758934	10	diastole	30	A	1169.7126981694591	coherent
299.6393	0.0862510384758934	10	diastole	31	A	1169.7126981694591	coherent
299.8016	0.0862510384758934	10	diastole	32	B	500.0	coherent
299.9643	0.0862510384758934	10	diastole	33	A	1169.7126981694591	coherent
300.2492	0.0862510384758934	10	diastole	34	A	1169.7126981694591	coherent
300.4116	0.0862510384758934	10	diastole	35	B	500.0	coherent
300.5742	0.0862510384758934	10	diastole	36	A	1169.7126981694591	coherent
300.8592	0.0862510384758934	10	diastole	37	A	1169.7126981694591	coherent
301.0216	0.0862510384758934	10	diastole	38	B	500.0	coherent
301.1842	0.0862510384758934	10	diastole	39	A	1169.7126981694591	coherent
301.4692	0.0862510384758934	10	diastole	40	A	1169.7126981694591	coherent
301.6316	0.0862510384758934	10	diastole	41	B	500.0	coherent
301.7942	0.0862510384758934	10	diastole	42	A	1169.7126981694591	coherent
302.0792	0.0862510384758934	10	diastole	43	A	1169.7126981694591	coherent
302.2415	0.0862510384758934	10	diastole	44	B	500.0	coherent
302.4042	0.0862510384758934	10	diastole	45	A	1169.7126981694591	coherent
316.3982	0.0900066995527595	11	diastole	1	A	3620.5291529823535	streaming
316.5784	0.0900066995527595	11	diastole	2	B	500.0	streaming
316.7582	0.0900066995527595	11	diastole	3	A	3620.5291529823535	streaming
317.0982	0.0900066995527595	11	diastole	4	A	3620.5291529823535	streaming
317.2783	0.0900066995527595	11	diastole	5	B	500.0	streaming
317.4582	0.0900066995527595	11	diastole	6	A	3620.5291529823535	streaming
317.7782	0.0900066995527595	11	diastole	7	A	3620.5291529823535	streaming
317.9584	0.0900066995527595	11	diastole	8	B	500.0	streaming
318.1382	0.0900066995527595	11	diastole	9	A	3620.5291529823535	streaming
318.3883	0.0900066995527595	11	diastole	10	A	3620.5291529823535	streaming
318.5685	0.0900066995527595	11	diastole	11	B	500.0	streaming
318.7483	0.0900066995527595	11	diastole	12	A	3620.5291529823535	streaming
319.0069	0.0900066995527595	11	diastole	13	A	3620.5291529823535	streaming
319.1833	0.0900066995527595	11	diastole	14	B	500.0	streaming
319.3594	0.0900066995527595	11	diastole	15	A	3620.5291529823535	streaming
319.6469	0.0900066995527595	11	diastole	16	A	3620.5291529823535	streaming
319.8233	0.0900066995527595	11	diastole	17	B	500.0	streaming
319.9994	0.0900066995527595	11	diastole	18	A	3620.5291529823535	streaming
320.2869	0.0900066995527595	11	diastole	19	A	3620.5291529823535	streaming
320.4633	0.0900066995527595	11	diastole	20	B	500.0	streaming
320.6394	0.0900066995527595	11	diastole	21	A	3620.5291529823535	streaming
320.9373	0.0900066995527595	11	diastole	22	A	3620.5291529823535	streaming
321.11	0.0900066995527595	11	diastole	23	B	500.0	streaming
321.2823	0.0900066995527595	11	diastole	24	A	3620.5291529823535	streaming
321.6873	0.0900066995527595	11	diastole	25	A	3620.5291529823535	streaming
321.86	0.0900066995527595	11	diastole	26	B	500.0	streaming
322.0323	0.0900066995527595	11	diastole	27	A	3620.5291529823535	streaming
322.4373	0.0900066995527595	11	diastole	28	A	3620.5291529823535	streaming
322.6099	0.0900066995527595	11	diastole	29	B	500.0	streaming
322.7823	0.0900066995527595	11	diastole	30	A	3620.5291529823535	streaming
323.1872	0.0900066995527595	11	diastole	31	A	3620.5291529823535	streaming
323.3599	0.0900066995527595	11	diastole	32	B	500.0	streaming
323.5322	0.0900066995527595	11	diastole	33	A	3620.5291529823535	streaming
323.8972	0.0900066995527595	11	diastole	34	A	3620.5291529823535	streaming
324.0699	0.0900066995527595	11	diastole	35	B	500.0	streaming
324.2422	0.0900066995527595	11	diastole	36	A	3620.5291529823535	streaming
324.6072	0.0900066995527595	11	diastole	37	A	3620.5291529823535	streaming
324.7799	0.0900066995527595	11	diastole	38	B	500.0	streaming
324.9522	0.0900066995527595	11	diastole	39	A	3620.5291529823535	streaming
325.3443	0.0900066995527595	11	diastole	40	A	3620.5291529823535	streaming
325.5182	0.0900066995527595	11	diastole	41	B	500.0	streaming
325.6918	0.0900066995527595	11	diastole	42	A	3620.5291529823535	streaming
329.9449	0.0881445123814046	12	systole	1	A	1253.4921645871675	coherent
330.1211	0.0881445123814046	12	systole	2	B	500.0	coherent
330.2975	0.0881445123814046	12	systole	3	A	1253.4921645871675	coherent
330.6653	0.0881445123814046	12	systole	4	A	1253.4921645871675	coherent
330.8415	0.0881445123814046	12	systole	5	B	500.0	coherent
331.0178	0.0881445123814046	12	systole	6	A	1253.4921645871675	coherent
331.3953	0.0881445123814046	12	systole	7	A	1253.4921645871675	coherent
331.5715	0.0881445123814046	12	systole	8	B	500.0	coherent
331.7478	0.0881445123814046	12	systole	9	A	1253.4921645871675	coherent
332.1252	0.0881445123814046	12	systole	10	A	1253.4921645871675	coherent
332.3015	0.0881445123814046	12	systole	11	B	500.0	coherent
332.4778	0.0881445123814046	12	systole	12	A	1253.4921645871675	coherent
332.8212	0.0881445123814046	12	systole	13	A	1253.4921645871675	coherent
332.9962	0.0881445123814046	12	systole	14	B	500.0	coherent
333.1714	0.0881445123814046	12	systole	15	A	1253.4921645871675	coherent
333.5496	0.0881445123814046	12	systole	16	A	1253.4921645871675	coherent
333.727	0.0881445123814046	12	systole	17	B	500.0	coherent
333.9046	0.0881445123814046	12	systole	18	A	1253.4921645871675	coherent
334.2744	0.0881445123814046	12	systole	19	A	1253.4921645871675	coherent
334.4531	0.0881445123814046	12	systole	20	B	500.0	coherent
334.6318	0.0881445123814046	12	systole	21	A	1253.4921645871675	coherent
334.9545	0.0881445123814046	12	systole	22	A	1253.4921645871675	coherent
335.1331	0.0881445123814046	12	systole	23	B	500.0	coherent
335.3119	0.0881445123814046	12	systole	24	A	1253.4921645871675	coherent
335.6341	0.0881445123814046	12	systole	25	A	1253.4921645871675	coherent
335.8127	0.0881445123814046	12	systole	26	B	500.0	coherent
335.9915	0.0881445123814046	12	systole	27	A	1253.4921645871675	coherent
336.3137	0.0881445123814046	12	systole	28	A	1253.4921645871675	coherent
336.4924	0.0881445123814046	12	systole	29	B	500.0	coherent
336.6711	0.0881445123814046	12	systole	30	A	1253.4921645871675	coherent
336.9934	0.0881445123814046	12	systole	31	A	1253.4921645871675	coherent
337.172	0.0881445123814046	12	systole	32	B	500.0	coherent
337.3508	0.0881445123814046	12	systole	33	A	1253.4921645871675	coherent
337.6938	0.0881445123814046	12	systole	34	A	1253.4921645871675	coherent
337.8724	0.0881445123814046	12	systole	35	B	500.0	coherent
338.0512	0.0881445123814046	12	systole	36	A	1253.4921645871675	coherent
338.3942	0.0881445123814046	12	systole	37	A	1253.4921645871675	coherent
338.5729	0.0881445123814046	12	systole	38	B	500.0	coherent
338.7517	0.0881445123814046	12	systole	39	A	1253.4921645871675	coherent
339.0875	0.0881445123814046	12	systole	40	A	1253.4921645871675	coherent
339.2639	0.0881445123814046	12	systole	41	B	500.0	coherent
339.4404	0.0881445123814046	12	systole	42	A	1253.4921645871675	coherent
339.7611	0.0881445123814046	12	systole	43	A	1253.4921645871675	coherent
339.9363	0.0881445123814046	12	systole	44	B	500.0	coherent
340.1116	0.0881445123814046	12	systole	45	A	1253.4921645871675	coherent
342.9199	0.087497585627716	13	diastole	1	A	3457.353363503972	streaming
343.0951	0.087497585627716	13	diastole	2	B	500.0	streaming
343.27	0.087497585627716	13	diastole	3	A	3457.353363503972	streaming
343.6299	0.087497585627716	13	diastole	4	A	3457.353363503972	streaming
343.8051	0.087497585627716	13	diastole	5	B	500.0	streaming
343.98	0.087497585627716	13	diastole	6	A	3457.353363503972	streaming
344.34	0.087497585627716	13	diastole	7	A	3457.353363503972	streaming
344.5152	0.087497585627716	13	diastole	8	B	500.0	streaming
344.6901	0.087497585627716	13	diastole	9	A	3457.353363503972	streaming
344.9892	0.087497585627716	13	diastole	10	A	3457.353363503972	streaming
345.1644	0.087497585627716	13	diastole	11	B	500.0	streaming
345.3392	0.087497585627716	13	diastole	12	A	3457.353363503972	streaming
345.6782	0.087497585627716	13	diastole	13	A	3457.353363503972	streaming
345.853	0.087497585627716	13	diastole	14	B	500.0	streaming
346.0276	0.087497585627716	13	diastole	15	A	3457.353363503972	streaming
346.3686	0.087497585627716	13	diastole	16	A	3457.353363503972	streaming
346.5434	0.087497585627716	13	diastole	17	B	500.0	streaming
346.718	0.087497585627716	13	diastole	18	A	3457.353363503972	streaming
347.0686	0.087497585627716	13	diastole	19	A	3457.353363503972	streaming
347.2435	0.087497585627716	13	diastole	20	B	500.0	streaming
347.418	0.087497585627716	13	diastole	21	A	3457.353363503972	streaming
347.77	0.087497585627716	13	diastole	22	A	3457.353363503972	streaming
347.9451	0.087497585627716	13	diastole	23	B	500.0	streaming
348.12	0.087497585627716	13	diastole	24	A	3457.353363503972	streaming
348.4232	0.087497585627716	13	diastole	25	A	3457.353363503972	streaming
348.5971	0.087497585627716	13	diastole	26	B	500.0	streaming
348.7708	0.087497585627716	13	diastole	27	A	3457.353363503972	streaming
349.1294	0.087497585627716	13	diastole	28	A	3457.353363503972	streaming
349.3044	0.087497585627716	13	diastole	29	B	500.0	streaming
349.4793	0.087497585627716	13	diastole	30	A	3457.353363503972	streaming
349.8291	0.087497585627716	13	diastole	31	A	3457.353363503972	streaming
350.0042	0.087497585627716	13	diastole	32	B	500.0	streaming
350.179	0.087497585627716	13	diastole	33	A	3457.353363503972	streaming
350.5289	0.087497585627716	13	diastole	34	A	3457.353363503972	streaming
350.704	0.087497585627716	13	diastole	35	B	500.0	streaming
350.8788	0.087497585627716	13	diastole	36	A	3457.353363503972	streaming
351.2122	0.087497585627716	13	diastole	37	A	3457.353363503972	streaming
351.3861	0.087497585627716	13	diastole	38	B	500.0	streaming
351.5598	0.087497585627716	13	diastole	39	A	3457.353363503972	streaming
351.9022	0.087497585627716	13	diastole	40	A	3457.353363503972	streaming
352.0761	0.087497585627716	13	diastole	41	B	500.0	streaming
352.2497	0.087497585627716	13	diastole	42	A	3457.353363503972	streaming
355.3397	0.0874672398203983	14	diastole	1	A	1312.6529017338555	coherent
355.5147	0.0874672398203983	14	diastole	2	B	500.0	coherent
355.6897	0.0874672398203983	14	diastole	3	A	1312.6529017338555	coherent
356.0397	0.0874672398203983	14	diastole	4	A	1312.6529017338555	coherent
356.2147	0.0874672398203983	14	diastole	5	B	500.0	coherent
356.3897	0.0874672398203983	14	diastole	6	A	1312.6529017338555	coherent
356.7497	0.0874672398203983	14	diastole	7	A	1312.6529017338555	coherent
356.9247	0.0874672398203983	14	diastole	8	B	500.0	coherent
357.0997	0.0874672398203983	14	diastole	9	A	1312.6529017338555	coherent
357.4699	0.0874672398203983	14	diastole	10	A	1312.6529017338555	coherent
357.6449	0.0874672398203983	14	diastole	11	B	500.0	coherent
357.8199	0.0874672398203983	14	diastole	12	A	1312.6529017338555	coherent
358.1969	0.0874672398203983	14	diastole	13	A	1312.6529017338555	coherent
358.3731	0.0874672398203983	14	diastole	14	B	500.0	coherent
358.5494	0.0874672398203983	14	diastole	15	A	1312.6529017338555	coherent
358.9369	0.0874672398203983	14	diastole	16	A	1312.6529017338555	coherent
359.1132	0.0874672398203983	14	diastole	17	B	500.0	coherent
359.2895	0.0874672398203983	14	diastole	18	A	1312.6529017338555	coherent
359.6541	0.0874672398203983	14	diastole	19	A	1312.6529017338555	coherent
359.8315	0.0874672398203983	14	diastole	20	B	500.0	coherent
360.0091	0.0874672398203983	14	diastole	21	A	1312.6529017338555	coherent
360.3641	0.0874672398203983	14	diastole	22	A	1312.6529017338555	coherent
360.5416	0.0874672398203983	14	diastole	23	B	500.0	coherent
360.7191	0.0874672398203983	14	diastole	24	A	1312.6529017338555	coherent
361.0741	0.0874672398203983	14	diastole	25	A	1312.6529017338555	coherent
361.2516	0.0874672398203983	14	diastole	26	B	500.0	coherent
361.4291	0.0874672398203983	14	diastole	27	A	1312.6529017338555	coherent
361.8012	0.0874672398203983	14	diastole	28	A	1312.6529017338555	coherent
361.9799	0.0874672398203983	14	diastole	29	B	500.0	coherent
362.1587	0.0874672398203983	14	diastole	30	A	1312.6529017338555	coherent
362.5012	0.0874672398203983	14	diastole	31	A	1312.6529017338555	coherent
362.6799	0.0874672398203983	14	diastole	32	B	500.0	coherent
362.8587	0.0874672398203983	14	diastole	33	A	1312.6529017338555	coherent
363.2011	0.0874672398203983	14	diastole	34	A	1312.6529017338555	coherent
363.3799	0.0874672398203983	14	diastole	35	B	500.0	coherent
363.5586	0.0874672398203983	14	diastole	36	A	1312.6529017338555	coherent
363.9011	0.0874672398203983	14	diastole	37	A	1312.6529017338555	coherent
364.0798	0.0874672398203983	14	diastole	38	B	500.0	coherent
364.2586	0.0874672398203983	14	diastole	39	A	1312.6529017338555	coherent
366.9652	0.0868758062133565	15	systole	1	A	2621.646269519023	streaming
367.1391	0.0868758062133565	15	systole	2	B	500.0	streaming
367.3127	0.0868758062133565	15	systole	3	A	2621.646269519023	streaming
367.6852	0.0868758062133565	15	systole	4	A	2621.646269519023	streaming
367.8592	0.0868758062133565	15	systole	5	B	500.0	streaming
368.0327	0.0868758062133565	15	systole	6	A	2621.646269519023	streaming
368.3953	0.0868758062133565	15	systole	7	A	2621.646269519023	streaming
368.5692	0.0868758062133565	15	systole	8	B	500.0	streaming
368.7428	0.0868758062133565	15	systole	9	A	2621.646269519023	streaming
369.1053	0.0868758062133565	15	systole	10	A	2621.646269519023	streaming
369.2792	0.0868758062133565	15	systole	11	B	500.0	streaming
369.4528	0.0868758062133565	15	systole	12	A	2621.646269519023	streaming
369.7425	0.0868758062133565	15	systole	13	A	2621.646269519023	streaming
369.9152	0.0868758062133565	15	systole	14	B	500.0	streaming
370.0875	0.0868758062133565	15	systole	15	A	2621.646269519023	streaming
370.3925	0.0868758062133565	15	systole	16	A	2621.646269519023	streaming
370.5652	0.0868758062133565	15	systole	17	B	500.0	streaming
370.7375	0.0868758062133565	15	systole	18	A	2621.646269519023	streaming
371.0425	0.0868758062133565	15	systole	19	A	2621.646269519023	streaming
371.2152	0.0868758062133565	15	systole	20	B	500.0	streaming
371.3875	0.0868758062133565	15	systole	21	A	2621.646269519023	streaming
371.7013	0.0868758062133565	15	systole	22	A	2621.646269519023	streaming
371.8715	0.0868758062133565	15	systole	23	B	500.0	streaming
372.0413	0.0868758062133565	15	systole	24	A	2621.646269519023	streaming
372.4441	0.0868758062133565	15	systole	25	A	2621.646269519023	streaming
372.6206	0.0868758062133565	15	systole	26	B	500.0	streaming
372.7967	0.0868758062133565	15	systole	27	A	2621.646269519023	streaming
373.164	0.0868758062133565	15	systole	28	A	2621.646269519023	streaming
373.3405	0.0868758062133565	15	systole	29	B	500.0	streaming
373.5167	0.0868758062133565	15	systole	30	A	2621.646269519023	streaming
373.8454	0.0868758062133565	15	systole	31	A	2621.646269519023	streaming
374.0194	0.0868758062133565	15	systole	32	B	500.0	streaming
374.1931	0.0868758062133565	15	systole	33	A	2621.646269519023	streaming
374.5357	0.0868758062133565	15	systole	34	A	2621.646269519023	streaming
374.7097	0.0868758062133565	15	systole	35	B	500.0	streaming
374.8834	0.0868758062133565	15	systole	36	A	2621.646269519023	streaming
375.1705	0.0868758062133565	15	systole	37	A	2621.646269519023	streaming
375.3405	0.0868758062133565	15	systole	38	B	500.0	streaming
375.5101	0.0868758062133565	15	systole	39	A	2621.646269519023	streaming
375.782	0.0868758062133565	15	systole	40	A	2621.646269519023	streaming
375.9469	0.0868758062133565	15	systole	41	B	500.0	streaming
376.1115	0.0868758062133565	15	systole	42	A	2621.646269519023	streaming
384.0101	0.0874963115202263	16	systole	1	A	1196.9977780158051	coherent
384.1849	0.0874963115202263	16	systole	2	B	500.0	coherent
384.3601	0.0874963115202263	16	systole	3	A	1196.9977780158051	coherent
384.7001	0.0874963115202263	16	systole	4	A	1196.9977780158051	coherent
384.875	0.0874963115202263	16	systole	5	B	500.0	coherent
385.0501	0.0874963115202263	16	systole	6	A	1196.9977780158051	coherent
385.3401	0.0874963115202263	16	systole	7	A	1196.9977780158051	coherent
385.515	0.0874963115202263	16	systole	8	B	500.0	coherent
385.6901	0.0874963115202263	16	systole	9	A	1196.9977780158051	coherent
385.9957	0.0874963115202263	16	systole	10	A	1196.9977780158051	coherent
386.1693	0.0874963115202263	16	systole	11	B	500.0	coherent
386.3432	0.0874963115202263	16	systole	12	A	1196.9977780158051	coherent
386.6557	0.0874963115202263	16	systole	13	A	1196.9977780158051	coherent
386.8293	0.0874963115202263	16	systole	14	B	500.0	coherent
387.0032	0.0874963115202263	16	systole	15	A	1196.9977780158051	coherent
387.3158	0.0874963115202263	16	systole	16	A	1196.9977780158051	coherent
387.4894	0.0874963115202263	16	systole	17	B	500.0	coherent
387.6633	0.0874963115202263	16	systole	18	A	1196.9977780158051	coherent
387.9811	0.0874963115202263	16	systole	19	A	1196.9977780158051	coherent
388.1535	0.0874963115202263	16	systole	20	B	500.0	coherent
388.3262	0.0874963115202263	16	systole	21	A	1196.9977780158051	coherent
388.6511	0.0874963115202263	16	systole	22	A	1196.9977780158051	coherent
388.8235	0.0874963115202263	16	systole	23	B	500.0	coherent
388.9961	0.0874963115202263	16	systole	24	A	1196.9977780158051	coherent
389.3211	0.0874963115202263	16	systole	25	A	1196.9977780158051	coherent
389.4935	0.0874963115202263	16	systole	26	B	500.0	coherent
389.6661	0.0874963115202263	16	systole	27	A	1196.9977780158051	coherent
390.0065	0.0874963115202263	16	systole	28	A	1196.9977780158051	coherent
390.1777	0.0874963115202263	16	systole	29	B	500.0	coherent
390.349	0.0874963115202263	16	systole	30	A	1196.9977780158051	coherent
390.7165	0.0874963115202263	16	systole	31	A	1196.9977780158051	coherent
390.8877	0.0874963115202263	16	systole	32	B	500.0	coherent
391.059	0.0874963115202263	16	systole	33	A	1196.9977780158051	coherent
391.4266	0.0874963115202263	16	systole	34	A	1196.9977780158051	coherent
391.5977	0.0874963115202263	16	systole	35	B	500.0	coherent
391.769	0.0874963115202263	16	systole	36	A	1196.9977780158051	coherent
392.1265	0.0874963115202263	16	systole	37	A	1196.9977780158051	coherent
392.2976	0.0874963115202263	16	systole	38	B	500.0	coherent
392.469	0.0874963115202263	16	systole	39	A	1196.9977780158051	coherent
392.8366	0.0874963115202263	16	systole	40	A	1196.9977780158051	coherent
393.0077	0.0874963115202263	16	systole	41	B	500.0	coherent
393.1791	0.0874963115202263	16	systole	42	A	1196.9977780158051	coherent
393.5457	0.0874963115202263	16	systole	43	A	1196.9977780158051	coherent
393.7193	0.0874963115202263	16	systole	44	B	500.0	coherent
393.8932	0.0874963115202263	16	systole	45	A	1196.9977780158051	coherent
410.0232	0.0825043182703666	17	systole	1	A	2682.7996005075997	coherent
410.1884	0.0825043182703666	17	systole	2	B	500.0	coherent
410.3532	0.0825043182703666	17	systole	3	A	2682.7996005075997	coherent
410.7232	0.0825043182703666	17	systole	4	A	2682.7996005075997	coherent
410.8884	0.0825043182703666	17	systole	5	B	500.0	coherent
411.0532	0.0825043182703666	17	systole	6	A	2682.7996005075997	coherent
411.3978	0.0825043182703666	17	systole	7	A	2682.7996005075997	coherent
411.5642	0.0825043182703666	17	systole	8	B	500.0	coherent
411.7303	0.0825043182703666	17	systole	9	A	2682.7996005075997	coherent
412.0677	0.0825043182703666	17	systole	10	A	2682.7996005075997	coherent
412.2342	0.0825043182703666	17	systole	11	B	500.0	coherent
412.4003	0.0825043182703666	17	systole	12	A	2682.7996005075997	coherent
412.6923	0.0825043182703666	17	systole	13	A	2682.7996005075997	coherent
412.86	0.0825043182703666	17	systole	14	B	500.0	coherent
413.0273	0.0825043182703666	17	systole	15	A	2682.7996005075997	coherent
413.3078	0.0825043182703666	17	systole	16	A	2682.7996005075997	coherent
413.4743	0.0825043182703666	17	systole	17	B	500.0	coherent
413.6403	0.0825043182703666	17	systole	18	A	2682.7996005075997	coherent
413.9278	0.0825043182703666	17	systole	19	A	2682.7996005075997	coherent
414.0943	0.0825043182703666	17	systole	20	B	500.0	coherent
414.2603	0.0825043182703666	17	systole	21	A	2682.7996005075997	coherent
414.5587	0.0825043182703666	17	systole	22	A	2682.7996005075997	coherent
414.7226	0.0825043182703666	17	systole	23	B	500.0	coherent
414.8862	0.0825043182703666	17	systole	24	A	2682.7996005075997	coherent
415.1987	0.0825043182703666	17	systole	25	A	2682.7996005075997	coherent
415.3627	0.0825043182703666	17	systole	26	B	500.0	coherent
415.5262	0.0825043182703666	17	systole	27	A	2682.7996005075997	coherent
415.8587	0.0825043182703666	17	systole	28	A	2682.7996005075997	coherent
416.0227	0.0825043182703666	17	systole	29	B	500.0	coherent
416.1862	0.0825043182703666	17	systole	30	A	2682.7996005075997	coherent
416.5478	0.0825043182703666	17	systole	31	A	2682.7996005075997	coherent
416.7143	0.0825043182703666	17	systole	32	B	500.0	coherent
416.8803	0.0825043182703666	17	systole	33	A	2682.7996005075997	coherent
417.2478	0.0825043182703666	17	systole	34	A	2682.7996005075997	coherent
417.4143	0.0825043182703666	17	systole	35	B	500.0	coherent
417.5803	0.0825043182703666	17	systole	36	A	2682.7996005075997	coherent
417.9478	0.0825043182703666	17	systole	37	A	2682.7996005075997	coherent
418.1143	0.0825043182703666	17	systole	38	B	500.0	coherent
418.2803	0.0825043182703666	17	systole	39	A	2682.7996005075997	coherent
418.6478	0.0825043182703666	17	systole	40	A	2682.7996005075997	coherent
418.8142	0.0825043182703666	17	systole	41	B	500.0	coherent
418.9803	0.0825043182703666	17	systole	42	A	2682.7996005075997	coherent
419.3478	0.0825043182703666	17	systole	43	A	2682.7996005075997	coherent
419.5142	0.0825043182703666	17	systole	44	B	500.0	coherent
419.6803	0.0825043182703666	17	systole	45	A	2682.7996005075997	coherent
420.0324	0.0825043182703666	17	systole	46	A	2682.7996005075997	coherent
420.2001	0.0825043182703666	17	systole	47	B	500.0	coherent
420.3673	0.0825043182703666	17	systole	48	A	2682.7996005075997	coherent
423.8185	0.0856264276080764	18	diastole	1	A	3010.640720484466	coherent
423.9901	0.0856264276080764	18	diastole	2	B	500.0	coherent
424.161	0.0856264276080764	18	diastole	3	A	3010.640720484466	coherent
424.5085	0.0856264276080764	18	diastole	4	A	3010.640720484466	coherent
424.68	0.0856264276080764	18	diastole	5	B	500.0	coherent
424.851	0.0856264276080764	18	diastole	6	A	3010.640720484466	coherent
425.1984	0.0856264276080764	18	diastole	7	A	3010.640720484466	coherent
425.37	0.0856264276080764	18	diastole	8	B	500.0	coherent
425.5409	0.0856264276080764	18	diastole	9	A	3010.640720484466	coherent
425.8715	0.0856264276080764	18	diastole	10	A	3010.640720484466	coherent
426.0418	0.0856264276080764	18	diastole	11	B	500.0	coherent
426.2116	0.0856264276080764	18	diastole	12	A	3010.640720484466	coherent
426.5314	0.0856264276080764	18	diastole	13	A	3010.640720484466	coherent
426.7018	0.0856264276080764	18	diastole	14	B	500.0	coherent
426.8715	0.0856264276080764	18	diastole	15	A	3010.640720484466	coherent
427.2385	0.0856264276080764	18	diastole	16	A	3010.640720484466	coherent
427.41	0.0856264276080764	18	diastole	17	B	500.0	coherent
427.581	0.0856264276080764	18	diastole	18	A	3010.640720484466	coherent
427.9355	0.0856264276080764	18	diastole	19	A	3010.640720484466	coherent
428.1083	0.0856264276080764	18	diastole	20	B	500.0	coherent
428.2805	0.0856264276080764	18	diastole	21	A	3010.640720484466	coherent
428.6256	0.0856264276080764	18	diastole	22	A	3010.640720484466	coherent
428.7984	0.0856264276080764	18	diastole	23	B	500.0	coherent
428.9706	0.0856264276080764	18	diastole	24	A	3010.640720484466	coherent
429.3156	0.0856264276080764	18	diastole	25	A	3010.640720484466	coherent
429.4884	0.0856264276080764	18	diastole	26	B	500.0	coherent
429.6606	0.0856264276080764	18	diastole	27	A	3010.640720484466	coherent
429.9753	0.0856264276080764	18	diastole	28	A	3010.640720484466	coherent
430.1481	0.0856264276080764	18	diastole	29	B	500.0	coherent
430.3203	0.0856264276080764	18	diastole	30	A	3010.640720484466	coherent
430.635	0.0856264276080764	18	diastole	31	A	3010.640720484466	coherent
430.8078	0.0856264276080764	18	diastole	32	B	500.0	coherent
430.98	0.0856264276080764	18	diastole	33	A	3010.640720484466	coherent
431.3009	0.0856264276080764	18	diastole	34	A	3010.640720484466	coherent
431.4712	0.0856264276080764	18	diastole	35	B	500.0	coherent
431.6409	0.0856264276080764	18	diastole	36	A	3010.640720484466	coherent
431.9809	0.0856264276080764	18	diastole	37	A	3010.640720484466	coherent
432.1512	0.0856264276080764	18	diastole	38	B	500.0	coherent
432.3209	0.0856264276080764	18	diastole	39	A	3010.640720484466	coherent
432.6609	0.0856264276080764	18	diastole	40	A	3010.640720484466	coherent
432.8312	0.0856264276080764	18	diastole	41	B	500.0	coherent
433.0009	0.0856264276080764	18	diastole	42	A	3010.640720484466	coherent
449.4201	0.0875036265351809	19	systole	1	A	1116.994218377779	coherent
449.5949	0.0875036265351809	19	systole	2	B	500.0	coherent
449.7701	0.0875036265351809	19	systole	3	A	1116.994218377779	coherent
450.0801	0.0875036265351809	19	systole	4	A	1116.994218377779	coherent
450.2549	0.0875036265351809	19	systole	5	B	500.0	coherent
450.4301	0.0875036265351809	19	systole	6	A	1116.994218377779	coherent
450.7037	0.0875036265351809	19	systole	7	A	1116.994218377779	coherent
450.8735	0.0875036265351809	19	systole	8	B	500.0	coherent
451.0437	0.0875036265351809	19	systole	9	A	1116.994218377779	coherent
451.3084	0.0875036265351809	19	systole	10	A	1116.994218377779	coherent
451.4744	0.0875036265351809	19	systole	11	B	500.0	coherent
451.6409	0.0875036265351809	19	systole	12	A	1116.994218377779	coherent
451.9134	0.0875036265351809	19	systole	13	A	1116.994218377779	coherent
452.0782	0.0875036265351809	19	systole	14	B	500.0	coherent
452.2434	0.0875036265351809	19	systole	15	A	1116.994218377779	coherent
452.5338	0.0875036265351809	19	systole	16	A	1116.994218377779	coherent
452.6985	0.0875036265351809	19	systole	17	B	500.0	coherent
452.8638	0.0875036265351809	19	systole	18	A	1116.994218377779	coherent
453.1541	0.0875036265351809	19	systole	19	A	1116.994218377779	coherent
453.3189	0.0875036265351809	19	systole	20	B	500.0	coherent
453.4841	0.0875036265351809	19	systole	21	A	1116.994218377779	coherent
453.8098	0.0875036265351809	19	systole	22	A	1116.994218377779	coherent
453.9733	0.0875036265351809	19	systole	23	B	500.0	coherent
454.1372	0.0875036265351809	19	systole	24	A	1116.994218377779	coherent
454.4994	0.0875036265351809	19	systole	25	A	1116.994218377779	coherent
454.6628	0.0875036265351809	19	systole	26	B	500.0	coherent
454.8268	0.0875036265351809	19	systole	27	A	1116.994218377779	coherent
455.1889	0.0875036265351809	19	systole	28	A	1116.994218377779	coherent
455.3524	0.0875036265351809	19	systole	29	B	500.0	coherent
455.5163	0.0875036265351809	19	systole	30	A	1116.994218377779	coherent
455.8207	0.0875036265351809	19	systole	31	A	1116.994218377779	coherent
455.9819	0.0875036265351809	19	systole	32	B	500.0	coherent
456.1436	0.0875036265351809	19	systole	33	A	1116.994218377779	coherent
456.4607	0.0875036265351809	19	systole	34	A	1116.994218377779	coherent
456.622	0.0875036265351809	19	systole	35	B	500.0	coherent
456.7836	0.0875036265351809	19	systole	36	A	1116.994218377779	coherent
457.1291	0.0875036265351809	19	systole	37	A	1116.994218377779	coherent
457.2926	0.0875036265351809	19	systole	38	B	500.0	coherent
457.4565	0.0875036265351809	19	systole	39	A	1116.994218377779	coherent
457.7938	0.0875036265351809	19	systole	40	A	1116.994218377779	coherent
457.9585	0.0875036265351809	19	systole	41	B	500.0	coherent
458.1238	0.0875036265351809	19	systole	42	A	1116.994218377779	coherent
458.4738	0.0875036265351809	19	systole	43	A	1116.994218377779	coherent
458.6386	0.0875036265351809	19	systole	44	B	500.0	coherent
458.8039	0.0875036265351809	19	systole	45	A	1116.994218377779	coherent
459.1538	0.0875036265351809	19	systole	46	A	1116.994218377779	coherent
459.3186	0.0875036265351809	19	systole	47	B	500.0	coherent
459.4839	0.0875036265351809	19	systole	48	A	1116.994218377779	coherent
464.6908	0.0862514793407172	20	systole	1	A	4353.967332736322	streaming
464.8634	0.0862514793407172	20	systole	2	B	500.0	streaming
465.0358	0.0862514793407172	20	systole	3	A	4353.967332736322	streaming
465.3508	0.0862514793407172	20	systole	4	A	4353.967332736322	streaming
465.5234	0.0862514793407172	20	systole	5	B	500.0	streaming
465.6958	0.0862514793407172	20	systole	6	A	4353.967332736322	streaming
466.0108	0.0862514793407172	20	systole	7	A	4353.967332736322	streaming
466.1834	0.0862514793407172	20	systole	8	B	500.0	streaming
466.3558	0.0862514793407172	20	systole	9	A	4353.967332736322	streaming
466.6806	0.0862514793407172	20	systole	10	A	4353.967332736322	streaming
466.8532	0.0862514793407172	20	systole	11	B	500.0	streaming
467.0256	0.0862514793407172	20	systole	12	A	4353.967332736322	streaming
467.356	0.0862514793407172	20	systole	13	A	4353.967332736322	streaming
467.5273	0.0862514793407172	20	systole	14	B	500.0	streaming
467.6984	0.0862514793407172	20	systole	15	A	4353.967332736322	streaming
468.0214	0.0862514793407172	20	systole	16	A	4353.967332736322	streaming
468.1915	0.0862514793407172	20	systole	17	B	500.0	streaming
468.3614	0.0862514793407172	20	systole	18	A	4353.967332736322	streaming
468.6914	0.0862514793407172	20	systole	19	A	4353.967332736322	streaming
468.8615	0.0862514793407172	20	systole	20	B	500.0	streaming
469.0314	0.0862514793407172	20	systole	21	A	4353.967332736322	streaming
469.3714	0.0862514793407172	20	systole	22	A	4353.967332736322	streaming
469.5415	0.0862514793407172	20	systole	23	B	500.0	streaming
469.7114	0.0862514793407172	20	systole	24	A	4353.967332736322	streaming
470.0615	0.0862514793407172	20	systole	25	A	4353.967332736322	streaming
470.2316	0.0862514793407172	20	systole	26	B	500.0	streaming
470.4014	0.0862514793407172	20	systole	27	A	4353.967332736322	streaming
470.7415	0.0862514793407172	20	systole	28	A	4353.967332736322	streaming
470.9116	0.0862514793407172	20	systole	29	B	500.0	streaming
471.0815	0.0862514793407172	20	systole	30	A	4353.967332736322	streaming
471.4314	0.0862514793407172	20	systole	31	A	4353.967332736322	streaming
471.6016	0.0862514793407172	20	systole	32	B	500.0	streaming
471.7714	0.0862514793407172	20	systole	33	A	4353.967332736322	streaming
472.1015	0.0862514793407172	20	systole	34	A	4353.967332736322	streaming
472.2716	0.0862514793407172	20	systole	35	B	500.0	streaming
472.4415	0.0862514793407172	20	systole	36	A	4353.967332736322	streaming
472.7814	0.0862514793407172	20	systole	37	A	4353.967332736322	streaming
472.9516	0.0862514793407172	20	systole	38	B	500.0	streaming
473.1215	0.0862514793407172	20	systole	39	A	4353.967332736322	streaming
473.4715	0.0862514793407172	20	systole	40	A	4353.967332736322	streaming
473.6416	0.0862514793407172	20	systole	41	B	500.0	streaming
473.8115	0.0862514793407172	20	systole	42	A	4353.967332736322	streaming
474.1615	0.0862514793407172	20	systole	43	A	4353.967332736322	streaming
474.3317	0.0862514793407172	20	systole	44	B	500.0	streaming
474.5016	0.0862514793407172	20	systole	45	A	4353.967332736322	streaming
480.2815	0.0856283687171526	21	systole	1	A	4254.720409722799	streaming
480.4516	0.0856283687171526	21	systole	2	B	500.0	streaming
480.6215	0.0856283687171526	21	systole	3	A	4254.720409722799	streaming
480.9015	0.0856283687171526	21	systole	4	A	4254.720409722799	streaming
481.0716	0.0856283687171526	21	systole	5	B	500.0	streaming
481.2415	0.0856283687171526	21	systole	6	A	4254.720409722799	streaming
481.5277	0.0856283687171526	21	systole	7	A	4254.720409722799	streaming
481.694	0.0856283687171526	21	systole	8	B	500.0	streaming
481.8602	0.0856283687171526	21	systole	9	A	4254.720409722799	streaming
482.1677	0.0856283687171526	21	systole	10	A	4254.720409722799	streaming
482.3341	0.0856283687171526	21	systole	11	B	500.0	streaming
482.5002	0.0856283687171526	21	systole	12	A	4254.720409722799	streaming
482.7939	0.0856283687171526	21	systole	13	A	4254.720409722799	streaming
482.9565	0.0856283687171526	21	systole	14	B	500.0	streaming
483.1189	0.0856283687171526	21	systole	15	A	4254.720409722799	streaming
483.4785	0.0856283687171526	21	systole	16	A	4254.720409722799	streaming
483.6424	0.0856283687171526	21	systole	17	B	500.0	streaming
483.806	0.0856283687171526	21	systole	18	A	4254.720409722799	streaming
484.1239	0.0856283687171526	21	systole	19	A	4254.720409722799	streaming
484.2865	0.0856283687171526	21	systole	20	B	500.0	streaming
484.4489	0.0856283687171526	21	systole	21	A	4254.720409722799	streaming
484.7839	0.0856283687171526	21	systole	22	A	4254.720409722799	streaming
484.9465	0.0856283687171526	21	systole	23	B	500.0	streaming
485.1089	0.0856283687171526	21	systole	24	A	4254.720409722799	streaming
485.4439	0.0856283687171526	21	systole	25	A	4254.720409722799	streaming
485.6065	0.0856283687171526	21	systole	26	B	500.0	streaming
485.7689	0.0856283687171526	21	systole	27	A	4254.720409722799	streaming
486.1239	0.0856283687171526	21	systole	28	A	4254.720409722799	streaming
486.2865	0.0856283687171526	21	systole	29	B	500.0	streaming
486.4489	0.0856283687171526	21	systole	30	A	4254.720409722799	streaming
486.8031	0.0856283687171526	21	systole	31	A	4254.720409722799	streaming
486.9682	0.0856283687171526	21	systole	32	B	500.0	streaming
487.1331	0.0856283687171526	21	systole	33	A	4254.720409722799	streaming
487.4731	0.0856283687171526	21	systole	34	A	4254.720409722799	streaming
487.6382	0.0856283687171526	21	systole	35	B	500.0	streaming
487.8031	0.0856283687171526	21	systole	36	A	4254.720409722799	streaming
488.1577	0.0856283687171526	21	systole	37	A	4254.720409722799	streaming
488.3241	0.0856283687171526	21	systole	38	B	500.0	streaming
488.4902	0.0856283687171526	21	systole	39	A	4254.720409722799	streaming
488.8323	0.0856283687171526	21	systole	40	A	4254.720409722799	streaming
488.9999	0.0856283687171526	21	systole	41	B	500.0	streaming
489.1673	0.0856283687171526	21	systole	42	A	4254.720409722799	streaming
489.5023	0.0856283687171526	21	systole	43	A	4254.720409722799	streaming
489.6699	0.0856283687171526	21	systole	44	B	500.0	streaming
489.8373	0.0856283687171526	21	systole	45	A	4254.720409722799	streaming
493.9344	0.0837509061675518	22	diastole	1	A	4665.815755436727	streaming
494.1033	0.0837509061675518	22	diastole	2	B	500.0	streaming
494.2719	0.0837509061675518	22	diastole	3	A	4665.815755436727	streaming
494.6344	0.0837509061675518	22	diastole	4	A	4665.815755436727	streaming
494.8033	0.0837509061675518	22	diastole	5	B	500.0	streaming
494.9719	0.0837509061675518	22	diastole	6	A	4665.815755436727	streaming
495.3244	0.0837509061675518	22	diastole	7	A	4665.815755436727	streaming
495.4933	0.0837509061675518	22	diastole	8	B	500.0	streaming
495.6619	0.0837509061675518	22	diastole	9	A	4665.815755436727	streaming
496.0315	0.0837509061675518	22	diastole	10	A	4665.815755436727	streaming
496.2017	0.0837509061675518	22	diastole	11	B	500.0	streaming
496.3715	0.0837509061675518	22	diastole	12	A	4665.815755436727	streaming
496.7285	0.0837509061675518	22	diastole	13	A	4665.815755436727	streaming
496.8999	0.0837509061675518	22	diastole	14	B	500.0	streaming
497.071	0.0837509061675518	22	diastole	15	A	4665.815755436727	streaming
497.4255	0.0837509061675518	22	diastole	16	A	4665.815755436727	streaming
497.5982	0.0837509061675518	22	diastole	17	B	500.0	streaming
497.7705	0.0837509061675518	22	diastole	18	A	4665.815755436727	streaming
498.1155	0.0837509061675518	22	diastole	19	A	4665.815755436727	streaming
498.2882	0.0837509061675518	22	diastole	20	B	500.0	streaming
498.4605	0.0837509061675518	22	diastole	21	A	4665.815755436727	streaming
498.8056	0.0837509061675518	22	diastole	22	A	4665.815755436727	streaming
498.9782	0.0837509061675518	22	diastole	23	B	500.0	streaming
499.1506	0.0837509061675518	22	diastole	24	A	4665.815755436727	streaming
499.4556	0.0837509061675518	22	diastole	25	A	4665.815755436727	streaming
499.6283	0.0837509061675518	22	diastole	26	B	500.0	streaming
499.8006	0.0837509061675518	22	diastole	27	A	4665.815755436727	streaming
500.1356	0.0837509061675518	22	diastole	28	A	4665.815755436727	streaming
500.3083	0.0837509061675518	22	diastole	29	B	500.0	streaming
500.4806	0.0837509061675518	22	diastole	30	A	4665.815755436727	streaming
500.8083	0.0837509061675518	22	diastole	31	A	4665.815755436727	streaming
500.9798	0.0837509061675518	22	diastole	32	B	500.0	streaming
501.1508	0.0837509061675518	22	diastole	33	A	4665.815755436727	streaming
501.4882	0.0837509061675518	22	diastole	34	A	4665.815755436727	streaming
501.6596	0.0837509061675518	22	diastole	35	B	500.0	streaming
501.8307	0.0837509061675518	22	diastole	36	A	4665.815755436727	streaming
502.1611	0.0837509061675518	22	diastole	37	A	4665.815755436727	streaming
502.3313	0.0837509061675518	22	diastole	38	B	500.0	streaming
502.5011	0.0837509061675518	22	diastole	39	A	4665.815755436727	streaming
510.1105	0.0843712435453198	23	diastole	1	A	1312.6529017338555	coherent
510.2767	0.0843712435453198	23	diastole	2	B	500.0	coherent
510.443	0.0843712435453198	23	diastole	3	A	1312.6529017338555	coherent
510.7505	0.0843712435453198	23	diastole	4	A	1312.6529017338555	coherent
510.9168	0.0843712435453198	23	diastole	5	B	500.0	coherent
511.083	0.0843712435453198	23	diastole	6	A	1312.6529017338555	coherent
511.3663	0.0843712435453198	23	diastole	7	A	1312.6529017338555	coherent
511.5301	0.0843712435453198	23	diastole	8	B	500.0	coherent
511.6939	0.0843712435453198	23	diastole	9	A	1312.6529017338555	coherent
511.9691	0.0843712435453198	23	diastole	10	A	1312.6529017338555	coherent
512.1316	0.0843712435453198	23	diastole	11	B	500.0	coherent
512.2941	0.0843712435453198	23	diastole	12	A	1312.6529017338555	coherent
512.565	0.0843712435453198	23	diastole	13	A	1312.6529017338555	coherent
512.725	0.0843712435453198	23	diastole	14	B	500.0	coherent
512.885	0.0843712435453198	23	diastole	15	A	1312.6529017338555	coherent
513.175	0.0843712435453198	23	diastole	16	A	1312.6529017338555	coherent
513.335	0.0843712435453198	23	diastole	17	B	500.0	coherent
513.495	0.0843712435453198	23	diastole	18	A	1312.6529017338555	coherent
513.7851	0.0843712435453198	23	diastole	19	A	1312.6529017338555	coherent
513.945	0.0843712435453198	23	diastole	20	B	500.0	coherent
514.1051	0.0843712435453198	23	diastole	21	A	1312.6529017338555	coherent
514.3667	0.0843712435453198	23	diastole	22	A	1312.6529017338555	coherent
514.5217	0.0843712435453198	23	diastole	23	B	500.0	coherent
514.6767	0.0843712435453198	23	diastole	24	A	1312.6529017338555	coherent
515.0167	0.0843712435453198	23	diastole	25	A	1312.6529017338555	coherent
515.1717	0.0843712435453198	23	diastole	26	B	500.0	coherent
515.3267	0.0843712435453198	23	diastole	27	A	1312.6529017338555	coherent
515.6667	0.0843712435453198	23	diastole	28	A	1312.6529017338555	coherent
515.8217	0.0843712435453198	23	diastole	29	B	500.0	coherent
515.9767	0.0843712435453198	23	diastole	30	A	1312.6529017338555	coherent
516.2968	0.0843712435453198	23	diastole	31	A	1312.6529017338555	coherent
516.4517	0.0843712435453198	23	diastole	32	B	500.0	coherent
516.6067	0.0843712435453198	23	diastole	33	A	1312.6529017338555	coherent
516.9268	0.0843712435453198	23	diastole	34	A	1312.6529017338555	coherent
517.0818	0.0843712435453198	23	diastole	35	B	500.0	coherent
517.2368	0.0843712435453198	23	diastole	36	A	1312.6529017338555	coherent
517.5568	0.0843712435453198	23	diastole	37	A	1312.6529017338555	coherent
517.7118	0.0843712435453198	23	diastole	38	B	500.0	coherent
517.8668	0.0843712435453198	23	diastole	39	A	1312.6529017338555	coherent
518.2069	0.0843712435453198	23	diastole	40	A	1312.6529017338555	coherent
518.3619	0.0843712435453198	23	diastole	41	B	500.0	coherent
518.5169	0.0843712435453198	23	diastole	42	A	1312.6529017338555	coherent
518.8852	0.0843712435453198	23	diastole	43	A	1312.6529017338555	coherent
519.0452	0.0843712435453198	23	diastole	44	B	500.0	coherent
519.2052	0.0843712435453198	23	diastole	45	A	1312.6529017338555	coherent
522.9661	0.0812503568595275	24	diastole	1	A	4353.967332736322	streaming
523.1299	0.0812503568595275	24	diastole	2	B	500.0	streaming
523.2936	0.0812503568595275	24	diastole	3	A	4353.967332736322	streaming
523.6661	0.0812503568595275	24	diastole	4	A	4353.967332736322	streaming
523.8299	0.0812503568595275	24	diastole	5	B	500.0	streaming
523.9936	0.0812503568595275	24	diastole	6	A	4353.967332736322	streaming
524.3903	0.0812503568595275	24	diastole	7	A	4353.967332736322	streaming
524.5567	0.0812503568595275	24	diastole	8	B	500.0	streaming
524.7228	0.0812503568595275	24	diastole	9	A	4353.967332736322	streaming
525.0674	0.0812503568595275	24	diastole	10	A	4353.967332736322	streaming
525.2351	0.0812503568595275	24	diastole	11	B	500.0	streaming
525.4025	0.0812503568595275	24	diastole	12	A	4353.967332736322	streaming
525.7375	0.0812503568595275	24	diastole	13	A	4353.967332736322	streaming
525.9051	0.0812503568595275	24	diastole	14	B	500.0	streaming
526.0725	0.0812503568595275	24	diastole	15	A	4353.967332736322	streaming
526.3904	0.0812503568595275	24	diastole	16	A	4353.967332736322	streaming
526.5567	0.0812503568595275	24	diastole	17	B	500.0	streaming
526.7229	0.0812503568595275	24	diastole	18	A	4353.967332736322	streaming
527.0774	0.0812503568595275	24	diastole	19	A	4353.967332736322	streaming
527.2451	0.0812503568595275	24	diastole	20	B	500.0	streaming
527.4125	0.0812503568595275	24	diastole	21	A	4353.967332736322	streaming
527.7915	0.0812503568595275	24	diastole	22	A	4353.967332736322	streaming
527.9616	0.0812503568595275	24	diastole	23	B	500.0	streaming
528.1315	0.0812503568595275	24	diastole	24	A	4353.967332736322	streaming
528.4516	0.0812503568595275	24	diastole	25	A	4353.967332736322	streaming
528.6217	0.0812503568595275	24	diastole	26	B	500.0	streaming
528.7916	0.0812503568595275	24	diastole	27	A	4353.967332736322	streaming
529.1116	0.0812503568595275	24	diastole	28	A	4353.967332736322	streaming
529.2817	0.0812503568595275	24	diastole	29	B	500.0	streaming
529.4516	0.0812503568595275	24	diastole	30	A	4353.967332736322	streaming
529.7716	0.0812503568595275	24	diastole	31	A	4353.967332736322	streaming
529.9418	0.0812503568595275	24	diastole	32	B	500.0	streaming
530.1116	0.0812503568595275	24	diastole	33	A	4353.967332736322	streaming
530.4317	0.0812503568595275	24	diastole	34	A	4353.967332736322	streaming
530.6018	0.0812503568595275	24	diastole	35	B	500.0	streaming
530.7717	0.0812503568595275	24	diastole	36	A	4353.967332736322	streaming
531.1372	0.0812503568595275	24	diastole	37	A	4353.967332736322	streaming
531.3085	0.0812503568595275	24	diastole	38	B	500.0	streaming
531.4797	0.0812503568595275	24	diastole	39	A	4353.967332736322	streaming
531.8171	0.0812503568595275	24	diastole	40	A	4353.967332736322	streaming
531.9885	0.0812503568595275	24	diastole	41	B	500.0	streaming
532.1596	0.0812503568595275	24	diastole	42	A	4353.967332736322	streaming
532.4971	0.0812503568595275	24	diastole	43	A	4353.967332736322	streaming
532.6685	0.0812503568595275	24	diastole	44	B	500.0	streaming
532.8396	0.0812503568595275	24	diastole	45	A	4353.967332736322	streaming
538.4608	0.086875781416893	25	systole	1	A	1196.9977780158051	coherent
538.6332	0.086875781416893	25	systole	2	B	500.0	coherent
538.8058	0.086875781416893	25	systole	3	A	1196.9977780158051	coherent
539.1409	0.086875781416893	25	systole	4	A	1196.9977780158051	coherent
539.3132	0.086875781416893	25	systole	5	B	500.0	coherent
539.4859	0.086875781416893	25	systole	6	A	1196.9977780158051	coherent
539.8208	0.086875781416893	25	systole	7	A	1196.9977780158051	coherent
539.9932	0.086875781416893	25	systole	8	B	500.0	coherent
540.1658	0.086875781416893	25	systole	9	A	1196.9977780158051	coherent
540.4463	0.086875781416893	25	systole	10	A	1196.9977780158051	coherent
540.6174	0.086875781416893	25	systole	11	B	500.0	coherent
540.7888	0.086875781416893	25	systole	12	A	1196.9977780158051	coherent
541.0763	0.086875781416893	25	systole	13	A	1196.9977780158051	coherent
541.2474	0.086875781416893	25	systole	14	B	500.0	coherent
541.4188	0.086875781416893	25	systole	15	A	1196.9977780158051	coherent
541.6817	0.086875781416893	25	systole	16	A	1196.9977780158051	coherent
541.8516	0.086875781416893	25	systole	17	B	500.0	coherent
542.0217	0.086875781416893	25	systole	18	A	1196.9977780158051	coherent
542.3218	0.086875781416893	25	systole	19	A	1196.9977780158051	coherent
542.4916	0.086875781416893	25	systole	20	B	500.0	coherent
542.6617	0.086875781416893	25	systole	21	A	1196.9977780158051	coherent
542.9618	0.086875781416893	25	systole	22	A	1196.9977780158051	coherent
543.1316	0.086875781416893	25	systole	23	B	500.0	coherent
543.3018	0.086875781416893	25	systole	24	A	1196.9977780158051	coherent
543.6272	0.086875781416893	25	systole	25	A	1196.9977780158051	coherent
543.7958	0.086875781416893	25	systole	26	B	500.0	coherent
543.9647	0.086875781416893	25	systole	27	A	1196.9977780158051	coherent
544.3372	0.086875781416893	25	systole	28	A	1196.9977780158051	coherent
544.5058	0.086875781416893	25	systole	29	B	500.0	coherent
544.6747	0.086875781416893	25	systole	30	A	1196.9977780158051	coherent
545.0473	0.086875781416893	25	systole	31	A	1196.9977780158051	coherent
545.2159	0.086875781416893	25	systole	32	B	500.0	coherent
545.3848	0.086875781416893	25	systole	33	A	1196.9977780158051	coherent
545.7128	0.086875781416893	25	systole	34	A	1196.9977780158051	coherent
545.8802	0.086875781416893	25	systole	35	B	500.0	coherent
546.0478	0.086875781416893	25	systole	36	A	1196.9977780158051	coherent
546.4128	0.086875781416893	25	systole	37	A	1196.9977780158051	coherent
546.5802	0.086875781416893	25	systole	38	B	500.0	coherent
546.7478	0.086875781416893	25	systole	39	A	1196.9977780158051	coherent
547.1128	0.086875781416893	25	systole	40	A	1196.9977780158051	coherent
547.2802	0.086875781416893	25	systole	41	B	500.0	coherent
547.4478	0.086875781416893	25	systole	42	A	1196.9977780158051	coherent
547.8275	0.086875781416893	25	systole	43	A	1196.9977780158051	coherent
547.9961	0.086875781416893	25	systole	44	B	500.0	coherent
548.165	0.086875781416893	25	systole	45	A	1196.9977780158051	coherent
548.5509	0.086875781416893	25	systole	46	A	1196.9977780158051	coherent
548.7232	0.086875781416893	25	systole	47	B	500.0	coherent
548.8959	0.086875781416893	25	systole	48	A	1196.9977780158051	coherent
553.8332	0.0837502249632962	26	systole	1	A	3970.34830453257	streaming
553.9985	0.0837502249632962	26	systole	2	B	500.0	streaming
554.1632	0.0837502249632962	26	systole	3	A	3970.34830453257	streaming
554.4932	0.0837502249632962	26	systole	4	A	3970.34830453257	streaming
554.6585	0.0837502249632962	26	systole	5	B	500.0	streaming
554.8232	0.0837502249632962	26	systole	6	A	3970.34830453257	streaming
555.1186	0.0837502249632962	26	systole	7	A	3970.34830453257	streaming
555.2826	0.0837502249632962	26	systole	8	B	500.0	streaming
555.4462	0.0837502249632962	26	systole	9	A	3970.34830453257	streaming
555.6992	0.0837502249632962	26	systole	10	A	3970.34830453257	streaming
555.8607	0.0837502249632962	26	systole	11	B	500.0	streaming
556.0217	0.0837502249632962	26	systole	12	A	3970.34830453257	streaming
556.2892	0.0837502249632962	26	systole	13	A	3970.34830453257	streaming
556.4507	0.0837502249632962	26	systole	14	B	500.0	streaming
556.6117	0.0837502249632962	26	systole	15	A	3970.34830453257	streaming
556.8499	0.0837502249632962	26	systole	16	A	3970.34830453257	streaming
557.0088	0.0837502249632962	26	systole	17	B	500.0	streaming
557.1673	0.0837502249632962	26	systole	18	A	3970.34830453257	streaming
557.4199	0.0837502249632962	26	systole	19	A	3970.34830453257	streaming
557.5788	0.0837502249632962	26	systole	20	B	500.0	streaming
557.7373	0.0837502249632962	26	systole	21	A	3970.34830453257	streaming
557.9899	0.0837502249632962	26	systole	22	A	3970.34830453257	streaming
558.1488	0.0837502249632962	26	systole	23	B	500.0	streaming
558.3073	0.0837502249632962	26	systole	24	A	3970.34830453257	streaming
558.578	0.0837502249632962	26	systole	25	A	3970.34830453257	streaming
558.7332	0.0837502249632962	26	systole	26	B	500.0	streaming
558.8879	0.0837502249632962	26	systole	27	A	3970.34830453257	streaming
559.1552	0.0837502249632962	26	systole	28	A	3970.34830453257	streaming
559.3069	0.0837502249632962	26	systole	29	B	500.0	streaming
559.4581	0.0837502249632962	26	systole	30	A	3970.34830453257	streaming
559.7482	0.0837502249632962	26	systole	31	A	3970.34830453257	streaming
559.8985	0.0837502249632962	26	systole	32	B	500.0	streaming
560.0482	0.0837502249632962	26	systole	33	A	3970.34830453257	streaming
560.4498	0.0837502249632962	26	systole	34	A	3970.34830453257	streaming
560.6001	0.0837502249632962	26	systole	35	B	500.0	streaming
560.7498	0.0837502249632962	26	systole	36	A	3970.34830453257	streaming
561.1514	0.0837502249632962	26	systole	37	A	3970.34830453257	streaming
561.3017	0.0837502249632962	26	systole	38	B	500.0	streaming
561.4514	0.0837502249632962	26	systole	39	A	3970.34830453257	streaming
561.8697	0.0837502249632962	26	systole	40	A	3970.34830453257	streaming
562.02	0.0837502249632962	26	systole	41	B	500.0	streaming
562.1698	0.0837502249632962	26	systole	42	A	3970.34830453257	streaming
562.6588	0.0837502249632962	26	systole	43	A	3970.34830453257	streaming
562.8142	0.0837502249632962	26	systole	44	B	500.0	streaming
562.9692	0.0837502249632962	26	systole	45	A	3970.34830453257	streaming
566.8206	0.0943822098197415	27	systole	1	A	1312.6529017338555	streaming
567.0094	0.0943822098197415	27	systole	2	B	500.0	streaming
567.1982	0.0943822098197415	27	systole	3	A	1312.6529017338555	streaming
567.5003	0.0943822098197415	27	systole	4	A	1312.6529017338555	streaming
567.689	0.0943822098197415	27	systole	5	B	500.0	streaming
567.8778	0.0943822098197415	27	systole	6	A	1312.6529017338555	streaming
568.1799	0.0943822098197415	27	systole	7	A	1312.6529017338555	streaming
568.3687	0.0943822098197415	27	systole	8	B	500.0	streaming
568.5575	0.0943822098197415	27	systole	9	A	1312.6529017338555	streaming
568.8304	0.0943822098197415	27	systole	10	A	1312.6529017338555	streaming
569.0166	0.0943822098197415	27	systole	11	B	500.0	streaming
569.2029	0.0943822098197415	27	systole	12	A	1312.6529017338555	streaming
569.49	0.0943822098197415	27	systole	13	A	1312.6529017338555	streaming
569.6762	0.0943822098197415	27	systole	14	B	500.0	streaming
569.8625	0.0943822098197415	27	systole	15	A	1312.6529017338555	streaming
570.1496	0.0943822098197415	27	systole	16	A	1312.6529017338555	streaming
570.3358	0.0943822098197415	27	systole	17	B	500.0	streaming
570.5221	0.0943822098197415	27	systole	18	A	1312.6529017338555	streaming
570.7683	0.0943822098197415	27	systole	19	A	1312.6529017338555	streaming
570.9433	0.0943822098197415	27	systole	20	B	500.0	streaming
571.1184	0.0943822098197415	27	systole	21	A	1312.6529017338555	streaming
571.4416	0.0943822098197415	27	systole	22	A	1312.6529017338555	streaming
571.6115	0.0943822098197415	27	systole	23	B	500.0	streaming
571.7815	0.0943822098197415	27	systole	24	A	1312.6529017338555	streaming
572.1336	0.0943822098197415	27	systole	25	A	1312.6529017338555	streaming
572.3035	0.0943822098197415	27	systole	26	B	500.0	streaming
572.4735	0.0943822098197415	27	systole	27	A	1312.6529017338555	streaming
572.8537	0.0943822098197415	27	systole	28	A	1312.6529017338555	streaming
573.0235	0.0943822098197415	27	systole	29	B	500.0	streaming
573.1935	0.0943822098197415	27	systole	30	A	1312.6529017338555	streaming
573.5737	0.0943822098197415	27	systole	31	A	1312.6529017338555	streaming
573.7435	0.0943822098197415	27	systole	32	B	500.0	streaming
573.9135	0.0943822098197415	27	systole	33	A	1312.6529017338555	streaming
574.2937	0.0943822098197415	27	systole	34	A	1312.6529017338555	streaming
574.4636	0.0943822098197415	27	systole	35	B	500.0	streaming
574.6335	0.0943822098197415	27	systole	36	A	1312.6529017338555	streaming
575.0478	0.0943822098197415	27	systole	37	A	1312.6529017338555	streaming
575.2187	0.0943822098197415	27	systole	38	B	500.0	streaming
575.3897	0.0943822098197415	27	systole	39	A	1312.6529017338555	streaming
575.7635	0.0943822098197415	27	systole	40	A	1312.6529017338555	streaming
575.936	0.0943822098197415	27	systole	41	B	500.0	streaming
576.1085	0.0943822098197415	27	systole	42	A	1312.6529017338555	streaming
576.4836	0.0943822098197415	27	systole	43	A	1312.6529017338555	streaming
576.6589	0.0943822098197415	27	systole	44	B	500.0	streaming
576.8341	0.0943822098197415	27	systole	45	A	1312.6529017338555	streaming
579.989	0.0893760824110359	28	systole	1	A	827.6888587859444	coherent
580.1668	0.0893760824110359	28	systole	2	B	500.0	coherent
580.344	0.0893760824110359	28	systole	3	A	827.6888587859444	coherent
580.6559	0.0893760824110359	28	systole	4	A	827.6888587859444	coherent
580.8325	0.0893760824110359	28	systole	5	B	500.0	coherent
581.0084	0.0893760824110359	28	systole	6	A	827.6888587859444	coherent
581.3275	0.0893760824110359	28	systole	7	A	827.6888587859444	coherent
581.504	0.0893760824110359	28	systole	8	B	500.0	coherent
581.6799	0.0893760824110359	28	systole	9	A	827.6888587859444	coherent
581.9811	0.0893760824110359	28	systole	10	A	827.6888587859444	coherent
582.1564	0.0893760824110359	28	systole	11	B	500.0	coherent
582.331	0.0893760824110359	28	systole	12	A	827.6888587859444	coherent
582.6483	0.0893760824110359	28	systole	13	A	827.6888587859444	coherent
582.8224	0.0893760824110359	28	systole	14	B	500.0	coherent
582.9958	0.0893760824110359	28	systole	15	A	827.6888587859444	coherent
583.3423	0.0893760824110359	28	systole	16	A	827.6888587859444	coherent
583.5151	0.0893760824110359	28	systole	17	B	500.0	coherent
583.6874	0.0893760824110359	28	systole	18	A	827.6888587859444	coherent
584.0407	0.0893760824110359	28	systole	19	A	827.6888587859444	coherent
584.2135	0.0893760824110359	28	systole	20	B	500.0	coherent
584.3858	0.0893760824110359	28	systole	21	A	827.6888587859444	coherent
584.7159	0.0893760824110359	28	systole	22	A	827.6888587859444	coherent
584.8875	0.0893760824110359	28	systole	23	B	500.0	coherent
585.0584	0.0893760824110359	28	systole	24	A	827.6888587859444	coherent
585.4258	0.0893760824110359	28	systole	25	A	827.6888587859444	coherent
585.5973	0.0893760824110359	28	systole	26	B	500.0	coherent
585.7683	0.0893760824110359	28	systole	27	A	827.6888587859444	coherent
586.1356	0.0893760824110359	28	systole	28	A	827.6888587859444	coherent
586.3072	0.0893760824110359	28	systole	29	B	500.0	coherent
586.4781	0.0893760824110359	28	systole	30	A	827.6888587859444	coherent
586.8457	0.0893760824110359	28	systole	31	A	827.6888587859444	coherent
587.0172	0.0893760824110359	28	systole	32	B	500.0	coherent
587.1882	0.0893760824110359	28	systole	33	A	827.6888587859444	coherent
587.5156	0.0893760824110359	28	systole	34	A	827.6888587859444	coherent
587.6872	0.0893760824110359	28	systole	35	B	500.0	coherent
587.8581	0.0893760824110359	28	systole	36	A	827.6888587859444	coherent
588.2241	0.0893760824110359	28	systole	37	A	827.6888587859444	coherent
588.398	0.0893760824110359	28	systole	38	B	500.0	coherent
588.5712	0.0893760824110359	28	systole	39	A	827.6888587859444	coherent
588.9141	0.0893760824110359	28	systole	40	A	827.6888587859444	coherent
589.0879	0.0893760824110359	28	systole	41	B	500.0	coherent
589.2611	0.0893760824110359	28	systole	42	A	827.6888587859444	coherent
593.0305	0.0862683062441647	29	systole	1	A	4254.720409722799	streaming
593.2031	0.0862683062441647	29	systole	2	B	500.0	streaming
593.3755	0.0862683062441647	29	systole	3	A	4254.720409722799	streaming
593.7001	0.0862683062441647	29	systole	4	A	4254.720409722799	streaming
593.8727	0.0862683062441647	29	systole	5	B	500.0	streaming
594.0451	0.0862683062441647	29	systole	6	A	4254.720409722799	streaming
594.3155	0.0862683062441647	29	systole	7	A	4254.720409722799	streaming
594.4869	0.0862683062441647	29	systole	8	B	500.0	streaming
594.658	0.0862683062441647	29	systole	9	A	4254.720409722799	streaming
594.9555	0.0862683062441647	29	systole	10	A	4254.720409722799	streaming
595.1269	0.0862683062441647	29	systole	11	B	500.0	streaming
595.298	0.0862683062441647	29	systole	12	A	4254.720409722799	streaming
595.5958	0.0862683062441647	29	systole	13	A	4254.720409722799	streaming
595.7647	0.0862683062441647	29	systole	14	B	500.0	streaming
595.9332	0.0862683062441647	29	systole	15	A	4254.720409722799	streaming
596.2455	0.0862683062441647	29	systole	16	A	4254.720409722799	streaming
596.4143	0.0862683062441647	29	systole	17	B	500.0	streaming
596.5829	0.0862683062441647	29	systole	18	A	4254.720409722799	streaming
596.8528	0.0862683062441647	29	systole	19	A	4254.720409722799	streaming
597.0154	0.0862683062441647	29	systole	20	B	500.0	streaming
597.1778	0.0862683062441647	29	systole	21	A	4254.720409722799	streaming
597.4828	0.0862683062441647	29	systole	22	A	4254.720409722799	streaming
597.6454	0.0862683062441647	29	systole	23	B	500.0	streaming
597.8078	0.0862683062441647	29	systole	24	A	4254.720409722799	streaming
598.1181	0.0862683062441647	29	systole	25	A	4254.720409722799	streaming
598.2794	0.0862683062441647	29	systole	26	B	500.0	streaming
598.4405	0.0862683062441647	29	systole	27	A	4254.720409722799	streaming
598.798	0.0862683062441647	29	systole	28	A	4254.720409722799	streaming
598.9593	0.0862683062441647	29	systole	29	B	500.0	streaming
599.1204	0.0862683062441647	29	systole	30	A	4254.720409722799	streaming
599.508	0.0862683062441647	29	systole	31	A	4254.720409722799	streaming
599.6694	0.0862683062441647	29	systole	32	B	500.0	streaming
599.8305	0.0862683062441647	29	systole	33	A	4254.720409722799	streaming
600.228	0.0862683062441647	29	systole	34	A	4254.720409722799	streaming
600.3894	0.0862683062441647	29	systole	35	B	500.0	streaming
600.5505	0.0862683062441647	29	systole	36	A	4254.720409722799	streaming
600.8829	0.0862683062441647	29	systole	37	A	4254.720409722799	streaming
601.0455	0.0862683062441647	29	systole	38	B	500.0	streaming
601.208	0.0862683062441647	29	systole	39	A	4254.720409722799	streaming
601.4926	0.0862683062441647	29	systole	40	A	4254.720409722799	streaming
601.6551	0.0862683062441647	29	systole	41	B	500.0	streaming
601.8175	0.0862683062441647	29	systole	42	A	4254.720409722799	streaming
602.1026	0.0862683062441647	29	systole	43	A	4254.720409722799	streaming
602.2652	0.0862683062441647	29	systole	44	B	500.0	streaming
602.4275	0.0862683062441647	29	systole	45	A	4254.720409722799	streaming
602.6982	0.0862683062441647	29	systole	46	A	4254.720409722799	streaming
602.8596	0.0862683062441647	29	systole	47	B	500.0	streaming
603.0207	0.0862683062441647	29	systole	48	A	4254.720409722799	streaming
605.9791	0.0806232562172226	30	systole	1	A	886.9712202217811	coherent
606.1407	0.0806232562172226	30	systole	2	B	500.0	coherent
606.3016	0.0806232562172226	30	systole	3	A	886.9712202217811	coherent
606.6291	0.0806232562172226	30	systole	4	A	886.9712202217811	coherent
606.7906	0.0806232562172226	30	systole	5	B	500.0	coherent
606.9516	0.0806232562172226	30	systole	6	A	886.9712202217811	coherent
607.2991	0.0806232562172226	30	systole	7	A	886.9712202217811	coherent
607.4606	0.0806232562172226	30	systole	8	B	500.0	coherent
607.6216	0.0806232562172226	30	systole	9	A	886.9712202217811	coherent
607.9691	0.0806232562172226	30	systole	10	A	886.9712202217811	coherent
608.1306	0.0806232562172226	30	systole	11	B	500.0	coherent
608.2915	0.0806232562172226	30	systole	12	A	886.9712202217811	coherent
608.6774	0.0806232562172226	30	systole	13	A	886.9712202217811	coherent
608.844	0.0806232562172226	30	systole	14	B	500.0	coherent
609.0099	0.0806232562172226	30	systole	15	A	886.9712202217811	coherent
609.362	0.0806232562172226	30	systole	16	A	886.9712202217811	coherent
609.5298	0.0806232562172226	30	systole	17	B	500.0	coherent
609.697	0.0806232562172226	30	systole	18	A	886.9712202217811	coherent
610.022	0.0806232562172226	30	systole	19	A	886.9712202217811	coherent
610.1898	0.0806232562172226	30	systole	20	B	500.0	coherent
610.357	0.0806232562172226	30	systole	21	A	886.9712202217811	coherent
610.7221	0.0806232562172226	30	systole	22	A	886.9712202217811	coherent
610.8899	0.0806232562172226	30	systole	23	B	500.0	coherent
611.0571	0.0806232562172226	30	systole	24	A	886.9712202217811	coherent
611.4221	0.0806232562172226	30	systole	25	A	886.9712202217811	coherent
611.5899	0.0806232562172226	30	systole	26	B	500.0	coherent
611.7571	0.0806232562172226	30	systole	27	A	886.9712202217811	coherent
612.1166	0.0806232562172226	30	systole	28	A	886.9712202217811	coherent
612.2857	0.0806232562172226	30	systole	29	B	500.0	coherent
612.4541	0.0806232562172226	30	systole	30	A	886.9712202217811	coherent
612.8366	0.0806232562172226	30	systole	31	A	886.9712202217811	coherent
613.0057	0.0806232562172226	30	systole	32	B	500.0	coherent
613.1742	0.0806232562172226	30	systole	33	A	886.9712202217811	coherent
613.5803	0.0806232562172226	30	systole	34	A	886.9712202217811	coherent
613.7531	0.0806232562172226	30	systole	35	B	500.0	coherent
613.9253	0.0806232562172226	30	systole	36	A	886.9712202217811	coherent
614.3102	0.0806232562172226	30	systole	37	A	886.9712202217811	coherent
614.483	0.0806232562172226	30	systole	38	B	500.0	coherent
614.6552	0.0806232562172226	30	systole	39	A	886.9712202217811	coherent
615.0294	0.0806232562172226	30	systole	40	A	886.9712202217811	coherent
615.2047	0.0806232562172226	30	systole	41	B	500.0	coherent
615.3794	0.0806232562172226	30	systole	42	A	886.9712202217811	coherent
615.744	0.0806232562172226	30	systole	43	A	886.9712202217811	coherent
615.9206	0.0806232562172226	30	systole	44	B	500.0	coherent
616.0965	0.0806232562172226	30	systole	45	A	886.9712202217811	coherent
623.4432	0.0825030758278444	31	diastole	1	A	1473.0605584831292	streaming
623.6083	0.0825030758278444	31	diastole	2	B	500.0	streaming
623.7732	0.0825030758278444	31	diastole	3	A	1473.0605584831292	streaming
624.1956	0.0825030758278444	31	diastole	4	A	1473.0605584831292	streaming
624.3682	0.0825030758278444	31	diastole	5	B	500.0	streaming
624.5406	0.0825030758278444	31	diastole	6	A	1473.0605584831292	streaming
624.9056	0.0825030758278444	31	diastole	7	A	1473.0605584831292	streaming
625.0782	0.0825030758278444	31	diastole	8	B	500.0	streaming
625.2506	0.0825030758278444	31	diastole	9	A	1473.0605584831292	streaming
625.6268	0.0825030758278444	31	diastole	10	A	1473.0605584831292	streaming
625.8032	0.0825030758278444	31	diastole	11	B	500.0	streaming
625.9793	0.0825030758278444	31	diastole	12	A	1473.0605584831292	streaming
626.3168	0.0825030758278444	31	diastole	13	A	1473.0605584831292	streaming
626.4932	0.0825030758278444	31	diastole	14	B	500.0	streaming
626.6693	0.0825030758278444	31	diastole	15	A	1473.0605584831292	streaming
626.9668	0.0825030758278444	31	diastole	16	A	1473.0605584831292	streaming
627.1432	0.0825030758278444	31	diastole	17	B	500.0	streaming
627.3193	0.0825030758278444	31	diastole	18	A	1473.0605584831292	streaming
627.6168	0.0825030758278444	31	diastole	19	A	1473.0605584831292	streaming
627.7932	0.0825030758278444	31	diastole	20	B	500.0	streaming
627.9693	0.0825030758278444	31	diastole	21	A	1473.0605584831292	streaming
628.2569	0.0825030758278444	31	diastole	22	A	1473.0605584831292	streaming
628.4332	0.0825030758278444	31	diastole	23	B	500.0	streaming
628.6094	0.0825030758278444	31	diastole	24	A	1473.0605584831292	streaming
628.897	0.0825030758278444	31	diastole	25	A	1473.0605584831292	streaming
629.0733	0.0825030758278444	31	diastole	26	B	500.0	streaming
629.2494	0.0825030758278444	31	diastole	27	A	1473.0605584831292	streaming
629.4975	0.0825030758278444	31	diastole	28	A	1473.0605584831292	streaming
629.6651	0.0825030758278444	31	diastole	29	B	500.0	streaming
629.8325	0.0825030758278444	31	diastole	30	A	1473.0605584831292	streaming
630.1476	0.0825030758278444	31	diastole	31	A	1473.0605584831292	streaming
630.3152	0.0825030758278444	31	diastole	32	B	500.0	streaming
630.4826	0.0825030758278444	31	diastole	33	A	1473.0605584831292	streaming
630.8035	0.0825030758278444	31	diastole	34	A	1473.0605584831292	streaming
630.9686	0.0825030758278444	31	diastole	35	B	500.0	streaming
631.1335	0.0825030758278444	31	diastole	36	A	1473.0605584831292	streaming
631.4735	0.0825030758278444	31	diastole	37	A	1473.0605584831292	streaming
631.6386	0.0825030758278444	31	diastole	38	B	500.0	streaming
631.8035	0.0825030758278444	31	diastole	39	A	1473.0605584831292	streaming
632.1534	0.0825030758278444	31	diastole	40	A	1473.0605584831292	streaming
632.3186	0.0825030758278444	31	diastole	41	B	500.0	streaming
632.4835	0.0825030758278444	31	diastole	42	A	1473.0605584831292	streaming
651.1557	0.0856008749688044	32	diastole	1	A	972.6712675344384	coherent
651.3278	0.0856008749688044	32	diastole	2	B	500.0	coherent
651.5006	0.0856008749688044	32	diastole	3	A	972.6712675344384	coherent
651.8656	0.0856008749688044	32	diastole	4	A	972.6712675344384	coherent
652.0377	0.0856008749688044	32	diastole	5	B	500.0	coherent
652.2105	0.0856008749688044	32	diastole	6	A	972.6712675344384	coherent
652.616	0.0856008749688044	32	diastole	7	A	972.6712675344384	coherent
652.7881	0.0856008749688044	32	diastole	8	B	500.0	coherent
652.9609	0.0856008749688044	32	diastole	9	A	972.6712675344384	coherent
653.356	0.0856008749688044	32	diastole	10	A	972.6712675344384	coherent
653.5281	0.0856008749688044	32	diastole	11	B	500.0	coherent
653.701	0.0856008749688044	32	diastole	12	A	972.6712675344384	coherent
654.1401	0.0856008749688044	32	diastole	13	A	972.6712675344384	coherent
654.3146	0.0856008749688044	32	diastole	14	B	500.0	coherent
654.49	0.0856008749688044	32	diastole	15	A	972.6712675344384	coherent
654.9284	0.0856008749688044	32	diastole	16	A	972.6712675344384	coherent
655.108	0.0856008749688044	32	diastole	17	B	500.0	coherent
655.2884	0.0856008749688044	32	diastole	18	A	972.6712675344384	coherent
655.7001	0.0856008749688044	32	diastole	19	A	972.6712675344384	coherent
655.8834	0.0856008749688044	32	diastole	20	B	500.0	coherent
656.0676	0.0856008749688044	32	diastole	21	A	972.6712675344384	coherent
656.4637	0.0856008749688044	32	diastole	22	A	972.6712675344384	coherent
656.6495	0.0856008749688044	32	diastole	23	B	500.0	coherent
656.8361	0.0856008749688044	32	diastole	24	A	972.6712675344384	coherent
657.1537	0.0856008749688044	32	diastole	25	A	972.6712675344384	coherent
657.3395	0.0856008749688044	32	diastole	26	B	500.0	coherent
657.5261	0.0856008749688044	32	diastole	27	A	972.6712675344384	coherent
657.8637	0.0856008749688044	32	diastole	28	A	972.6712675344384	coherent
658.0495	0.0856008749688044	32	diastole	29	B	500.0	coherent
658.2361	0.0856008749688044	32	diastole	30	A	972.6712675344384	coherent
658.5737	0.0856008749688044	32	diastole	31	A	972.6712675344384	coherent
658.7595	0.0856008749688044	32	diastole	32	B	500.0	coherent
658.9461	0.0856008749688044	32	diastole	33	A	972.6712675344384	coherent
659.2938	0.0856008749688044	32	diastole	34	A	972.6712675344384	coherent
659.4796	0.0856008749688044	32	diastole	35	B	500.0	coherent
659.6661	0.0856008749688044	32	diastole	36	A	972.6712675344384	coherent
659.9757	0.0856008749688044	32	diastole	37	A	972.6712675344384	coherent
660.1565	0.0856008749688044	32	diastole	38	B	500.0	coherent
660.3382	0.0856008749688044	32	diastole	39	A	972.6712675344384	coherent
660.6386	0.0856008749688044	32	diastole	40	A	972.6712675344384	coherent
660.8182	0.0856008749688044	32	diastole	41	B	500.0	coherent
660.9986	0.0856008749688044	32	diastole	42	A	972.6712675344384	coherent
663.4032	0.0850032812450081	33	systole	1	A	4062.961875947593	streaming
663.5685	0.0850032812450081	33	systole	2	B	500.0	streaming
663.7332	0.0850032812450081	33	systole	3	A	4062.961875947593	streaming
664.0533	0.0850032812450081	33	systole	4	A	4062.961875947593	streaming
664.2186	0.0850032812450081	33	systole	5	B	500.0	streaming
664.3834	0.0850032812450081	33	systole	6	A	4062.961875947593	streaming
664.7233	0.0850032812450081	33	systole	7	A	4062.961875947593	streaming
664.8886	0.0850032812450081	33	systole	8	B	500.0	streaming
665.0533	0.0850032812450081	33	systole	9	A	4062.961875947593	streaming
665.4233	0.0850032812450081	33	systole	10	A	4062.961875947593	streaming
665.5886	0.0850032812450081	33	systole	11	B	500.0	streaming
665.7534	0.0850032812450081	33	systole	12	A	4062.961875947593	streaming
666.1133	0.0850032812450081	33	systole	13	A	4062.961875947593	streaming
666.2786	0.0850032812450081	33	systole	14	B	500.0	streaming
666.4433	0.0850032812450081	33	systole	15	A	4062.961875947593	streaming
666.8032	0.0850032812450081	33	systole	16	A	4062.961875947593	streaming
666.9685	0.0850032812450081	33	systole	17	B	500.0	streaming
667.1332	0.0850032812450081	33	systole	18	A	4062.961875947593	streaming
667.4832	0.0850032812450081	33	systole	19	A	4062.961875947593	streaming
667.6485	0.0850032812450081	33	systole	20	B	500.0	streaming
667.8133	0.0850032812450081	33	systole	21	A	4062.961875947593	streaming
668.1233	0.0850032812450081	33	systole	22	A	4062.961875947593	streaming
668.2886	0.0850032812450081	33	systole	23	B	500.0	streaming
668.4533	0.0850032812450081	33	systole	24	A	4062.961875947593	streaming
668.7633	0.0850032812450081	33	systole	25	A	4062.961875947593	streaming
668.9286	0.0850032812450081	33	systole	26	B	500.0	streaming
669.0933	0.0850032812450081	33	systole	27	A	4062.961875947593	streaming
669.3734	0.0850032812450081	33	systole	28	A	4062.961875947593	streaming
669.5387	0.0850032812450081	33	systole	29	B	500.0	streaming
669.7034	0.0850032812450081	33	systole	30	A	4062.961875947593	streaming
669.9835	0.0850032812450081	33	systole	31	A	4062.961875947593	streaming
670.1488	0.0850032812450081	33	systole	32	B	500.0	streaming
670.3135	0.0850032812450081	33	systole	33	A	4062.961875947593	streaming
670.5996	0.0850032812450081	33	systole	34	A	4062.961875947593	streaming
670.7612	0.0850032812450081	33	systole	35	B	500.0	streaming
670.9221	0.0850032812450081	33	systole	36	A	4062.961875947593	streaming
671.2296	0.0850032812450081	33	systole	37	A	4062.961875947593	streaming
671.3912	0.0850032812450081	33	systole	38	B	500.0	streaming
671.5521	0.0850032812450081	33	systole	39	A	4062.961875947593	streaming
671.8951	0.0850032812450081	33	systole	40	A	4062.961875947593	streaming
672.0553	0.0850032812450081	33	systole	41	B	500.0	streaming
672.2151	0.0850032812450081	33	systole	42	A	4062.961875947593	streaming
672.5951	0.0850032812450081	33	systole	43	A	4062.961875947593	streaming
672.7554	0.0850032812450081	33	systole	44	B	500.0	streaming
672.9151	0.0850032812450081	33	systole	45	A	4062.961875947593	streaming
673.325	0.0850032812450081	33	systole	46	A	4062.961875947593	streaming
673.4853	0.0850032812450081	33	systole	47	B	500.0	streaming
673.645	0.0850032812450081	33	systole	48	A	4062.961875947593	streaming
678.6818	0.0917783856275491	34	systole	1	A	950.4996196948616	coherent
678.865	0.0917783856275491	34	systole	2	B	500.0	coherent
679.049	0.0917783856275491	34	systole	3	A	950.4996196948616	coherent
679.4019	0.0917783856275491	34	systole	4	A	950.4996196948616	coherent
679.585	0.0917783856275491	34	systole	5	B	500.0	coherent
679.769	0.0917783856275491	34	systole	6	A	950.4996196948616	coherent
680.0718	0.0917783856275491	34	systole	7	A	950.4996196948616	coherent
680.255	0.0917783856275491	34	systole	8	B	500.0	coherent
680.439	0.0917783856275491	34	systole	9	A	950.4996196948616	coherent
680.7518	0.0917783856275491	34	systole	10	A	950.4996196948616	coherent
680.935	0.0917783856275491	34	systole	11	B	500.0	coherent
681.1189	0.0917783856275491	34	systole	12	A	950.4996196948616	coherent
681.4318	0.0917783856275491	34	systole	13	A	950.4996196948616	coherent
681.615	0.0917783856275491	34	systole	14	B	500.0	coherent
681.799	0.0917783856275491	34	systole	15	A	950.4996196948616	coherent
682.1119	0.0917783856275491	34	systole	16	A	950.4996196948616	coherent
682.295	0.0917783856275491	34	systole	17	B	500.0	coherent
682.479	0.0917783856275491	34	systole	18	A	950.4996196948616	coherent
682.7735	0.0917783856275491	34	systole	19	A	950.4996196948616	coherent
682.9543	0.0917783856275491	34	systole	20	B	500.0	coherent
683.136	0.0917783856275491	34	systole	21	A	950.4996196948616	coherent
683.3622	0.0917783856275491	34	systole	22	A	950.4996196948616	coherent
683.5318	0.0917783856275491	34	systole	23	B	500.0	coherent
683.7023	0.0917783856275491	34	systole	24	A	950.4996196948616	coherent
683.9923	0.0917783856275491	34	systole	25	A	950.4996196948616	coherent
684.1618	0.0917783856275491	34	systole	26	B	500.0	coherent
684.3323	0.0917783856275491	34	systole	27	A	950.4996196948616	coherent
684.6223	0.0917783856275491	34	systole	28	A	950.4996196948616	coherent
684.7919	0.0917783856275491	34	systole	29	B	500.0	coherent
684.9623	0.0917783856275491	34	systole	30	A	950.4996196948616	coherent
685.2377	0.0917783856275491	34	systole	31	A	950.4996196948616	coherent
685.406	0.0917783856275491	34	systole	32	B	500.0	coherent
685.5752	0.0917783856275491	34	systole	33	A	950.4996196948616	coherent
685.8577	0.0917783856275491	34	systole	34	A	950.4996196948616	coherent
686.0261	0.0917783856275491	34	systole	35	B	500.0	coherent
686.1952	0.0917783856275491	34	systole	36	A	950.4996196948616	coherent
686.5131	0.0917783856275491	34	systole	37	A	950.4996196948616	coherent
686.6802	0.0917783856275491	34	systole	38	B	500.0	coherent
686.8481	0.0917783856275491	34	systole	39	A	950.4996196948616	coherent
687.2877	0.0917783856275491	34	systole	40	A	950.4996196948616	coherent
687.456	0.0917783856275491	34	systole	41	B	500.0	coherent
687.6251	0.0917783856275491	34	systole	42	A	950.4996196948616	coherent
