onset	duration	trial_num	trial_type	tone_num	tone_type	frequency	response
26.120400000000018	0.0943873997312039	1	diastole	1	B	500	diastole
26.870300000000043	0.0943873997312039	1	diastole	2	B	500	diastole
27.63869999999997	0.0943873997312039	1	diastole	3	B	500	diastole
28.40689999999995	0.0943873997312039	1	diastole	4	B	500	diastole
29.16689999999994	0.0943873997312039	1	diastole	5	B	500	diastole
29.90689999999995	0.0943873997312039	1	diastole	6	B	500	diastole
30.628600000000006	0.0943873997312039	1	diastole	7	B	500	diastole
31.370499999999993	0.0943873997312039	1	diastole	8	B	500	diastole
32.18049999999994	0.0943873997312039	1	diastole	9	B	500	diastole
33.02890000000002	0.0943873997312039	1	diastole	10	B	500	diastole
33.86909999999989	0.0943873997312039	1	diastole	11	B	500	diastole
34.58739999999989	0.0943873997312039	1	diastole	12	B	500	diastole
44.172399999999925	0.0956223080866038	2	systole	1	B	500	systole
44.922399999999925	0.0956223080866038	2	systole	2	B	500	systole
45.56320000000005	0.0956223080866038	2	systole	3	B	500	systole
46.23309999999992	0.0956223080866038	2	systole	4	B	500	systole
46.903099999999995	0.0956223080866038	2	systole	5	B	500	systole
47.58770000000004	0.0956223080866038	2	systole	6	B	500	systole
48.281999999999925	0.0956223080866038	2	systole	7	B	500	systole
49.04179999999997	0.0956223080866038	2	systole	8	B	500	systole
49.80179999999996	0.0956223080866038	2	systole	9	B	500	systole
50.60179999999991	0.0956223080866038	2	systole	10	B	500	systole
51.44769999999994	0.0956223080866038	2	systole	11	B	500	systole
52.2992999999999	0.0956223080866038	2	systole	12	B	500	systole
53.13920000000007	0.0956223080866038	2	systole	13	B	500	systole
54.01999999999998	0.0956223080866038	2	systole	14	B	500	systole
58.011999999999944	0.1043762208428233	3	diastole	1	B	500	systole
58.82040000000006	0.1043762208428233	3	diastole	2	B	500	systole
59.62869999999998	0.1043762208428233	3	diastole	3	B	500	systole
60.29829999999993	0.1043762208428233	3	diastole	4	B	500	systole
60.999700000000075	0.1043762208428233	3	diastole	5	B	500	systole
61.73880000000008	0.1043762208428233	3	diastole	6	B	500	systole
62.465400000000045	0.1043762208428233	3	diastole	7	B	500	systole
63.25839999999994	0.1043762208428233	3	diastole	8	B	500	systole
64.03939999999989	0.1043762208428233	3	diastole	9	B	500	systole
64.84969999999998	0.1043762208428233	3	diastole	10	B	500	systole
65.64979999999991	0.1043762208428233	3	diastole	11	B	500	systole
66.47450000000003	0.1043762208428233	3	diastole	12	B	500	systole
71.80340000000001	0.0999915685388259	4	diastole	1	B	500	diastole
72.50520000000006	0.0999915685388259	4	diastole	2	B	500	diastole
73.21530000000007	0.0999915685388259	4	diastole	3	B	500	diastole
73.87189999999987	0.0999915685388259	4	diastole	4	B	500	diastole
74.49199999999996	0.0999915685388259	4	diastole	5	B	500	diastole
75.21199999999999	0.0999915685388259	4	diastole	6	B	500	diastole
75.94200000000001	0.0999915685388259	4	diastole	7	B	500	diastole
76.67190000000005	0.0999915685388259	4	diastole	8	B	500	diastole
77.35329999999999	0.0999915685388259	4	diastole	9	B	500	diastole
78.04330000000004	0.0999915685388259	4	diastole	10	B	500	diastole
78.73329999999987	0.0999915685388259	4	diastole	11	B	500	diastole
79.4233999999999	0.0999915685388259	4	diastole	12	B	500	diastole
80.16319999999996	0.0999915685388259	4	diastole	13	B	500	diastole
83.9867999999999	0.0943915599491447	5	diastole	1	B	500	diastole
84.85670000000005	0.0943915599491447	5	diastole	2	B	500	diastole
85.61480000000006	0.0943915599491447	5	diastole	3	B	500	diastole
86.36480000000006	0.0943915599491447	5	diastole	4	B	500	diastole
87.13480000000004	0.0943915599491447	5	diastole	5	B	500	diastole
87.91499999999996	0.0943915599491447	5	diastole	6	B	500	diastole
88.73149999999987	0.0943915599491447	5	diastole	7	B	500	diastole
89.49530000000004	0.0943915599491447	5	diastole	8	B	500	diastole
90.2485999999999	0.0943915599491447	5	diastole	9	B	500	diastole
91.0184999999999	0.0943915599491447	5	diastole	10	B	500	diastole
91.77009999999996	0.0943915599491447	5	diastole	11	B	500	diastole
92.51170000000002	0.0943915599491447	5	diastole	12	B	500	diastole
95.67000000000007	0.0974953670520335	6	diastole	1	B	500	systole
96.47990000000004	0.0974953670520335	6	diastole	2	B	500	systole
97.17489999999998	0.0974953670520335	6	diastole	3	B	500	systole
97.8949	0.0974953670520335	6	diastole	4	B	500	systole
98.59870000000001	0.0974953670520335	6	diastole	5	B	500	systole
99.31060000000002	0.0974953670520335	6	diastole	6	B	500	systole
100.04729999999995	0.0974953670520335	6	diastole	7	B	500	systole
100.77739999999994	0.0974953670520335	6	diastole	8	B	500	systole
101.50759999999991	0.0974953670520335	6	diastole	9	B	500	systole
102.15409999999997	0.0974953670520335	6	diastole	10	B	500	systole
102.8741	0.0974953670520335	6	diastole	11	B	500	systole
103.59410000000003	0.0974953670520335	6	diastole	12	B	500	systole
104.3623	0.0974953670520335	6	diastole	13	B	500	systole
106.32940000000008	0.0943743959651328	7	systole	1	B	500	systole
107.03939999999989	0.0943743959651328	7	systole	2	B	500	systole
107.74939999999992	0.0943743959651328	7	systole	3	B	500	systole
108.4094	0.0943743959651328	7	systole	4	B	500	systole
109.05899999999997	0.0943743959651328	7	systole	5	B	500	systole
109.70859999999993	0.0943743959651328	7	systole	6	B	500	systole
110.35539999999992	0.0943743959651328	7	systole	7	B	500	systole
111.03629999999998	0.0943743959651328	7	systole	8	B	500	systole
111.74630000000002	0.0943743959651328	7	systole	9	B	500	systole
112.50430000000006	0.0943743959651328	7	systole	10	B	500	systole
113.28430000000003	0.0943743959651328	7	systole	11	B	500	systole
114.07439999999997	0.0943743959651328	7	systole	12	B	500	systole
114.89269999999988	0.0943743959651328	7	systole	13	B	500	systole
115.69270000000006	0.0943743959651328	7	systole	14	B	500	systole
118.36369999999988	0.0962587703834287	8	diastole	1	B	500	systole
119.02379999999994	0.0962587703834287	8	diastole	2	B	500	systole
119.6839	0.0962587703834287	8	diastole	3	B	500	systole
120.39380000000006	0.0962587703834287	8	diastole	4	B	500	systole
121.10369999999989	0.0962587703834287	8	diastole	5	B	500	systole
121.8871999999999	0.0962587703834287	8	diastole	6	B	500	systole
122.68709999999987	0.0962587703834287	8	diastole	7	B	500	systole
123.4103	0.0962587703834287	8	diastole	8	B	500	systole
124.18010000000004	0.0962587703834287	8	diastole	9	B	500	systole
124.9502	0.0962587703834287	8	diastole	10	B	500	systole
125.72029999999995	0.0962587703834287	8	diastole	11	B	500	systole
126.52700000000004	0.0962587703834287	8	diastole	12	B	500	systole
127.32490000000007	0.0962587703834287	8	diastole	13	B	500	systole
130.74649999999997	0.097490789135918	9	diastole	1	B	500	diastole
131.4568999999999	0.097490789135918	9	diastole	2	B	500	diastole
132.16730000000007	0.097490789135918	9	diastole	3	B	500	diastole
132.8572999999999	0.097490789135918	9	diastole	4	B	500	diastole
133.54719999999998	0.097490789135918	9	diastole	5	B	500	diastole
134.24049999999988	0.097490789135918	9	diastole	6	B	500	diastole
134.95039999999995	0.097490789135918	9	diastole	7	B	500	diastole
135.6422	0.097490789135918	9	diastole	8	B	500	diastole
136.41229999999996	0.097490789135918	9	diastole	9	B	500	diastole
137.20219999999995	0.097490789135918	9	diastole	10	B	500	diastole
137.99199999999996	0.097490789135918	9	diastole	11	B	500	diastole
138.79719999999998	0.097490789135918	9	diastole	12	B	500	diastole
139.59359999999992	0.097490789135918	9	diastole	13	B	500	diastole
141.98990000000003	0.0974756714422255	10	diastole	1	B	500	systole
142.6697999999999	0.0974756714422255	10	diastole	2	B	500	systole
143.34979999999996	0.0974756714422255	10	diastole	3	B	500	systole
144.01009999999997	0.0974756714422255	10	diastole	4	B	500	systole
144.67989999999986	0.0974756714422255	10	diastole	5	B	500	systole
145.31670000000008	0.0974756714422255	10	diastole	6	B	500	systole
146.0365999999999	0.0974756714422255	10	diastole	7	B	500	systole
146.77839999999992	0.0974756714422255	10	diastole	8	B	500	systole
147.54680000000008	0.0974756714422255	10	diastole	9	B	500	systole
148.34680000000003	0.0974756714422255	10	diastole	10	B	500	systole
149.15840000000003	0.0974756714422255	10	diastole	11	B	500	systole
149.96849999999995	0.0974756714422255	10	diastole	12	B	500	systole
150.7784999999999	0.0974756714422255	10	diastole	13	B	500	systole
151.51909999999998	0.0974756714422255	10	diastole	14	B	500	systole
154.2735	0.0862634939257986	11	systole	1	B	500	systole
154.93360000000007	0.0862634939257986	11	systole	2	B	500	systole
155.56600000000003	0.0862634939257986	11	systole	3	B	500	systole
156.21589999999992	0.0862634939257986	11	systole	4	B	500	systole
156.89599999999996	0.0862634939257986	11	systole	5	B	500	systole
157.60609999999997	0.0862634939257986	11	systole	6	B	500	systole
158.36760000000004	0.0862634939257986	11	systole	7	B	500	systole
159.17349999999988	0.0862634939257986	11	systole	8	B	500	systole
159.99109999999996	0.0862634939257986	11	systole	9	B	500	systole
160.7911999999999	0.0862634939257986	11	systole	10	B	500	systole
161.65100000000007	0.0862634939257986	11	systole	11	B	500	systole
162.46370000000002	0.0862634939257986	11	systole	12	B	500	systole
163.25330000000008	0.0862634939257986	11	systole	13	B	500	systole
165.5139999999999	0.0968511250684969	12	systole	1	B	500	systole
166.2582	0.0968511250684969	12	systole	2	B	500	systole
167.0082	0.0968511250684969	12	systole	3	B	500	systole
167.72509999999988	0.0968511250684969	12	systole	4	B	500	systole
168.4749999999999	0.0968511250684969	12	systole	5	B	500	systole
169.21519999999987	0.0968511250684969	12	systole	6	B	500	systole
169.96440000000007	0.0968511250684969	12	systole	7	B	500	systole
170.71399999999994	0.0968511250684969	12	systole	8	B	500	systole
171.45440000000008	0.0968511250684969	12	systole	9	B	500	systole
172.19399999999996	0.0968511250684969	12	systole	10	B	500	systole
172.94619999999986	0.0968511250684969	12	systole	11	B	500	systole
173.69820000000004	0.0968511250684969	12	systole	12	B	500	systole
174.4450999999999	0.0968511250684969	12	systole	13	B	500	systole
175.15179999999987	0.0968511250684969	12	systole	14	B	500	systole
179.41010000000006	0.092983933747746	13	diastole	1	B	500	diastole
180.25340000000006	0.092983933747746	13	diastole	2	B	500	diastole
181.09680000000003	0.092983933747746	13	diastole	3	B	500	diastole
181.89679999999998	0.092983933747746	13	diastole	4	B	500	diastole
182.74360000000001	0.092983933747746	13	diastole	5	B	500	diastole
183.57359999999994	0.092983933747746	13	diastole	6	B	500	diastole
184.41039999999998	0.092983933747746	13	diastole	7	B	500	diastole
185.21849999999995	0.092983933747746	13	diastole	8	B	500	diastole
186.0184999999999	0.092983933747746	13	diastole	9	B	500	diastole
186.80179999999996	0.092983933747746	13	diastole	10	B	500	diastole
187.58379999999988	0.092983933747746	13	diastole	11	B	500	diastole
190.37519999999995	0.0999965374940075	14	diastole	1	B	500	systole
191.03179999999998	0.0999965374940075	14	diastole	2	B	500	systole
191.7219	0.0999965374940075	14	diastole	3	B	500	systole
192.2684999999999	0.0999965374940075	14	diastole	4	B	500	systole
192.94830000000002	0.0999965374940075	14	diastole	5	B	500	systole
193.57989999999995	0.0999965374940075	14	diastole	6	B	500	systole
194.21990000000005	0.0999965374940075	14	diastole	7	B	500	systole
194.88149999999996	0.0999965374940075	14	diastole	8	B	500	systole
195.62120000000004	0.0999965374940075	14	diastole	9	B	500	systole
196.3608999999999	0.0999965374940075	14	diastole	10	B	500	systole
197.18730000000005	0.0999965374940075	14	diastole	11	B	500	systole
197.99700000000007	0.0999965374940075	14	diastole	12	B	500	systole
198.86670000000004	0.0999965374940075	14	diastole	13	B	500	systole
202.32979999999998	0.1012055156752467	15	diastole	1	B	500	systole
203.1099999999999	0.1012055156752467	15	diastole	2	B	500	systole
203.83159999999998	0.1012055156752467	15	diastole	3	B	500	systole
204.55320000000006	0.1012055156752467	15	diastole	4	B	500	systole
205.26160000000004	0.1012055156752467	15	diastole	5	B	500	systole
205.97710000000006	0.1012055156752467	15	diastole	6	B	500	systole
206.71699999999987	0.1012055156752467	15	diastole	7	B	500	systole
207.3822	0.1012055156752467	15	diastole	8	B	500	systole
208.05549999999994	0.1012055156752467	15	diastole	9	B	500	systole
208.74019999999996	0.1012055156752467	15	diastole	10	B	500	systole
209.4423999999999	0.1012055156752467	15	diastole	11	B	500	systole
210.1624999999999	0.1012055156752467	15	diastole	12	B	500	systole
210.91370000000006	0.1012055156752467	15	diastole	13	B	500	systole
213.32179999999994	0.0931186624220572	16	diastole	1	B	500	systole
214.1017999999999	0.0931186624220572	16	diastole	2	B	500	systole
214.79520000000002	0.0931186624220572	16	diastole	3	B	500	systole
215.50520000000006	0.0931186624220572	16	diastole	4	B	500	systole
216.18529999999987	0.0931186624220572	16	diastole	5	B	500	systole
216.88689999999997	0.0931186624220572	16	diastole	6	B	500	systole
217.59699999999998	0.0931186624220572	16	diastole	7	B	500	systole
218.30700000000002	0.0931186624220572	16	diastole	8	B	500	systole
219.04880000000003	0.0931186624220572	16	diastole	9	B	500	systole
219.8288	0.0931186624220572	16	diastole	10	B	500	systole
220.6087	0.0931186624220572	16	diastole	11	B	500	systole
221.43219999999997	0.0931186624220572	16	diastole	12	B	500	systole
222.23939999999993	0.0931186624220572	16	diastole	13	B	500	systole
226.34320000000002	0.0956304187420755	17	diastole	1	B	500	diastole
227.07659999999987	0.0956304187420755	17	diastole	2	B	500	diastole
227.82670000000007	0.0956304187420755	17	diastole	3	B	500	diastole
228.57680000000005	0.0956304187420755	17	diastole	4	B	500	diastole
229.25340000000006	0.0956304187420755	17	diastole	5	B	500	diastole
229.96350000000007	0.0956304187420755	17	diastole	6	B	500	diastole
230.70339999999987	0.0956304187420755	17	diastole	7	B	500	diastole
231.46219999999994	0.0956304187420755	17	diastole	8	B	500	diastole
232.21219999999994	0.0956304187420755	17	diastole	9	B	500	diastole
232.9622999999999	0.0956304187420755	17	diastole	10	B	500	diastole
233.78219999999988	0.0956304187420755	17	diastole	11	B	500	diastole
234.55230000000006	0.0956304187420755	17	diastole	12	B	500	diastole
235.36079999999993	0.0956304187420755	17	diastole	13	B	500	diastole
239.32850000000008	0.1037412373116239	18	systole	1	B	500	systole
240.11850000000004	0.1037412373116239	18	systole	2	B	500	systole
240.90859999999998	0.1037412373116239	18	systole	3	B	500	systole
241.59860000000003	0.1037412373116239	18	systole	4	B	500	systole
242.2585999999999	0.1037412373116239	18	systole	5	B	500	systole
242.8853999999999	0.1037412373116239	18	systole	6	B	500	systole
243.46540000000005	0.1037412373116239	18	systole	7	B	500	systole
244.1132	0.1037412373116239	18	systole	8	B	500	systole
244.83269999999993	0.1037412373116239	18	systole	9	B	500	systole
245.5746999999999	0.1037412373116239	18	systole	10	B	500	systole
246.33310000000006	0.1037412373116239	18	systole	11	B	500	systole
247.13709999999992	0.1037412373116239	18	systole	12	B	500	systole
247.9713999999999	0.1037412373116239	18	systole	13	B	500	systole
250.98289999999997	0.095625799964182	19	systole	1	B	500	systole
251.71299999999997	0.095625799964182	19	systole	2	B	500	systole
252.4031	0.095625799964182	19	systole	3	B	500	systole
253.11239999999998	0.095625799964182	19	systole	4	B	500	systole
253.83249999999998	0.095625799964182	19	systole	5	B	500	systole
254.57580000000007	0.095625799964182	19	systole	6	B	500	systole
255.3373999999999	0.095625799964182	19	systole	7	B	500	systole
256.1254999999999	0.095625799964182	19	systole	8	B	500	systole
256.92550000000006	0.095625799964182	19	systole	9	B	500	systole
257.7382	0.095625799964182	19	systole	10	B	500	systole
258.53829999999994	0.095625799964182	19	systole	11	B	500	systole
259.3523	0.095625799964182	19	systole	12	B	500	systole
260.1323	0.095625799964182	19	systole	13	B	500	systole
262.71270000000004	0.0974988382076844	20	systole	1	B	500	systole
263.3976	0.0974988382076844	20	systole	2	B	500	systole
264.18769999999995	0.0974988382076844	20	systole	3	B	500	systole
264.9777999999999	0.0974988382076844	20	systole	4	B	500	systole
265.80770000000007	0.0974988382076844	20	systole	5	B	500	systole
266.6277	0.0974988382076844	20	systole	6	B	500	systole
267.46119999999996	0.0974988382076844	20	systole	7	B	500	systole
268.2711999999999	0.0974988382076844	20	systole	8	B	500	systole
269.1552999999999	0.0974988382076844	20	systole	9	B	500	systole
269.97519999999986	0.0974988382076844	20	systole	10	B	500	systole
270.76559999999995	0.0974988382076844	20	systole	11	B	500	systole
271.5553	0.0974988382076844	20	systole	12	B	500	systole
273.8937000000001	0.1012558114016428	21	systole	1	B	500	systole
274.64380000000006	0.1012558114016428	21	systole	2	B	500	systole
275.32169999999996	0.1012558114016428	21	systole	3	B	500	systole
276.01009999999997	0.1012558114016428	21	systole	4	B	500	systole
276.7101	0.1012558114016428	21	systole	5	B	500	systole
277.4094	0.1012558114016428	21	systole	6	B	500	systole
278.14930000000004	0.1012558114016428	21	systole	7	B	500	systole
278.9293	0.1012558114016428	21	systole	8	B	500	systole
279.70939999999996	0.1012558114016428	21	systole	9	B	500	systole
280.48939999999993	0.1012558114016428	21	systole	10	B	500	systole
281.2898	0.1012558114016428	21	systole	11	B	500	systole
282.0854999999999	0.1012558114016428	21	systole	12	B	500	systole
282.8026	0.1012558114016428	21	systole	13	B	500	systole
283.5020999999999	0.1012558114016428	21	systole	14	B	500	systole
286.4184	0.0918525072047486	22	diastole	1	B	500	systole
287.0326	0.0918525072047486	22	diastole	2	B	500	systole
287.664	0.0918525072047486	22	diastole	3	B	500	systole
288.3064999999999	0.0918525072047486	22	diastole	4	B	500	systole
288.96609999999987	0.0918525072047486	22	diastole	5	B	500	systole
289.62570000000005	0.0918525072047486	22	diastole	6	B	500	systole
290.3355999999999	0.0918525072047486	22	diastole	7	B	500	systole
291.1154999999999	0.0918525072047486	22	diastole	8	B	500	systole
291.91419999999994	0.0918525072047486	22	diastole	9	B	500	systole
292.7041999999999	0.0918525072047486	22	diastole	10	B	500	systole
293.5658000000001	0.0918525072047486	22	diastole	11	B	500	systole
294.33580000000006	0.0918525072047486	22	diastole	12	B	500	systole
295.1459	0.0918525072047486	22	diastole	13	B	500	systole
298.07449999999994	0.0968706462881527	23	systole	1	B	500	systole
298.82860000000005	0.0968706462881527	23	systole	2	B	500	systole
299.5987	0.0968706462881527	23	systole	3	B	500	systole
300.39879999999994	0.0968706462881527	23	systole	4	B	500	systole
301.1987999999999	0.0968706462881527	23	systole	5	B	500	systole
302.00880000000006	0.0968706462881527	23	systole	6	B	500	systole
302.8462999999999	0.0968706462881527	23	systole	7	B	500	systole
303.69939999999997	0.0968706462881527	23	systole	8	B	500	systole
304.4694999999999	0.0968706462881527	23	systole	9	B	500	systole
305.2394999999999	0.0968706462881527	23	systole	10	B	500	systole
305.9662000000001	0.0968706462881527	23	systole	11	B	500	systole
306.71630000000005	0.0968706462881527	23	systole	12	B	500	systole
309.5452	0.0937545751221478	24	systole	1	B	500	systole
310.2793999999999	0.0937545751221478	24	systole	2	B	500	systole
311.0393999999999	0.0937545751221478	24	systole	3	B	500	systole
311.7995000000001	0.0937545751221478	24	systole	4	B	500	systole
312.55950000000007	0.0937545751221478	24	systole	5	B	500	systole
313.31950000000006	0.0937545751221478	24	systole	6	B	500	systole
314.0912000000001	0.0937545751221478	24	systole	7	B	500	systole
314.8696	0.0937545751221478	24	systole	8	B	500	systole
315.6513	0.0937545751221478	24	systole	9	B	500	systole
316.4529	0.0937545751221478	24	systole	10	B	500	systole
317.2428	0.0937545751221478	24	systole	11	B	500	systole
318.03970000000004	0.0937545751221478	24	systole	12	B	500	systole
318.85940000000005	0.0937545751221478	24	systole	13	B	500	systole
321.66679999999997	0.0987448187661357	25	diastole	1	B	500	diastole
322.3868	0.0987448187661357	25	diastole	2	B	500	diastole
323.1168	0.0987448187661357	25	diastole	3	B	500	diastole
323.8469	0.0987448187661357	25	diastole	4	B	500	diastole
324.5003999999999	0.0987448187661357	25	diastole	5	B	500	diastole
325.21569999999997	0.0987448187661357	25	diastole	6	B	500	diastole
325.95589999999993	0.0987448187661357	25	diastole	7	B	500	diastole
326.6960999999999	0.0987448187661357	25	diastole	8	B	500	diastole
327.47620000000006	0.0987448187661357	25	diastole	9	B	500	diastole
328.2563	0.0987448187661357	25	diastole	10	B	500	diastole
329.03639999999996	0.0987448187661357	25	diastole	11	B	500	diastole
329.8663999999999	0.0987448187661357	25	diastole	12	B	500	diastole
333.46519999999987	0.1031191696529276	26	diastole	1	B	500	systole
334.2352000000001	0.1031191696529276	26	diastole	2	B	500	systole
335.00520000000006	0.1031191696529276	26	diastole	3	B	500	systole
335.66190000000006	0.1031191696529276	26	diastole	4	B	500	systole
336.3517999999999	0.1031191696529276	26	diastole	5	B	500	systole
336.98	0.1031191696529276	26	diastole	6	B	500	systole
337.6785	0.1031191696529276	26	diastole	7	B	500	systole
338.46849999999995	0.1031191696529276	26	diastole	8	B	500	systole
339.25839999999994	0.1031191696529276	26	diastole	9	B	500	systole
340.0483999999999	0.1031191696529276	26	diastole	10	B	500	systole
340.8484000000001	0.1031191696529276	26	diastole	11	B	500	systole
341.64840000000004	0.1031191696529276	26	diastole	12	B	500	systole
342.4483	0.1031191696529276	26	diastole	13	B	500	systole
345.9533999999999	0.0999914431013166	27	systole	1	B	500	systole
346.6833999999999	0.0999914431013166	27	systole	2	B	500	systole
347.35210000000006	0.0999914431013166	27	systole	3	B	500	systole
347.9982	0.0999914431013166	27	systole	4	B	500	systole
348.6938	0.0999914431013166	27	systole	5	B	500	systole
349.4238	0.0999914431013166	27	systole	6	B	500	systole
350.2237	0.0999914431013166	27	systole	7	B	500	systole
351.0534	0.0999914431013166	27	systole	8	B	500	systole
351.8786	0.0999914431013166	27	systole	9	B	500	systole
352.69859999999994	0.0999914431013166	27	systole	10	B	500	systole
353.5812000000001	0.0999914431013166	27	systole	11	B	500	systole
354.4112	0.0999914431013166	27	systole	12	B	500	systole
355.20630000000006	0.0999914431013166	27	systole	13	B	500	systole
357.69370000000004	0.099347137613222	28	systole	1	B	500	diastole
358.3571999999999	0.099347137613222	28	systole	2	B	500	diastole
359.06719999999996	0.099347137613222	28	systole	3	B	500	diastole
359.3497	0.099347137613222	28	systole	4	B	500	diastole
359.72389999999996	0.099347137613222	28	systole	5	B	500	diastole
360.4139	0.099347137613222	28	systole	6	B	500	diastole
361.10390000000007	0.099347137613222	28	systole	7	B	500	diastole
361.79320000000007	0.099347137613222	28	systole	8	B	500	diastole
362.5336	0.099347137613222	28	systole	9	B	500	diastole
363.31500000000005	0.099347137613222	28	systole	10	B	500	diastole
364.08500000000004	0.099347137613222	28	systole	11	B	500	diastole
364.8852999999999	0.099347137613222	28	systole	12	B	500	diastole
365.7268999999999	0.099347137613222	28	systole	13	B	500	diastole
366.6114	0.099347137613222	28	systole	14	B	500	diastole
367.43139999999994	0.099347137613222	28	systole	15	B	500	diastole
370.76739999999995	0.0999996455502696	29	systole	1	B	500	systole
371.44619999999986	0.0999996455502696	29	systole	2	B	500	systole
372.1367	0.0999996455502696	29	systole	3	B	500	systole
372.8109999999999	0.0999996455502696	29	systole	4	B	500	systole
373.49119999999994	0.0999996455502696	29	systole	5	B	500	systole
374.1713	0.0999996455502696	29	systole	6	B	500	systole
374.8515	0.0999996455502696	29	systole	7	B	500	systole
375.56639999999993	0.0999996455502696	29	systole	8	B	500	systole
376.35609999999997	0.0999996455502696	29	systole	9	B	500	systole
377.16640000000007	0.0999996455502696	29	systole	10	B	500	systole
377.97669999999994	0.0999996455502696	29	systole	11	B	500	systole
378.7965999999999	0.0999996455502696	29	systole	12	B	500	systole
379.6198999999999	0.0999996455502696	29	systole	13	B	500	systole
380.4200000000001	0.0999996455502696	29	systole	14	B	500	systole
382.866	0.0987273768987506	30	systole	1	B	500	systole
383.55590000000007	0.0987273768987506	30	systole	2	B	500	systole
384.26009999999997	0.0987273768987506	30	systole	3	B	500	systole
384.9433999999999	0.0987273768987506	30	systole	4	B	500	systole
385.6933999999999	0.0987273768987506	30	systole	5	B	500	systole
386.4433999999999	0.0987273768987506	30	systole	6	B	500	systole
387.16190000000006	0.0987273768987506	30	systole	7	B	500	systole
387.8921	0.0987273768987506	30	systole	8	B	500	systole
388.64200000000005	0.0987273768987506	30	systole	9	B	500	systole
389.3919000000001	0.0987273768987506	30	systole	10	B	500	systole
390.1415999999999	0.0987273768987506	30	systole	11	B	500	systole
390.93309999999997	0.0987273768987506	30	systole	12	B	500	systole
391.74329999999986	0.0987273768987506	30	systole	13	B	500	systole
394.3397	0.0937302769743837	31	diastole	1	B	500	diastole
395.0598	0.0937302769743837	31	diastole	2	B	500	diastole
395.7799	0.0937302769743837	31	diastole	3	B	500	diastole
396.4999	0.0937302769743837	31	diastole	4	B	500	diastole
397.10040000000004	0.0937302769743837	31	diastole	5	B	500	diastole
397.75070000000005	0.0937302769743837	31	diastole	6	B	500	diastole
398.40100000000007	0.0937302769743837	31	diastole	7	B	500	diastole
399.0479	0.0937302769743837	31	diastole	8	B	500	diastole
399.80960000000005	0.0937302769743837	31	diastole	9	B	500	diastole
400.57169999999996	0.0937302769743837	31	diastole	10	B	500	diastole
401.3336999999999	0.0937302769743837	31	diastole	11	B	500	diastole
402.10210000000006	0.0937302769743837	31	diastole	12	B	500	diastole
402.90200000000004	0.0937302769743837	31	diastole	13	B	500	diastole
407.90359999999987	0.0987572571611963	32	systole	1	B	500	systole
408.6153999999999	0.0987572571611963	32	systole	2	B	500	systole
409.3271	0.0987572571611963	32	systole	3	B	500	systole
409.97540000000004	0.0987572571611963	32	systole	4	B	500	systole
410.7354	0.0987572571611963	32	systole	5	B	500	systole
411.51559999999995	0.0987572571611963	32	systole	6	B	500	systole
412.2956999999999	0.0987572571611963	32	systole	7	B	500	systole
413.0758000000001	0.0987572571611963	32	systole	8	B	500	systole
413.87570000000005	0.0987572571611963	32	systole	9	B	500	systole
414.69640000000004	0.0987572571611963	32	systole	10	B	500	systole
415.50649999999996	0.0987572571611963	32	systole	11	B	500	systole
416.35480000000007	0.0987572571611963	32	systole	12	B	500	systole
420.1752999999999	0.101258706243243	33	systole	1	B	500	systole
420.88519999999994	0.101258706243243	33	systole	2	B	500	systole
421.5618999999999	0.101258706243243	33	systole	3	B	500	systole
422.19370000000004	0.101258706243243	33	systole	4	B	500	systole
422.82269999999994	0.101258706243243	33	systole	5	B	500	systole
423.50099999999975	0.101258706243243	33	systole	6	B	500	systole
424.22109999999975	0.101258706243243	33	systole	7	B	500	systole
424.9830999999999	0.101258706243243	33	systole	8	B	500	systole
425.7451000000001	0.101258706243243	33	systole	9	B	500	systole
426.5248999999999	0.101258706243243	33	systole	10	B	500	systole
427.3265000000001	0.101258706243243	33	systole	11	B	500	systole
428.15830000000005	0.101258706243243	33	systole	12	B	500	systole
428.9481999999998	0.101258706243243	33	systole	13	B	500	systole
433.05380000000014	0.0962554811849258	34	diastole	1	B	500	diastole
433.7437	0.0962554811849258	34	diastole	2	B	500	diastole
434.38700000000017	0.0962554811849258	34	diastole	3	B	500	diastole
434.96990000000005	0.0962554811849258	34	diastole	4	B	500	diastole
435.61940000000004	0.0962554811849258	34	diastole	5	B	500	diastole
436.26890000000003	0.0962554811849258	34	diastole	6	B	500	diastole
436.8024999999998	0.0962554811849258	34	diastole	7	B	500	diastole
437.4110999999998	0.0962554811849258	34	diastole	8	B	500	diastole
438.1545000000001	0.0962554811849258	34	diastole	9	B	500	diastole
438.94450000000006	0.0962554811849258	34	diastole	10	B	500	diastole
439.79100000000017	0.0962554811849258	34	diastole	11	B	500	diastole
440.6210000000001	0.0962554811849258	34	diastole	12	B	500	diastole
441.56079999999974	0.0962554811849258	34	diastole	13	B	500	diastole
446.5536000000002	0.1037509018788114	35	diastole	1	B	500	systole
447.2437	0.1037509018788114	35	diastole	2	B	500	systole
447.9337999999998	0.1037509018788114	35	diastole	3	B	500	systole
448.6205	0.1037509018788114	35	diastole	4	B	500	systole
449.28369999999995	0.1037509018788114	35	diastole	5	B	500	systole
450.0187000000001	0.1037509018788114	35	diastole	6	B	500	systole
450.7988	0.1037509018788114	35	diastole	7	B	500	systole
451.59879999999976	0.1037509018788114	35	diastole	8	B	500	systole
452.4070999999999	0.1037509018788114	35	diastole	9	B	500	systole
453.21540000000005	0.1037509018788114	35	diastole	10	B	500	systole
454.0605999999998	0.1037509018788114	35	diastole	11	B	500	systole
454.92729999999983	0.1037509018788114	35	diastole	12	B	500	systole
462.18600000000015	0.0948813562863506	36	systole	1	B	500	diastole
462.9856	0.0948813562863506	36	systole	2	B	500	diastole
463.78510000000006	0.0948813562863506	36	systole	3	B	500	diastole
464.47879999999986	0.0948813562863506	36	systole	4	B	500	diastole
465.18690000000015	0.0948813562863506	36	systole	5	B	500	diastole
465.90650000000005	0.0948813562863506	36	systole	6	B	500	diastole
466.6372000000001	0.0948813562863506	36	systole	7	B	500	diastole
467.3827000000001	0.0948813562863506	36	systole	8	B	500	diastole
468.12260000000015	0.0948813562863506	36	systole	9	B	500	diastole
468.8469	0.0948813562863506	36	systole	10	B	500	diastole
469.5410999999999	0.0948813562863506	36	systole	11	B	500	diastole
470.19849999999997	0.0948813562863506	36	systole	12	B	500	diastole
470.86799999999994	0.0948813562863506	36	systole	13	B	500	diastole
471.53229999999985	0.0948813562863506	36	systole	14	B	500	diastole
475.8087999999998	0.0875225485069677	37	systole	1	B	500	systole
476.4470000000001	0.0875225485069677	37	systole	2	B	500	systole
477.09699999999975	0.0875225485069677	37	systole	3	B	500	systole
477.74699999999984	0.0875225485069677	37	systole	4	B	500	systole
478.4169999999999	0.0875225485069677	37	systole	5	B	500	systole
479.087	0.0875225485069677	37	systole	6	B	500	systole
479.7392	0.0875225485069677	37	systole	7	B	500	systole
480.3917999999999	0.0875225485069677	37	systole	8	B	500	systole
481.1116999999999	0.0875225485069677	37	systole	9	B	500	systole
481.8317000000002	0.0875225485069677	37	systole	10	B	500	systole
482.57169999999996	0.0875225485069677	37	systole	11	B	500	systole
483.3575000000001	0.0875225485069677	37	systole	12	B	500	systole
484.1374999999998	0.0875225485069677	37	systole	13	B	500	systole
489.10159999999996	0.0968686020933091	38	diastole	1	B	500	systole
489.75160000000005	0.0968686020933091	38	diastole	2	B	500	systole
490.40149999999994	0.0968686020933091	38	diastole	3	B	500	systole
490.97170000000006	0.0968686020933091	38	diastole	4	B	500	systole
491.5599000000002	0.0968686020933091	38	diastole	5	B	500	systole
492.23979999999983	0.0968686020933091	38	diastole	6	B	500	systole
492.9196999999999	0.0968686020933091	38	diastole	7	B	500	systole
493.62980000000016	0.0968686020933091	38	diastole	8	B	500	systole
494.34969999999976	0.0968686020933091	38	diastole	9	B	500	systole
495.1316999999999	0.0968686020933091	38	diastole	10	B	500	systole
495.93989999999985	0.0968686020933091	38	diastole	11	B	500	systole
496.8316	0.0968686020933091	38	diastole	12	B	500	systole
497.68150000000014	0.0968686020933091	38	diastole	13	B	500	systole
500.7786000000001	0.10051640617894	39	systole	1	B	500	systole
501.52880000000005	0.10051640617894	39	systole	2	B	500	systole
502.28859999999986	0.10051640617894	39	systole	3	B	500	systole
502.9549999999999	0.10051640617894	39	systole	4	B	500	systole
503.61180000000013	0.10051640617894	39	systole	5	B	500	systole
504.2919999999999	0.10051640617894	39	systole	6	B	500	systole
504.99029999999993	0.10051640617894	39	systole	7	B	500	systole
505.7141999999999	0.10051640617894	39	systole	8	B	500	systole
506.4940999999999	0.10051640617894	39	systole	9	B	500	systole
507.28999999999996	0.10051640617894	39	systole	10	B	500	systole
508.0799999999999	0.10051640617894	39	systole	11	B	500	systole
508.86990000000014	0.10051640617894	39	systole	12	B	500	systole
509.6732999999999	0.10051640617894	39	systole	13	B	500	systole
510.4549000000002	0.10051640617894	39	systole	14	B	500	systole
513.4155999999998	0.0969788272050209	40	systole	1	B	500	systole
514.096	0.0969788272050209	40	systole	2	B	500	systole
514.7802999999999	0.0969788272050209	40	systole	3	B	500	systole
515.4009000000001	0.0969788272050209	40	systole	4	B	500	systole
516.0704999999998	0.0969788272050209	40	systole	5	B	500	systole
516.7401	0.0969788272050209	40	systole	6	B	500	systole
517.3505999999998	0.0969788272050209	40	systole	7	B	500	systole
517.9551999999999	0.0969788272050209	40	systole	8	B	500	systole
518.5767999999998	0.0969788272050209	40	systole	9	B	500	systole
519.1988999999999	0.0969788272050209	40	systole	10	B	500	systole
519.8789000000002	0.0969788272050209	40	systole	11	B	500	systole
520.5989	0.0969788272050209	40	systole	12	B	500	systole
521.3188	0.0969788272050209	40	systole	13	B	500	systole
522.1071000000002	0.0969788272050209	40	systole	14	B	500	systole
522.9481000000001	0.0969788272050209	40	systole	15	B	500	systole
524.9452999999999	0.0974936970742419	41	systole	1	B	500	systole
525.7253999999998	0.0974936970742419	41	systole	2	B	500	systole
526.5054	0.0974936970742419	41	systole	3	B	500	systole
527.2552999999998	0.0974936970742419	41	systole	4	B	500	systole
527.9353000000001	0.0974936970742419	41	systole	5	B	500	systole
528.6151	0.0974936970742419	41	systole	6	B	500	systole
529.2948999999999	0.0974936970742419	41	systole	7	B	500	systole
529.9418000000001	0.0974936970742419	41	systole	8	B	500	systole
530.6601	0.0974936970742419	41	systole	9	B	500	systole
531.3901000000001	0.0974936970742419	41	systole	10	B	500	systole
532.1599999999999	0.0974936970742419	41	systole	11	B	500	systole
532.9301999999998	0.0974936970742419	41	systole	12	B	500	systole
533.7300999999998	0.0974936970742419	41	systole	13	B	500	systole
534.5201000000002	0.0974936970742419	41	systole	14	B	500	systole
536.9450000000002	0.0956154686864465	42	diastole	1	B	500	systole
537.5749999999998	0.0956154686864465	42	diastole	2	B	500	systole
538.2049999999999	0.0956154686864465	42	diastole	3	B	500	systole
538.7853	0.0956154686864465	42	diastole	4	B	500	systole
539.3571000000002	0.0956154686864465	42	diastole	5	B	500	systole
539.9468000000002	0.0956154686864465	42	diastole	6	B	500	systole
540.5636	0.0956154686864465	42	diastole	7	B	500	systole
541.3137000000002	0.0956154686864465	42	diastole	8	B	500	systole
542.1235000000001	0.0956154686864465	42	diastole	9	B	500	systole
542.9735999999998	0.0956154686864465	42	diastole	10	B	500	systole
543.8238000000001	0.0956154686864465	42	diastole	11	B	500	systole
544.6738999999998	0.0956154686864465	42	diastole	12	B	500	systole
545.5954999999999	0.0956154686864465	42	diastole	13	B	500	systole
549.3453	0.1068847308633849	43	diastole	1	B	500	diastole
550.1152000000002	0.1068847308633849	43	diastole	2	B	500	diastole
550.8851	0.1068847308633849	43	diastole	3	B	500	diastole
551.5951	0.1068847308633849	43	diastole	4	B	500	diastole
552.2332999999999	0.1068847308633849	43	diastole	5	B	500	diastole
552.8998999999999	0.1068847308633849	43	diastole	6	B	500	diastole
553.6498000000001	0.1068847308633849	43	diastole	7	B	500	diastole
554.4699	0.1068847308633849	43	diastole	8	B	500	diastole
555.2997999999998	0.1068847308633849	43	diastole	9	B	500	diastole
556.1297	0.1068847308633849	43	diastole	10	B	500	diastole
556.4382	0.1068847308633849	43	diastole	11	B	500	diastole
556.7763	0.1068847308633849	43	diastole	12	B	500	diastole
557.3462	0.1068847308633849	43	diastole	13	B	500	diastole
558.0781000000002	0.1068847308633849	43	diastole	14	B	500	diastole
563.1050999999998	0.0931266764528118	44	systole	1	B	500	systole
563.8251	0.0931266764528118	44	systole	2	B	500	systole
564.5493000000001	0.0931266764528118	44	systole	3	B	500	systole
565.2993000000001	0.0931266764528118	44	systole	4	B	500	systole
566.0693000000001	0.0931266764528118	44	systole	5	B	500	systole
566.8393000000001	0.0931266764528118	44	systole	6	B	500	systole
567.6551	0.0931266764528118	44	systole	7	B	500	systole
568.4767000000002	0.0931266764528118	44	systole	8	B	500	systole
569.2982999999999	0.0931266764528118	44	systole	9	B	500	systole
570.1282999999999	0.0931266764528118	44	systole	10	B	500	systole
570.9816000000001	0.0931266764528118	44	systole	11	B	500	systole
571.7835	0.0931266764528118	44	systole	12	B	500	systole
575.2417999999998	0.0950047291116789	45	diastole	1	B	500	systole
575.9351999999999	0.0950047291116789	45	diastole	2	B	500	systole
576.6451999999999	0.0950047291116789	45	diastole	3	B	500	systole
577.3753000000002	0.0950047291116789	45	diastole	4	B	500	systole
578.1053000000002	0.0950047291116789	45	diastole	5	B	500	systole
578.8752	0.0950047291116789	45	diastole	6	B	500	systole
579.6651999999999	0.0950047291116789	45	diastole	7	B	500	systole
580.5533999999998	0.0950047291116789	45	diastole	8	B	500	systole
581.3831999999998	0.0950047291116789	45	diastole	9	B	500	systole
582.2130000000002	0.0950047291116789	45	diastole	10	B	500	systole
583.1534000000001	0.0950047291116789	45	diastole	11	B	500	systole
584.0364	0.0950047291116789	45	diastole	12	B	500	systole
587.5983999999999	0.1037455499754287	46	systole	1	B	500	systole
588.2982999999999	0.1037455499754287	46	systole	2	B	500	systole
588.9980999999998	0.1037455499754287	46	systole	3	B	500	systole
589.6614	0.1037455499754287	46	systole	4	B	500	systole
590.3714	0.1037455499754287	46	systole	5	B	500	systole
591.0030000000002	0.1037455499754287	46	systole	6	B	500	systole
591.6224000000002	0.1037455499754287	46	systole	7	B	500	systole
592.3067000000001	0.1037455499754287	46	systole	8	B	500	systole
592.9967000000001	0.1037455499754287	46	systole	9	B	500	systole
593.7165999999997	0.1037455499754287	46	systole	10	B	500	systole
594.4670000000001	0.1037455499754287	46	systole	11	B	500	systole
595.2426	0.1037455499754287	46	systole	12	B	500	systole
596.0257999999999	0.1037455499754287	46	systole	13	B	500	systole
596.8058999999998	0.1037455499754287	46	systole	14	B	500	systole
599.4389000000001	0.094394025451038	47	diastole	1	B	500	systole
600.0794000000001	0.094394025451038	47	diastole	2	B	500	systole
600.7521000000002	0.094394025451038	47	diastole	3	B	500	systole
601.4321	0.094394025451038	47	diastole	4	B	500	systole
602.0637000000002	0.094394025451038	47	diastole	5	B	500	systole
602.7536	0.094394025451038	47	diastole	6	B	500	systole
603.5423000000001	0.094394025451038	47	diastole	7	B	500	systole
604.3118	0.094394025451038	47	diastole	8	B	500	systole
605.0823	0.094394025451038	47	diastole	9	B	500	systole
605.8526999999999	0.094394025451038	47	diastole	10	B	500	systole
606.7354999999998	0.094394025451038	47	diastole	11	B	500	systole
607.5342	0.094394025451038	47	diastole	12	B	500	systole
608.3242	0.094394025451038	47	diastole	13	B	500	systole
611.9160999999999	0.098127942008432	48	systole	1	B	500	systole
612.6161000000002	0.098127942008432	48	systole	2	B	500	systole
613.3303999999998	0.098127942008432	48	systole	3	B	500	systole
614.0504000000001	0.098127942008432	48	systole	4	B	500	systole
614.7094999999999	0.098127942008432	48	systole	5	B	500	systole
615.3719999999998	0.098127942008432	48	systole	6	B	500	systole
616.0245	0.098127942008432	48	systole	7	B	500	systole
616.6929	0.098127942008432	48	systole	8	B	500	systole
617.373	0.098127942008432	48	systole	9	B	500	systole
618.067	0.098127942008432	48	systole	10	B	500	systole
618.8229000000001	0.098127942008432	48	systole	11	B	500	systole
619.5929000000001	0.098127942008432	48	systole	12	B	500	systole
620.3629000000001	0.098127942008432	48	systole	13	B	500	systole
621.1329000000001	0.098127942008432	48	systole	14	B	500	systole
625.4935999999998	0.0962540000327862	49	diastole	1	B	500	systole
626.1934999999999	0.0962540000327862	49	diastole	2	B	500	systole
626.8634999999999	0.0962540000327862	49	diastole	3	B	500	systole
627.5335	0.0962540000327862	49	diastole	4	B	500	systole
628.1601	0.0962540000327862	49	diastole	5	B	500	systole
628.6866	0.0962540000327862	49	diastole	6	B	500	systole
629.2817	0.0962540000327862	49	diastole	7	B	500	systole
629.9268999999999	0.0962540000327862	49	diastole	8	B	500	systole
630.5969999999998	0.0962540000327862	49	diastole	9	B	500	systole
631.4270000000001	0.0962540000327862	49	diastole	10	B	500	systole
632.2768000000001	0.0962540000327862	49	diastole	11	B	500	systole
633.1469000000002	0.0962540000327862	49	diastole	12	B	500	systole
634.0753	0.0962540000327862	49	diastole	13	B	500	systole
637.2557999999999	0.1056049125036224	50	systole	1	B	500	diastole
637.9758999999999	0.1056049125036224	50	systole	2	B	500	diastole
638.6857999999997	0.1056049125036224	50	systole	3	B	500	diastole
639.3957	0.1056049125036224	50	systole	4	B	500	diastole
640.1257999999998	0.1056049125036224	50	systole	5	B	500	diastole
640.8519000000001	0.1056049125036224	50	systole	6	B	500	diastole
641.6419000000001	0.1056049125036224	50	systole	7	B	500	diastole
642.4717999999998	0.1056049125036224	50	systole	8	B	500	diastole
643.3118	0.1056049125036224	50	systole	9	B	500	diastole
644.1518000000001	0.1056049125036224	50	systole	10	B	500	diastole
644.9917999999998	0.1056049125036224	50	systole	11	B	500	diastole
645.8319000000001	0.1056049125036224	50	systole	12	B	500	diastole
646.6983999999998	0.1056049125036224	50	systole	13	B	500	diastole
651.1752999999999	0.1000988689484074	51	systole	1	B	500	systole
651.8553000000002	0.1000988689484074	51	systole	2	B	500	systole
652.5191	0.1000988689484074	51	systole	3	B	500	systole
653.1907999999999	0.1000988689484074	51	systole	4	B	500	systole
653.8512999999998	0.1000988689484074	51	systole	5	B	500	systole
654.5293999999999	0.1000988689484074	51	systole	6	B	500	systole
655.2568000000001	0.1000988689484074	51	systole	7	B	500	systole
656.0065	0.1000988689484074	51	systole	8	B	500	systole
656.8267000000001	0.1000988689484074	51	systole	9	B	500	systole
657.6469000000002	0.1000988689484074	51	systole	10	B	500	systole
658.4769999999999	0.1000988689484074	51	systole	11	B	500	systole
659.3125	0.1000988689484074	51	systole	12	B	500	systole
660.1691999999998	0.1000988689484074	51	systole	13	B	500	systole
662.4508000000001	0.0981274424120783	52	systole	1	B	500	diastole
663.1410000000001	0.0981274424120783	52	systole	2	B	500	diastole
663.8193000000001	0.0981274424120783	52	systole	3	B	500	diastole
664.5034999999998	0.0981274424120783	52	systole	4	B	500	diastole
665.1934999999999	0.0981274424120783	52	systole	5	B	500	diastole
665.8834999999999	0.0981274424120783	52	systole	6	B	500	diastole
666.5144	0.0981274424120783	52	systole	7	B	500	diastole
667.1352000000002	0.0981274424120783	52	systole	8	B	500	diastole
667.7550999999999	0.0981274424120783	52	systole	9	B	500	diastole
668.3379	0.0981274424120783	52	systole	10	B	500	diastole
668.9544000000001	0.0981274424120783	52	systole	11	B	500	diastole
669.5942999999997	0.0981274424120783	52	systole	12	B	500	diastole
670.2341999999999	0.0981274424120783	52	systole	13	B	500	diastole
670.8782999999999	0.0981274424120783	52	systole	14	B	500	diastole
671.5785000000001	0.0981274424120783	52	systole	15	B	500	diastole
672.2786999999998	0.0981274424120783	52	systole	16	B	500	diastole
674.7429000000002	0.0881420166697353	53	systole	1	B	500	systole
675.4128999999998	0.0881420166697353	53	systole	2	B	500	systole
676.0727000000002	0.0881420166697353	53	systole	3	B	500	systole
676.7127	0.0881420166697353	53	systole	4	B	500	systole
677.3033999999998	0.0881420166697353	53	systole	5	B	500	systole
677.9232999999999	0.0881420166697353	53	systole	6	B	500	systole
678.5283	0.0881420166697353	53	systole	7	B	500	systole
679.2383	0.0881420166697353	53	systole	8	B	500	systole
679.9483	0.0881420166697353	53	systole	9	B	500	systole
680.7282	0.0881420166697353	53	systole	10	B	500	systole
681.5583000000001	0.0881420166697353	53	systole	11	B	500	systole
682.4283	0.0881420166697353	53	systole	12	B	500	systole
683.3276000000001	0.0881420166697353	53	systole	13	B	500	systole
684.2991000000002	0.0881420166697353	53	systole	14	B	500	systole
686.1028000000001	0.1031310161924921	54	systole	1	B	500	systole
686.8328000000001	0.1031310161924921	54	systole	2	B	500	systole
687.5128	0.1031310161924921	54	systole	3	B	500	systole
688.1927000000001	0.1031310161924921	54	systole	4	B	500	systole
688.8726000000001	0.1031310161924921	54	systole	5	B	500	systole
689.5120000000002	0.1031310161924921	54	systole	6	B	500	systole
690.1194999999998	0.1031310161924921	54	systole	7	B	500	systole
690.7795999999998	0.1031310161924921	54	systole	8	B	500	systole
691.3744000000002	0.1031310161924921	54	systole	9	B	500	systole
692.0160000000001	0.1031310161924921	54	systole	10	B	500	systole
692.6866	0.1031310161924921	54	systole	11	B	500	systole
693.3863999999999	0.1031310161924921	54	systole	12	B	500	systole
694.0963999999999	0.1031310161924921	54	systole	13	B	500	systole
694.8762999999999	0.1031310161924921	54	systole	14	B	500	systole
695.6878999999999	0.1031310161924921	54	systole	15	B	500	systole
703.9603000000002	0.0831376686692237	55	diastole	1	B	500	systole
704.6003000000001	0.0831376686692237	55	diastole	2	B	500	systole
705.2500999999997	0.0831376686692237	55	diastole	3	B	500	systole
705.9099999999999	0.0831376686692237	55	diastole	4	B	500	systole
706.5700000000002	0.0831376686692237	55	diastole	5	B	500	systole
707.2300999999998	0.0831376686692237	55	diastole	6	B	500	systole
707.8849999999998	0.0831376686692237	55	diastole	7	B	500	systole
708.5650999999998	0.0831376686692237	55	diastole	8	B	500	systole
709.2851999999998	0.0831376686692237	55	diastole	9	B	500	systole
710.0718999999999	0.0831376686692237	55	diastole	10	B	500	systole
710.8870999999999	0.0831376686692237	55	diastole	11	B	500	systole
711.7473	0.0831376686692237	55	diastole	12	B	500	systole
712.5574000000001	0.0831376686692237	55	diastole	13	B	500	systole
713.4085999999998	0.0831376686692237	55	diastole	14	B	500	systole
718.6183999999998	0.0949904767912812	56	diastole	1	B	500	systole
719.3483000000001	0.0949904767912812	56	diastole	2	B	500	systole
720.04	0.0949904767912812	56	diastole	3	B	500	systole
720.7015999999999	0.0949904767912812	56	diastole	4	B	500	systole
721.3649	0.0949904767912812	56	diastole	5	B	500	systole
722.0283	0.0949904767912812	56	diastole	6	B	500	systole
722.7482	0.0949904767912812	56	diastole	7	B	500	systole
723.5182	0.0949904767912812	56	diastole	8	B	500	systole
724.2882	0.0949904767912812	56	diastole	9	B	500	systole
725.0880999999999	0.0949904767912812	56	diastole	10	B	500	systole
725.8881000000001	0.0949904767912812	56	diastole	11	B	500	systole
726.7366000000002	0.0949904767912812	56	diastole	12	B	500	systole
727.5616	0.0949904767912812	56	diastole	13	B	500	systole
734.5936000000002	0.0931337065994739	57	systole	1	B	500	systole
735.3035	0.0931337065994739	57	systole	2	B	500	systole
736.0277000000001	0.0931337065994739	57	systole	3	B	500	systole
736.732	0.0931337065994739	57	systole	4	B	500	systole
737.4535999999998	0.0931337065994739	57	systole	5	B	500	systole
738.1754000000001	0.0931337065994739	57	systole	6	B	500	systole
738.9007000000001	0.0931337065994739	57	systole	7	B	500	systole
739.6606000000002	0.0931337065994739	57	systole	8	B	500	systole
740.4205000000002	0.0931337065994739	57	systole	9	B	500	systole
741.2152999999998	0.0931337065994739	57	systole	10	B	500	systole
742.0054	0.0931337065994739	57	systole	11	B	500	systole
742.8054999999999	0.0931337065994739	57	systole	12	B	500	systole
743.6053999999999	0.0931337065994739	57	systole	13	B	500	systole
751.3490999999999	0.0868709372589364	58	systole	1	B	500	systole
752.0192000000002	0.0868709372589364	58	systole	2	B	500	systole
752.5032999999999	0.0868709372589364	58	systole	3	B	500	systole
752.7667000000001	0.0868709372589364	58	systole	4	B	500	systole
753.3317999999999	0.0868709372589364	58	systole	5	B	500	systole
754.0257000000001	0.0868709372589364	58	systole	6	B	500	systole
754.7357000000002	0.0868709372589364	58	systole	7	B	500	systole
755.4857999999999	0.0868709372589364	58	systole	8	B	500	systole
756.2476000000001	0.0868709372589364	58	systole	9	B	500	systole
757.0090999999998	0.0868709372589364	58	systole	10	B	500	systole
757.7624999999998	0.0868709372589364	58	systole	11	B	500	systole
758.52	0.0868709372589364	58	systole	12	B	500	systole
759.2599	0.0868709372589364	58	systole	13	B	500	systole
760.0173	0.0868709372589364	58	systole	14	B	500	systole
760.7572999999998	0.0868709372589364	58	systole	15	B	500	systole
764.1030999999998	0.0931186060188338	59	diastole	1	B	500	systole
764.8433999999997	0.0931186060188338	59	diastole	2	B	500	systole
765.5837000000001	0.0931186060188338	59	diastole	3	B	500	systole
766.2433999999998	0.0931186060188338	59	diastole	4	B	500	systole
766.9031	0.0931186060188338	59	diastole	5	B	500	systole
767.5432000000001	0.0931186060188338	59	diastole	6	B	500	systole
768.1833000000001	0.0931186060188338	59	diastole	7	B	500	systole
768.8319000000001	0.0931186060188338	59	diastole	8	B	500	systole
769.5219999999999	0.0931186060188338	59	diastole	9	B	500	systole
770.1619000000001	0.0931186060188338	59	diastole	10	B	500	systole
770.7786000000001	0.0931186060188338	59	diastole	11	B	500	systole
771.4587000000001	0.0931186060188338	59	diastole	12	B	500	systole
772.1869000000002	0.0931186060188338	59	diastole	13	B	500	systole
772.9436000000001	0.0931186060188338	59	diastole	14	B	500	systole
773.712	0.0931186060188338	59	diastole	15	B	500	systole
777.2867000000001	0.09375570906559	60	systole	1	B	500	systole
778.0165999999999	0.09375570906559	60	systole	2	B	500	systole
778.7465000000002	0.09375570906559	60	systole	3	B	500	systole
779.4265999999998	0.09375570906559	60	systole	4	B	500	systole
780.1066000000001	0.09375570906559	60	systole	5	B	500	systole
780.7766999999999	0.09375570906559	60	systole	6	B	500	systole
781.4468000000002	0.09375570906559	60	systole	7	B	500	systole
782.1291999999999	0.09375570906559	60	systole	8	B	500	systole
782.826	0.09375570906559	60	systole	9	B	500	systole
783.5461	0.09375570906559	60	systole	10	B	500	systole
784.2959999999998	0.09375570906559	60	systole	11	B	500	systole
785.0861	0.09375570906559	60	systole	12	B	500	systole
785.8861000000002	0.09375570906559	60	systole	13	B	500	systole
786.7509999999997	0.09375570906559	60	systole	14	B	500	systole
790.5951	0.0993821499869227	61	diastole	1	B	500	diastole
791.2851999999998	0.0993821499869227	61	diastole	2	B	500	diastole
791.9753000000001	0.0993821499869227	61	diastole	3	B	500	diastole
792.6653000000001	0.0993821499869227	61	diastole	4	B	500	diastole
793.3688000000002	0.0993821499869227	61	diastole	5	B	500	diastole
794.0286000000001	0.0993821499869227	61	diastole	6	B	500	diastole
794.6118999999999	0.0993821499869227	61	diastole	7	B	500	diastole
795.2619	0.0993821499869227	61	diastole	8	B	500	diastole
795.9119000000001	0.0993821499869227	61	diastole	9	B	500	diastole
796.547	0.0993821499869227	61	diastole	10	B	500	diastole
797.3166000000001	0.0993821499869227	61	diastole	11	B	500	diastole
798.0862999999999	0.0993821499869227	61	diastole	12	B	500	diastole
798.9512	0.0993821499869227	61	diastole	13	B	500	diastole
799.7876999999999	0.0993821499869227	61	diastole	14	B	500	diastole
803.7946999999999	0.0962227042764425	62	diastole	1	B	500	systole
804.5230000000001	0.0962227042764425	62	diastole	2	B	500	systole
805.2512999999999	0.0962227042764425	62	diastole	3	B	500	systole
805.9733000000001	0.0962227042764425	62	diastole	4	B	500	systole
806.7114999999999	0.0962227042764425	62	diastole	5	B	500	systole
807.4715000000001	0.0962227042764425	62	diastole	6	B	500	systole
808.2514999999999	0.0962227042764425	62	diastole	7	B	500	systole
809.0511999999999	0.0962227042764425	62	diastole	8	B	500	systole
809.8510000000001	0.0962227042764425	62	diastole	9	B	500	systole
810.6693999999998	0.0962227042764425	62	diastole	10	B	500	systole
811.4663	0.0962227042764425	62	diastole	11	B	500	systole
812.2466	0.0962227042764425	62	diastole	12	B	500	systole
815.4429999999998	0.0999895520508289	63	diastole	1	B	500	systole
816.143	0.0999895520508289	63	diastole	2	B	500	systole
816.8429999999998	0.0999895520508289	63	diastole	3	B	500	systole
817.5268999999998	0.0999895520508289	63	diastole	4	B	500	systole
818.1922	0.0999895520508289	63	diastole	5	B	500	systole
818.8132999999998	0.0999895520508289	63	diastole	6	B	500	systole
819.4366	0.0999895520508289	63	diastole	7	B	500	systole
820.1266999999998	0.0999895520508289	63	diastole	8	B	500	systole
820.8265000000001	0.0999895520508289	63	diastole	9	B	500	systole
821.5963999999999	0.0999895520508289	63	diastole	10	B	500	systole
822.3863999999999	0.0999895520508289	63	diastole	11	B	500	systole
823.1765	0.0999895520508289	63	diastole	12	B	500	systole
823.9899999999998	0.0999895520508289	63	diastole	13	B	500	systole
828.0583999999999	0.0981350124930031	64	diastole	1	B	500	systole
828.7484	0.0981350124930031	64	diastole	2	B	500	systole
829.4384	0.0981350124930031	64	diastole	3	B	500	systole
830.1284	0.0981350124930031	64	diastole	4	B	500	systole
830.8184000000001	0.0981350124930031	64	diastole	5	B	500	systole
831.5302000000001	0.0981350124930031	64	diastole	6	B	500	systole
832.2282999999998	0.0981350124930031	64	diastole	7	B	500	systole
832.9982999999997	0.0981350124930031	64	diastole	8	B	500	systole
833.75	0.0981350124930031	64	diastole	9	B	500	systole
834.4267	0.0981350124930031	64	diastole	10	B	500	systole
835.1367999999998	0.0981350124930031	64	diastole	11	B	500	systole
835.8483000000001	0.0981350124930031	64	diastole	12	B	500	systole
836.5682999999999	0.0981350124930031	64	diastole	13	B	500	systole
837.3065999999999	0.0981350124930031	64	diastole	14	B	500	systole
841.3984	0.0931286661652848	65	diastole	1	B	500	systole
842.2084	0.0931286661652848	65	diastole	2	B	500	systole
842.9650999999999	0.0931286661652848	65	diastole	3	B	500	systole
843.7051000000001	0.0931286661652848	65	diastole	4	B	500	systole
844.5119	0.0931286661652848	65	diastole	5	B	500	systole
845.3752	0.0931286661652848	65	diastole	6	B	500	systole
846.2217	0.0931286661652848	65	diastole	7	B	500	systole
847.0219000000002	0.0931286661652848	65	diastole	8	B	500	systole
847.8119000000002	0.0931286661652848	65	diastole	9	B	500	systole
848.6037999999999	0.0931286661652848	65	diastole	10	B	500	systole
849.4137000000001	0.0931286661652848	65	diastole	11	B	500	systole
850.2138	0.0931286661652848	65	diastole	12	B	500	systole
854.4634999999998	0.1000093377078883	66	systole	1	B	500	diastole
855.1635999999999	0.1000093377078883	66	systole	2	B	500	diastole
855.8638000000001	0.1000093377078883	66	systole	3	B	500	diastole
856.5405000000001	0.1000093377078883	66	systole	4	B	500	diastole
857.1172000000001	0.1000093377078883	66	systole	5	B	500	diastole
857.7770999999998	0.1000093377078883	66	systole	6	B	500	diastole
858.4371000000001	0.1000093377078883	66	systole	7	B	500	diastole
859.0972000000002	0.1000093377078883	66	systole	8	B	500	diastole
859.7572	0.1000093377078883	66	systole	9	B	500	diastole
860.3971000000001	0.1000093377078883	66	systole	10	B	500	diastole
861.0452999999998	0.1000093377078883	66	systole	11	B	500	diastole
861.7296000000001	0.1000093377078883	66	systole	12	B	500	diastole
862.5392999999999	0.1000093377078883	66	systole	13	B	500	diastole
863.3498	0.1000093377078883	66	systole	14	B	500	diastole
867.8150999999998	0.1012560623930767	67	systole	1	B	500	systole
868.5250999999998	0.1012560623930767	67	systole	2	B	500	systole
869.2350999999999	0.1012560623930767	67	systole	3	B	500	systole
869.9659999999999	0.1012560623930767	67	systole	4	B	500	systole
870.7143000000001	0.1012560623930767	67	systole	5	B	500	systole
871.4486999999999	0.1012560623930767	67	systole	6	B	500	systole
872.2505000000001	0.1012560623930767	67	systole	7	B	500	systole
873.0590000000002	0.1012560623930767	67	systole	8	B	500	systole
873.8674000000001	0.1012560623930767	67	systole	9	B	500	systole
874.6972999999998	0.1012560623930767	67	systole	10	B	500	systole
875.5171	0.1012560623930767	67	systole	11	B	500	systole
876.3737000000001	0.1012560623930767	67	systole	12	B	500	systole
878.5695999999998	0.1006453623995184	68	systole	1	B	500	diastole
879.2701000000002	0.1006453623995184	68	systole	2	B	500	diastole
880.0002	0.1006453623995184	68	systole	3	B	500	diastole
880.6316999999999	0.1006453623995184	68	systole	4	B	500	diastole
881.2406999999998	0.1006453623995184	68	systole	5	B	500	diastole
881.8633	0.1006453623995184	68	systole	6	B	500	diastole
882.5030000000002	0.1006453623995184	68	systole	7	B	500	diastole
883.1208999999999	0.1006453623995184	68	systole	8	B	500	diastole
883.7507	0.1006453623995184	68	systole	9	B	500	diastole
884.3615	0.1006453623995184	68	systole	10	B	500	diastole
885.0556999999999	0.1006453623995184	68	systole	11	B	500	diastole
885.8456999999999	0.1006453623995184	68	systole	12	B	500	diastole
886.6758	0.1006453623995184	68	systole	13	B	500	diastole
887.5457999999999	0.1006453623995184	68	systole	14	B	500	diastole
893.8634000000002	0.1037530761677771	69	diastole	1	B	500	systole
894.5634999999997	0.1037530761677771	69	diastole	2	B	500	systole
895.2134999999998	0.1037530761677771	69	diastole	3	B	500	systole
895.8033999999998	0.1037530761677771	69	diastole	4	B	500	systole
896.2835	0.1037530761677771	69	diastole	5	B	500	systole
896.9135000000001	0.1037530761677771	69	diastole	6	B	500	systole
897.5419000000002	0.1037530761677771	69	diastole	7	B	500	systole
898.3119000000002	0.1037530761677771	69	diastole	8	B	500	systole
899.0819999999999	0.1037530761677771	69	diastole	9	B	500	systole
899.8919999999998	0.1037530761677771	69	diastole	10	B	500	systole
900.7019999999998	0.1037530761677771	69	diastole	11	B	500	systole
901.5484999999999	0.1037530761677771	69	diastole	12	B	500	systole
902.5219000000002	0.1037530761677771	69	diastole	13	B	500	systole
907.435	0.1031253377441316	70	diastole	1	B	500	systole
908.165	0.1031253377441316	70	diastole	2	B	500	systole
908.8998999999999	0.1031253377441316	70	diastole	3	B	500	systole
909.6599000000001	0.1031253377441316	70	diastole	4	B	500	systole
910.3496999999998	0.1031253377441316	70	diastole	5	B	500	systole
911.0897	0.1031253377441316	70	diastole	6	B	500	systole
911.8166000000001	0.1031253377441316	70	diastole	7	B	500	systole
912.5963000000002	0.1031253377441316	70	diastole	8	B	500	systole
913.3867	0.1031253377441316	70	diastole	9	B	500	systole
914.1862999999998	0.1031253377441316	70	diastole	10	B	500	systole
915.0329000000002	0.1031253377441316	70	diastole	11	B	500	systole
915.9081000000001	0.1031253377441316	70	diastole	12	B	500	systole
919.0529000000001	0.0999798251432366	71	diastole	1	B	500	systole
919.7629000000002	0.0999798251432366	71	diastole	2	B	500	systole
920.4067	0.0999798251432366	71	diastole	3	B	500	systole
921.1167999999998	0.0999798251432366	71	diastole	4	B	500	systole
921.7698999999998	0.0999798251432366	71	diastole	5	B	500	systole
922.4897999999998	0.0999798251432366	71	diastole	6	B	500	systole
923.2096999999999	0.0999798251432366	71	diastole	7	B	500	systole
923.9295999999999	0.0999798251432366	71	diastole	8	B	500	systole
924.6612999999998	0.0999798251432366	71	diastole	9	B	500	systole
925.4112999999998	0.0999798251432366	71	diastole	10	B	500	systole
926.1914000000002	0.0999798251432366	71	diastole	11	B	500	systole
927.0014000000001	0.0999798251432366	71	diastole	12	B	500	systole
931.2732000000001	0.1007226404035463	72	diastole	1	B	500	systole
931.9731000000002	0.1007226404035463	72	diastole	2	B	500	systole
932.6729999999998	0.1007226404035463	72	diastole	3	B	500	systole
933.3748999999998	0.1007226404035463	72	diastole	4	B	500	systole
934.0513999999998	0.1007226404035463	72	diastole	5	B	500	systole
934.7053000000001	0.1007226404035463	72	diastole	6	B	500	systole
935.3996000000002	0.1007226404035463	72	diastole	7	B	500	systole
936.1089000000002	0.1007226404035463	72	diastole	8	B	500	systole
936.8393000000001	0.1007226404035463	72	diastole	9	B	500	systole
937.6091999999999	0.1007226404035463	72	diastole	10	B	500	systole
938.3800999999999	0.1007226404035463	72	diastole	11	B	500	systole
939.1502	0.1007226404035463	72	diastole	12	B	500	systole
939.9202999999998	0.1007226404035463	72	diastole	13	B	500	systole
946.9883	0.0887506977305747	73	diastole	1	B	500	systole
947.6001999999999	0.0887506977305747	73	diastole	2	B	500	systole
948.2285999999999	0.0887506977305747	73	diastole	3	B	500	systole
948.857	0.0887506977305747	73	diastole	4	B	500	systole
949.5167000000001	0.0887506977305747	73	diastole	5	B	500	systole
950.2051999999999	0.0887506977305747	73	diastole	6	B	500	systole
950.8937000000001	0.0887506977305747	73	diastole	7	B	500	systole
951.6406999999999	0.0887506977305747	73	diastole	8	B	500	systole
952.4252999999999	0.0887506977305747	73	diastole	9	B	500	systole
953.1849000000002	0.0887506977305747	73	diastole	10	B	500	systole
953.9946	0.0887506977305747	73	diastole	11	B	500	systole
954.7545999999998	0.0887506977305747	73	diastole	12	B	500	systole
955.5745000000002	0.0887506977305747	73	diastole	13	B	500	systole
956.3445000000002	0.0887506977305747	73	diastole	14	B	500	systole
958.4065999999998	0.0950245259446092	74	systole	1	B	500	diastole
959.0965999999999	0.0950245259446092	74	systole	2	B	500	diastole
959.7671	0.0950245259446092	74	systole	3	B	500	diastole
960.4377	0.0950245259446092	74	systole	4	B	500	diastole
961.0873000000001	0.0950245259446092	74	systole	5	B	500	diastole
961.6934999999999	0.0950245259446092	74	systole	6	B	500	diastole
962.2930000000001	0.0950245259446092	74	systole	7	B	500	diastole
962.9144000000001	0.0950245259446092	74	systole	8	B	500	diastole
963.6037000000001	0.0950245259446092	74	systole	9	B	500	diastole
964.3240999999998	0.0950245259446092	74	systole	10	B	500	diastole
965.114	0.0950245259446092	74	systole	11	B	500	diastole
965.9540000000002	0.0950245259446092	74	systole	12	B	500	diastole
966.8139999999999	0.0950245259446092	74	systole	13	B	500	diastole
967.7031000000002	0.0950245259446092	74	systole	14	B	500	diastole
976.1943999999999	0.0956101958290673	75	systole	1	B	500	systole
976.8647999999998	0.0956101958290673	75	systole	2	B	500	systole
977.4881	0.0956101958290673	75	systole	3	B	500	systole
978.1781000000001	0.0956101958290673	75	systole	4	B	500	systole
978.8780999999999	0.0956101958290673	75	systole	5	B	500	systole
979.5781999999999	0.0956101958290673	75	systole	6	B	500	systole
980.3679000000002	0.0956101958290673	75	systole	7	B	500	systole
981.2040999999999	0.0956101958290673	75	systole	8	B	500	systole
982.0340000000001	0.0956101958290673	75	systole	9	B	500	systole
982.864	0.0956101958290673	75	systole	10	B	500	systole
983.7341000000001	0.0956101958290673	75	systole	11	B	500	systole
984.6212	0.0956101958290673	75	systole	12	B	500	systole
985.4625999999998	0.0956101958290673	75	systole	13	B	500	systole
986.3426	0.0956101958290673	75	systole	14	B	500	systole
992.8566000000001	0.0937559967860579	76	diastole	1	B	500	systole
993.4749000000002	0.0937559967860579	76	diastole	2	B	500	systole
994.1349	0.0937559967860579	76	diastole	3	B	500	systole
994.7950000000001	0.0937559967860579	76	diastole	4	B	500	systole
995.3998999999999	0.0937559967860579	76	diastole	5	B	500	systole
996.0715999999998	0.0937559967860579	76	diastole	6	B	500	systole
996.7516999999998	0.0937559967860579	76	diastole	7	B	500	systole
997.4715999999999	0.0937559967860579	76	diastole	8	B	500	systole
998.23	0.0937559967860579	76	diastole	9	B	500	systole
999.0551999999998	0.0937559967860579	76	diastole	10	B	500	systole
999.9267	0.0937559967860579	76	diastole	11	B	500	systole
1000.7566000000002	0.0937559967860579	76	diastole	12	B	500	systole
1001.7130999999999	0.0937559967860579	76	diastole	13	B	500	systole
1007.6206999999999	0.1037421112996526	77	systole	1	B	500	diastole
1008.2399	0.1037421112996526	77	systole	2	B	500	diastole
1008.8334	0.1037421112996526	77	systole	3	B	500	diastole
1009.4283999999998	0.1037421112996526	77	systole	4	B	500	diastole
1010.0290999999997	0.1037421112996526	77	systole	5	B	500	diastole
1010.6158999999998	0.1037421112996526	77	systole	6	B	500	diastole
1011.2258999999999	0.1037421112996526	77	systole	7	B	500	diastole
1011.8209000000002	0.1037421112996526	77	systole	8	B	500	diastole
1012.4908	0.1037421112996526	77	systole	9	B	500	diastole
1013.1624000000002	0.1037421112996526	77	systole	10	B	500	diastole
1013.8341	0.1037421112996526	77	systole	11	B	500	diastole
1014.4924999999998	0.1037421112996526	77	systole	12	B	500	diastole
1015.1426000000001	0.1037421112996526	77	systole	13	B	500	diastole
1015.9384999999997	0.1037421112996526	77	systole	14	B	500	diastole
1016.7285000000002	0.1037421112996526	77	systole	15	B	500	diastole
1022.9762999999998	0.1099853710620664	78	diastole	1	B	500	diastole
1023.7764000000002	0.1099853710620664	78	diastole	2	B	500	diastole
1024.5164	0.1099853710620664	78	diastole	3	B	500	diastole
1025.2267000000002	0.1099853710620664	78	diastole	4	B	500	diastole
1025.8878	0.1099853710620664	78	diastole	5	B	500	diastole
1026.4714	0.1099853710620664	78	diastole	6	B	500	diastole
1026.9679	0.1099853710620664	78	diastole	7	B	500	diastole
1027.6475	0.1099853710620664	78	diastole	8	B	500	diastole
1028.3325	0.1099853710620664	78	diastole	9	B	500	diastole
1029.0827	0.1099853710620664	78	diastole	10	B	500	diastole
1029.9229999999998	0.1099853710620664	78	diastole	11	B	500	diastole
1030.8029999999999	0.1099853710620664	78	diastole	12	B	500	diastole
1031.683	0.1099853710620664	78	diastole	13	B	500	diastole
1032.6378	0.1099853710620664	78	diastole	14	B	500	diastole
1035.1156999999998	0.0981193817569874	79	systole	1	B	500	diastole
1035.8096	0.0981193817569874	79	systole	2	B	500	diastole
1036.5094	0.0981193817569874	79	systole	3	B	500	diastole
1037.2091999999998	0.0981193817569874	79	systole	4	B	500	diastole
1037.8112999999998	0.0981193817569874	79	systole	5	B	500	diastole
1038.4717999999998	0.0981193817569874	79	systole	6	B	500	diastole
1039.0886999999998	0.0981193817569874	79	systole	7	B	500	diastole
1039.7327	0.0981193817569874	79	systole	8	B	500	diastole
1040.3827	0.0981193817569874	79	systole	9	B	500	diastole
1041.0288999999998	0.0981193817569874	79	systole	10	B	500	diastole
1041.7489	0.0981193817569874	79	systole	11	B	500	diastole
1042.5589	0.0981193817569874	79	systole	12	B	500	diastole
1043.3689	0.0981193817569874	79	systole	13	B	500	diastole
1044.1788999999999	0.0981193817569874	79	systole	14	B	500	diastole
1050.3134	0.0937695648171939	80	systole	1	B	500	diastole
1051.0533	0.0937695648171939	80	systole	2	B	500	diastole
1051.8033	0.0937695648171939	80	systole	3	B	500	diastole
1052.5533999999998	0.0937695648171939	80	systole	4	B	500	diastole
1053.2590999999998	0.0937695648171939	80	systole	5	B	500	diastole
1053.9591	0.0937695648171939	80	systole	6	B	500	diastole
1054.6590999999999	0.0937695648171939	80	systole	7	B	500	diastole
1055.3588	0.0937695648171939	80	systole	8	B	500	diastole
1056.0585	0.0937695648171939	80	systole	9	B	500	diastole
1056.7197	0.0937695648171939	80	systole	10	B	500	diastole
1057.3663999999999	0.0937695648171939	80	systole	11	B	500	diastole
1058.0088999999998	0.0937695648171939	80	systole	12	B	500	diastole
1058.6572999999999	0.0937695648171939	80	systole	13	B	500	diastole
1059.2536	0.0937695648171939	80	systole	14	B	500	diastole
1059.8732	0.0937695648171939	80	systole	15	B	500	diastole
1064.7849999999999	0.0849759078701026	81	systole	1	B	500	systole
1065.4551000000001	0.0849759078701026	81	systole	2	B	500	systole
1066.1408999999999	0.0849759078701026	81	systole	3	B	500	systole
1066.8683999999998	0.0849759078701026	81	systole	4	B	500	systole
1067.65	0.0849759078701026	81	systole	5	B	500	systole
1068.4198000000001	0.0849759078701026	81	systole	6	B	500	systole
1069.3314	0.0849759078701026	81	systole	7	B	500	systole
1070.2773000000002	0.0849759078701026	81	systole	8	B	500	systole
1071.2172999999998	0.0849759078701026	81	systole	9	B	500	systole
1072.2087999999999	0.0849759078701026	81	systole	10	B	500	systole
1073.1187	0.0849759078701026	81	systole	11	B	500	systole
1074.0187999999998	0.0849759078701026	81	systole	12	B	500	systole
1076.7217999999998	0.1081320660887286	82	diastole	1	B	500	systole
1077.4429999999998	0.1081320660887286	82	diastole	2	B	500	systole
1078.1727	0.1081320660887286	82	diastole	3	B	500	systole
1078.7480999999998	0.1081320660887286	82	diastole	4	B	500	systole
1079.3912	0.1081320660887286	82	diastole	5	B	500	systole
1080.1026000000002	0.1081320660887286	82	diastole	6	B	500	systole
1080.8224999999998	0.1081320660887286	82	diastole	7	B	500	systole
1081.5726	0.1081320660887286	82	diastole	8	B	500	systole
1082.3526000000002	0.1081320660887286	82	diastole	9	B	500	systole
1083.1325000000002	0.1081320660887286	82	diastole	10	B	500	systole
1083.8908000000001	0.1081320660887286	82	diastole	11	B	500	systole
1084.6408000000001	0.1081320660887286	82	diastole	12	B	500	systole
1085.3228	0.1081320660887286	82	diastole	13	B	500	systole
1088.3323999999998	0.0887508719461038	83	systole	1	B	500	systole
1089.0007	0.0887508719461038	83	systole	2	B	500	systole
1089.6691999999998	0.0887508719461038	83	systole	3	B	500	systole
1090.3233999999998	0.0887508719461038	83	systole	4	B	500	systole
1090.9632000000001	0.0887508719461038	83	systole	5	B	500	systole
1091.5874	0.0887508719461038	83	systole	6	B	500	systole
1092.2015999999999	0.0887508719461038	83	systole	7	B	500	systole
1092.8258	0.0887508719461038	83	systole	8	B	500	systole
1093.4281	0.0887508719461038	83	systole	9	B	500	systole
1094.0479999999998	0.0887508719461038	83	systole	10	B	500	systole
1094.6603999999998	0.0887508719461038	83	systole	11	B	500	systole
1095.3006	0.0887508719461038	83	systole	12	B	500	systole
1095.9604	0.0887508719461038	83	systole	13	B	500	systole
1096.6104	0.0887508719461038	83	systole	14	B	500	systole
1097.2604000000001	0.0887508719461038	83	systole	15	B	500	systole
1097.9162999999999	0.0887508719461038	83	systole	16	B	500	systole
1102.2696	0.0818691210006363	84	diastole	1	B	500	systole
1103.0196	0.0818691210006363	84	diastole	2	B	500	systole
1103.7696	0.0818691210006363	84	diastole	3	B	500	systole
1104.5079999999998	0.0818691210006363	84	diastole	4	B	500	systole
1105.2433999999998	0.0818691210006363	84	diastole	5	B	500	systole
1106.0084000000002	0.0818691210006363	84	diastole	6	B	500	systole
1106.7730999999999	0.0818691210006363	84	diastole	7	B	500	systole
1107.5616	0.0818691210006363	84	diastole	8	B	500	systole
1108.3514999999998	0.0818691210006363	84	diastole	9	B	500	systole
1109.1616	0.0818691210006363	84	diastole	10	B	500	systole
1109.9795	0.0818691210006363	84	diastole	11	B	500	systole
1110.8233999999998	0.0818691210006363	84	diastole	12	B	500	systole
1114.6752999999999	0.0993984898086637	85	diastole	1	B	500	systole
1115.3656999999998	0.0993984898086637	85	diastole	2	B	500	systole
1116.0756999999999	0.0993984898086637	85	diastole	3	B	500	systole
1116.7658000000001	0.0993984898086637	85	diastole	4	B	500	systole
1117.4254	0.0993984898086637	85	diastole	5	B	500	systole
1118.0068	0.0993984898086637	85	diastole	6	B	500	systole
1118.7138	0.0993984898086637	85	diastole	7	B	500	systole
1119.4539	0.0993984898086637	85	diastole	8	B	500	systole
1120.2339000000002	0.0993984898086637	85	diastole	9	B	500	systole
1121.0537	0.0993984898086637	85	diastole	10	B	500	systole
1121.8485	0.0993984898086637	85	diastole	11	B	500	systole
1122.6884999999997	0.0993984898086637	85	diastole	12	B	500	systole
1123.4789	0.0993984898086637	85	diastole	13	B	500	systole
1126.9342000000001	0.097500889969524	86	systole	1	B	500	systole
1127.6082000000001	0.097500889969524	86	systole	2	B	500	systole
1128.2797	0.097500889969524	86	systole	3	B	500	systole
1128.9207999999999	0.097500889969524	86	systole	4	B	500	systole
1129.5799000000002	0.097500889969524	86	systole	5	B	500	systole
1130.2224999999999	0.097500889969524	86	systole	6	B	500	systole
1130.8826	0.097500889969524	86	systole	7	B	500	systole
1131.5709000000002	0.097500889969524	86	systole	8	B	500	systole
1132.2707999999998	0.097500889969524	86	systole	9	B	500	systole
1132.9991	0.097500889969524	86	systole	10	B	500	systole
1133.7275	0.097500889969524	86	systole	11	B	500	systole
1134.4876	0.097500889969524	86	systole	12	B	500	systole
1135.286	0.097500889969524	86	systole	13	B	500	systole
1136.0659999999998	0.097500889969524	86	systole	14	B	500	systole
1139.4533999999999	0.0925105439964681	87	diastole	1	B	500	systole
1140.1734000000001	0.0925105439964681	87	diastole	2	B	500	systole
1140.8849999999998	0.0925105439964681	87	diastole	3	B	500	systole
1141.6050999999998	0.0925105439964681	87	diastole	4	B	500	systole
1142.2883000000002	0.0925105439964681	87	diastole	5	B	500	systole
1143.0283	0.0925105439964681	87	diastole	6	B	500	systole
1143.7883000000002	0.0925105439964681	87	diastole	7	B	500	systole
1144.5484000000001	0.0925105439964681	87	diastole	8	B	500	systole
1145.3368	0.0925105439964681	87	diastole	9	B	500	systole
1146.1167	0.0925105439964681	87	diastole	10	B	500	systole
1146.8968	0.0925105439964681	87	diastole	11	B	500	systole
1147.6900999999998	0.0925105439964681	87	diastole	12	B	500	systole
1148.4501999999998	0.0925105439964681	87	diastole	13	B	500	systole
1152.2199	0.0899956002831459	88	systole	1	B	500	systole
1152.904	0.0899956002831459	88	systole	2	B	500	systole
1153.5938	0.0899956002831459	88	systole	3	B	500	systole
1154.2464	0.0899956002831459	88	systole	4	B	500	systole
1154.9164	0.0899956002831459	88	systole	5	B	500	systole
1155.5864000000001	0.0899956002831459	88	systole	6	B	500	systole
1156.2482999999997	0.0899956002831459	88	systole	7	B	500	systole
1156.9685	0.0899956002831459	88	systole	8	B	500	systole
1157.6888	0.0899956002831459	88	systole	9	B	500	systole
1158.4092	0.0899956002831459	88	systole	10	B	500	systole
1159.2349	0.0899956002831459	88	systole	11	B	500	systole
1160.0850999999998	0.0899956002831459	88	systole	12	B	500	systole
1160.9658	0.0899956002831459	88	systole	13	B	500	systole
1161.7806	0.0899956002831459	88	systole	14	B	500	systole
1165.2448	0.0962239903165027	89	diastole	1	B	500	systole
1165.9409999999998	0.0962239903165027	89	diastole	2	B	500	systole
1166.6707999999999	0.0962239903165027	89	diastole	3	B	500	systole
1167.3640999999998	0.0962239903165027	89	diastole	4	B	500	systole
1168.0742	0.0962239903165027	89	diastole	5	B	500	systole
1168.7680999999998	0.0962239903165027	89	diastole	6	B	500	systole
1169.4782	0.0962239903165027	89	diastole	7	B	500	systole
1170.15	0.0962239903165027	89	diastole	8	B	500	systole
1170.8018000000002	0.0962239903165027	89	diastole	9	B	500	systole
1171.4429999999998	0.0962239903165027	89	diastole	10	B	500	systole
1172.0647	0.0962239903165027	89	diastole	11	B	500	systole
1172.6695	0.0962239903165027	89	diastole	12	B	500	systole
1173.3559999999998	0.0962239903165027	89	diastole	13	B	500	systole
1176.5852	0.0862628584145568	90	systole	1	B	500	systole
1177.4256999999998	0.0862628584145568	90	systole	2	B	500	systole
1178.2873	0.0862628584145568	90	systole	3	B	500	systole
1179.0967999999998	0.0862628584145568	90	systole	4	B	500	systole
1179.8173000000002	0.0862628584145568	90	systole	5	B	500	systole
1180.5668999999998	0.0862628584145568	90	systole	6	B	500	systole
1181.3365	0.0862628584145568	90	systole	7	B	500	systole
1182.1061	0.0862628584145568	90	systole	8	B	500	systole
1182.9175999999998	0.0862628584145568	90	systole	9	B	500	systole
1183.7576	0.0862628584145568	90	systole	10	B	500	systole
1184.6176	0.0862628584145568	90	systole	11	B	500	systole
1185.4976000000001	0.0862628584145568	90	systole	12	B	500	systole
1186.3775999999998	0.0862628584145568	90	systole	13	B	500	systole
1196.7932	0.0862369776004925	91	systole	1	B	500	systole
1197.4731000000002	0.0862369776004925	91	systole	2	B	500	systole
1198.1531	0.0862369776004925	91	systole	3	B	500	systole
1198.8231	0.0862369776004925	91	systole	4	B	500	systole
1199.473	0.0862369776004925	91	systole	5	B	500	systole
1200.123	0.0862369776004925	91	systole	6	B	500	systole
1200.8474	0.0862369776004925	91	systole	7	B	500	systole
1201.6073999999999	0.0862369776004925	91	systole	8	B	500	systole
1202.4072999999999	0.0862369776004925	91	systole	9	B	500	systole
1203.2073	0.0862369776004925	91	systole	10	B	500	systole
1204.0522999999998	0.0862369776004925	91	systole	11	B	500	systole
1204.8622999999998	0.0862369776004925	91	systole	12	B	500	systole
1205.7291	0.0862369776004925	91	systole	13	B	500	systole
1209.8314999999998	0.1006198181421496	92	diastole	1	B	500	systole
1210.4416	0.1006198181421496	92	diastole	2	B	500	systole
1211.1016	0.1006198181421496	92	diastole	3	B	500	systole
1211.6599	0.1006198181421496	92	diastole	4	B	500	systole
1212.2682	0.1006198181421496	92	diastole	5	B	500	systole
1213.0084000000002	0.1006198181421496	92	diastole	6	B	500	systole
1213.8283999999999	0.1006198181421496	92	diastole	7	B	500	systole
1214.6882999999998	0.1006198181421496	92	diastole	8	B	500	systole
1215.5668	0.1006198181421496	92	diastole	9	B	500	systole
1216.4369000000002	0.1006198181421496	92	diastole	10	B	500	systole
1217.4506000000001	0.1006198181421496	92	diastole	11	B	500	systole
1218.3309	0.1006198181421496	92	diastole	12	B	500	systole
1222.5630999999998	0.1075071436935104	93	diastole	1	B	500	diastole
1223.3072000000002	0.1075071436935104	93	diastole	2	B	500	diastole
1224.0592000000001	0.1075071436935104	93	diastole	3	B	500	diastole
1224.7617	0.1075071436935104	93	diastole	4	B	500	diastole
1225.426	0.1075071436935104	93	diastole	5	B	500	diastole
1226.1664999999998	0.1075071436935104	93	diastole	6	B	500	diastole
1226.9866000000002	0.1075071436935104	93	diastole	7	B	500	diastole
1227.8067	0.1075071436935104	93	diastole	8	B	500	diastole
1228.6367	0.1075071436935104	93	diastole	9	B	500	diastole
1229.4667	0.1075071436935104	93	diastole	10	B	500	diastole
1230.3321	0.1075071436935104	93	diastole	11	B	500	diastole
1231.1754999999998	0.1075071436935104	93	diastole	12	B	500	diastole
1235.3072000000002	0.0999946301453746	94	systole	1	B	500	systole
1236.0371999999998	0.0999946301453746	94	systole	2	B	500	systole
1236.7498999999998	0.0999946301453746	94	systole	3	B	500	systole
1237.4032000000002	0.0999946301453746	94	systole	4	B	500	systole
1238.0814999999998	0.0999946301453746	94	systole	5	B	500	systole
1238.7712999999999	0.0999946301453746	94	systole	6	B	500	systole
1239.4814000000001	0.0999946301453746	94	systole	7	B	500	systole
1240.2217	0.0999946301453746	94	systole	8	B	500	systole
1240.9913999999999	0.0999946301453746	94	systole	9	B	500	systole
1241.8019	0.0999946301453746	94	systole	10	B	500	systole
1242.6124	0.0999946301453746	94	systole	11	B	500	systole
1243.3960000000002	0.0999946301453746	94	systole	12	B	500	systole
1244.1515	0.0999946301453746	94	systole	13	B	500	systole
1244.9013	0.0999946301453746	94	systole	14	B	500	systole
1248.833	0.0931244476814754	95	diastole	1	B	500	systole
1249.5131000000001	0.0931244476814754	95	diastole	2	B	500	systole
1250.1495	0.0931244476814754	95	diastole	3	B	500	systole
1250.7331	0.0931244476814754	95	diastole	4	B	500	systole
1251.3829999999998	0.0931244476814754	95	diastole	5	B	500	systole
1252.0529000000001	0.0931244476814754	95	diastole	6	B	500	systole
1252.7529	0.0931244476814754	95	diastole	7	B	500	systole
1253.4929000000002	0.0931244476814754	95	diastole	8	B	500	systole
1254.2329	0.0931244476814754	95	diastole	9	B	500	systole
1255.0194000000001	0.0931244476814754	95	diastole	10	B	500	systole
1255.8193999999999	0.0931244476814754	95	diastole	11	B	500	systole
1256.6129999999998	0.0931244476814754	95	diastole	12	B	500	systole
1257.3914	0.0931244476814754	95	diastole	13	B	500	systole
1258.1783	0.0931244476814754	95	diastole	14	B	500	systole
1262.2392	0.0937474375241436	96	systole	1	B	500	systole
1262.9175	0.0937474375241436	96	systole	2	B	500	systole
1263.6255	0.0937474375241436	96	systole	3	B	500	systole
1264.3555000000001	0.0937474375241436	96	systole	4	B	500	systole
1265.1259	0.0937474375241436	96	systole	5	B	500	systole
1265.9261000000001	0.0937474375241436	96	systole	6	B	500	systole
1266.7019	0.0937474375241436	96	systole	7	B	500	systole
1267.4719	0.0937474375241436	96	systole	8	B	500	systole
1268.2576	0.0937474375241436	96	systole	9	B	500	systole
1269.0375	0.0937474375241436	96	systole	10	B	500	systole
1269.835	0.0937474375241436	96	systole	11	B	500	systole
1270.6122999999998	0.0937474375241436	96	systole	12	B	500	systole
1271.3521999999998	0.0937474375241436	96	systole	13	B	500	systole
1274.3602999999998	0.0912520124693401	97	diastole	1	B	500	diastole
1275.0803999999998	0.0912520124693401	97	diastole	2	B	500	diastole
1275.8204	0.0912520124693401	97	diastole	3	B	500	diastole
1276.5403999999999	0.0912520124693401	97	diastole	4	B	500	diastole
1277.2801	0.0912520124693401	97	diastole	5	B	500	diastole
1278.0198999999998	0.0912520124693401	97	diastole	6	B	500	diastole
1278.7698999999998	0.0912520124693401	97	diastole	7	B	500	diastole
1279.5198999999998	0.0912520124693401	97	diastole	8	B	500	diastole
1280.2865000000002	0.0912520124693401	97	diastole	9	B	500	diastole
1281.063	0.0912520124693401	97	diastole	10	B	500	diastole
1281.8215999999998	0.0912520124693401	97	diastole	11	B	500	diastole
1282.5996999999998	0.0912520124693401	97	diastole	12	B	500	diastole
1283.3697000000002	0.0912520124693401	97	diastole	13	B	500	diastole
1287.1385	0.0949906985624693	98	diastole	1	B	500	diastole
1287.8483999999999	0.0949906985624693	98	diastole	2	B	500	diastole
1288.5583000000001	0.0949906985624693	98	diastole	3	B	500	diastole
1289.2799999999997	0.0949906985624693	98	diastole	4	B	500	diastole
1290.0002	0.0949906985624693	98	diastole	5	B	500	diastole
1290.7136999999998	0.0949906985624693	98	diastole	6	B	500	diastole
1291.4438	0.0949906985624693	98	diastole	7	B	500	diastole
1292.167	0.0949906985624693	98	diastole	8	B	500	diastole
1292.9386	0.0949906985624693	98	diastole	9	B	500	diastole
1293.7102	0.0949906985624693	98	diastole	10	B	500	diastole
1294.4886999999999	0.0949906985624693	98	diastole	11	B	500	diastole
1295.3118	0.0949906985624693	98	diastole	12	B	500	diastole
1299.0575	0.0993733001523651	99	systole	1	B	500	systole
1299.7776	0.0993733001523651	99	systole	2	B	500	systole
1300.4975	0.0993733001523651	99	systole	3	B	500	systole
1301.1725000000001	0.0993733001523651	99	systole	4	B	500	systole
1301.8835	0.0993733001523651	99	systole	5	B	500	systole
1302.6535	0.0993733001523651	99	systole	6	B	500	systole
1303.4234999999999	0.0993733001523651	99	systole	7	B	500	systole
1304.2433999999998	0.0993733001523651	99	systole	8	B	500	systole
1305.0434	0.0993733001523651	99	systole	9	B	500	systole
1305.8433999999997	0.0993733001523651	99	systole	10	B	500	systole
1306.7159000000001	0.0993733001523651	99	systole	11	B	500	systole
1307.536	0.0993733001523651	99	systole	12	B	500	systole
1308.3352	0.0993733001523651	99	systole	13	B	500	systole
1312.8183	0.0968732126639224	100	systole	1	B	500	systole
1313.5184	0.0968732126639224	100	systole	2	B	500	systole
1314.2183999999997	0.0968732126639224	100	systole	3	B	500	systole
1314.9184	0.0968732126639224	100	systole	4	B	500	systole
1315.5641999999998	0.0968732126639224	100	systole	5	B	500	systole
1316.3446	0.0968732126639224	100	systole	6	B	500	systole
1317.1248999999998	0.0968732126639224	100	systole	7	B	500	systole
1317.895	0.0968732126639224	100	systole	8	B	500	systole
1318.7381	0.0968732126639224	100	systole	9	B	500	systole
1319.558	0.0968732126639224	100	systole	10	B	500	systole
1320.3530999999998	0.0968732126639224	100	systole	11	B	500	systole
1321.1131	0.0968732126639224	100	systole	12	B	500	systole
1321.8730999999998	0.0968732126639224	100	systole	13	B	500	systole
