onset	duration	trial_num	trial_type	tone_num	tone_type	frequency	response
228.3601	0.0799991562962532	1	diastole	1	A	1578.5670027440333	coherent
228.5178	0.0799991562962532	1	diastole	2	B	500.0	coherent
228.6751	0.0799991562962532	1	diastole	3	A	1578.5670027440333	coherent
229.0002	0.0799991562962532	1	diastole	4	A	1578.5670027440333	coherent
229.1578	0.0799991562962532	1	diastole	5	B	500.0	coherent
229.3152	0.0799991562962532	1	diastole	6	A	1578.5670027440333	coherent
229.6402	0.0799991562962532	1	diastole	7	A	1578.5670027440333	coherent
229.7978	0.0799991562962532	1	diastole	8	B	500.0	coherent
229.9552	0.0799991562962532	1	diastole	9	A	1578.5670027440333	coherent
230.2802	0.0799991562962532	1	diastole	10	A	1578.5670027440333	coherent
230.4378	0.0799991562962532	1	diastole	11	B	500.0	coherent
230.5952	0.0799991562962532	1	diastole	12	A	1578.5670027440333	coherent
230.9202	0.0799991562962532	1	diastole	13	A	1578.5670027440333	coherent
231.0778	0.0799991562962532	1	diastole	14	B	500.0	coherent
231.2352	0.0799991562962532	1	diastole	15	A	1578.5670027440333	coherent
231.5601	0.0799991562962532	1	diastole	16	A	1578.5670027440333	coherent
231.7177	0.0799991562962532	1	diastole	17	B	500.0	coherent
231.8751	0.0799991562962532	1	diastole	18	A	1578.5670027440333	coherent
232.1901	0.0799991562962532	1	diastole	19	A	1578.5670027440333	coherent
232.3477	0.0799991562962532	1	diastole	20	B	500.0	coherent
232.5051	0.0799991562962532	1	diastole	21	A	1578.5670027440333	coherent
232.8101	0.0799991562962532	1	diastole	22	A	1578.5670027440333	coherent
232.9677	0.0799991562962532	1	diastole	23	B	500.0	coherent
233.1251	0.0799991562962532	1	diastole	24	A	1578.5670027440333	coherent
233.4301	0.0799991562962532	1	diastole	25	A	1578.5670027440333	coherent
233.5877	0.0799991562962532	1	diastole	26	B	500.0	coherent
233.7451	0.0799991562962532	1	diastole	27	A	1578.5670027440333	coherent
234.0301	0.0799991562962532	1	diastole	28	A	1578.5670027440333	coherent
234.1877	0.0799991562962532	1	diastole	29	B	500.0	coherent
234.3451	0.0799991562962532	1	diastole	30	A	1578.5670027440333	coherent
234.6301	0.0799991562962532	1	diastole	31	A	1578.5670027440333	coherent
234.7877	0.0799991562962532	1	diastole	32	B	500.0	coherent
234.9451	0.0799991562962532	1	diastole	33	A	1578.5670027440333	coherent
235.233	0.0799991562962532	1	diastole	34	A	1578.5670027440333	coherent
235.3893	0.0799991562962532	1	diastole	35	B	500.0	coherent
235.5455	0.0799991562962532	1	diastole	36	A	1578.5670027440333	coherent
235.843	0.0799991562962532	1	diastole	37	A	1578.5670027440333	coherent
235.9993	0.0799991562962532	1	diastole	38	B	500.0	coherent
236.1555	0.0799991562962532	1	diastole	39	A	1578.5670027440333	coherent
236.4118	0.0799991562962532	1	diastole	40	A	1578.5670027440333	coherent
236.5644	0.0799991562962532	1	diastole	41	B	500.0	coherent
236.7168	0.0799991562962532	1	diastole	42	A	1578.5670027440333	coherent
237.0017	0.0799991562962532	1	diastole	43	A	1578.5670027440333	coherent
237.1543	0.0799991562962532	1	diastole	44	B	500.0	coherent
237.3067	0.0799991562962532	1	diastole	45	A	1578.5670027440333	coherent
249.6384	0.0737544971634633	2	systole	1	A	1578.5670027440333	coherent
249.786	0.0737544971634633	2	systole	2	B	500.0	coherent
249.9334	0.0737544971634633	2	systole	3	A	1578.5670027440333	coherent
250.2283	0.0737544971634633	2	systole	4	A	1578.5670027440333	coherent
250.3759	0.0737544971634633	2	systole	5	B	500.0	coherent
250.5233	0.0737544971634633	2	systole	6	A	1578.5670027440333	coherent
250.8188	0.0737544971634633	2	systole	7	A	1578.5670027440333	coherent
250.9665	0.0737544971634633	2	systole	8	B	500.0	coherent
251.114	0.0737544971634633	2	systole	9	A	1578.5670027440333	coherent
251.4089	0.0737544971634633	2	systole	10	A	1578.5670027440333	coherent
251.5565	0.0737544971634633	2	systole	11	B	500.0	coherent
251.704	0.0737544971634633	2	systole	12	A	1578.5670027440333	coherent
251.9986	0.0737544971634633	2	systole	13	A	1578.5670027440333	coherent
252.1463	0.0737544971634633	2	systole	14	B	500.0	coherent
252.2937	0.0737544971634633	2	systole	15	A	1578.5670027440333	coherent
252.5886	0.0737544971634633	2	systole	16	A	1578.5670027440333	coherent
252.7362	0.0737544971634633	2	systole	17	B	500.0	coherent
252.8836	0.0737544971634633	2	systole	18	A	1578.5670027440333	coherent
253.1686	0.0737544971634633	2	systole	19	A	1578.5670027440333	coherent
253.3162	0.0737544971634633	2	systole	20	B	500.0	coherent
253.4636	0.0737544971634633	2	systole	21	A	1578.5670027440333	coherent
253.7485	0.0737544971634633	2	systole	22	A	1578.5670027440333	coherent
253.8961	0.0737544971634633	2	systole	23	B	500.0	coherent
254.0435	0.0737544971634633	2	systole	24	A	1578.5670027440333	coherent
254.3285	0.0737544971634633	2	systole	25	A	1578.5670027440333	coherent
254.4761	0.0737544971634633	2	systole	26	B	500.0	coherent
254.6235	0.0737544971634633	2	systole	27	A	1578.5670027440333	coherent
254.9185	0.0737544971634633	2	systole	28	A	1578.5670027440333	coherent
255.0661	0.0737544971634633	2	systole	29	B	500.0	coherent
255.2135	0.0737544971634633	2	systole	30	A	1578.5670027440333	coherent
255.5085	0.0737544971634633	2	systole	31	A	1578.5670027440333	coherent
255.6561	0.0737544971634633	2	systole	32	B	500.0	coherent
255.8035	0.0737544971634633	2	systole	33	A	1578.5670027440333	coherent
256.0985	0.0737544971634633	2	systole	34	A	1578.5670027440333	coherent
256.2462	0.0737544971634633	2	systole	35	B	500.0	coherent
256.3935	0.0737544971634633	2	systole	36	A	1578.5670027440333	coherent
256.6986	0.0737544971634633	2	systole	37	A	1578.5670027440333	coherent
256.8462	0.0737544971634633	2	systole	38	B	500.0	coherent
256.9936	0.0737544971634633	2	systole	39	A	1578.5670027440333	coherent
257.2986	0.0737544971634633	2	systole	40	A	1578.5670027440333	coherent
257.4462	0.0737544971634633	2	systole	41	B	500.0	coherent
257.5936	0.0737544971634633	2	systole	42	A	1578.5670027440333	coherent
257.8986	0.0737544971634633	2	systole	43	A	1578.5670027440333	coherent
258.0462	0.0737544971634633	2	systole	44	B	500.0	coherent
258.1936	0.0737544971634633	2	systole	45	A	1578.5670027440333	coherent
258.5132	0.0737544971634633	2	systole	46	A	1578.5670027440333	coherent
258.662	0.0737544971634633	2	systole	47	B	500.0	coherent
258.8107	0.0737544971634633	2	systole	48	A	1578.5670027440333	coherent
259.1232	0.0737544971634633	2	systole	49	A	1578.5670027440333	coherent
259.2721	0.0737544971634633	2	systole	50	B	500.0	coherent
259.4207	0.0737544971634633	2	systole	51	A	1578.5670027440333	coherent
269.3791	0.0768985435133799	3	diastole	1	A	2180.0224995339627	streaming
269.5333	0.0768985435133799	3	diastole	2	B	500.0	streaming
269.6867	0.0768985435133799	3	diastole	3	A	2180.0224995339627	streaming
270.0059	0.0768985435133799	3	diastole	4	A	2180.0224995339627	streaming
270.1613	0.0768985435133799	3	diastole	5	B	500.0	streaming
270.3159	0.0768985435133799	3	diastole	6	A	2180.0224995339627	streaming
270.6259	0.0768985435133799	3	diastole	7	A	2180.0224995339627	streaming
270.7813	0.0768985435133799	3	diastole	8	B	500.0	streaming
270.9359	0.0768985435133799	3	diastole	9	A	2180.0224995339627	streaming
271.286	0.0768985435133799	3	diastole	10	A	2180.0224995339627	streaming
271.4413	0.0768985435133799	3	diastole	11	B	500.0	streaming
271.596	0.0768985435133799	3	diastole	12	A	2180.0224995339627	streaming
271.923	0.0768985435133799	3	diastole	13	A	2180.0224995339627	streaming
272.0796	0.0768985435133799	3	diastole	14	B	500.0	streaming
272.2355	0.0768985435133799	3	diastole	15	A	2180.0224995339627	streaming
272.553	0.0768985435133799	3	diastole	16	A	2180.0224995339627	streaming
272.7097	0.0768985435133799	3	diastole	17	B	500.0	streaming
272.8656	0.0768985435133799	3	diastole	18	A	2180.0224995339627	streaming
273.1726	0.0768985435133799	3	diastole	19	A	2180.0224995339627	streaming
273.3292	0.0768985435133799	3	diastole	20	B	500.0	streaming
273.4851	0.0768985435133799	3	diastole	21	A	2180.0224995339627	streaming
273.7922	0.0768985435133799	3	diastole	22	A	2180.0224995339627	streaming
273.9488	0.0768985435133799	3	diastole	23	B	500.0	streaming
274.1047	0.0768985435133799	3	diastole	24	A	2180.0224995339627	streaming
274.4118	0.0768985435133799	3	diastole	25	A	2180.0224995339627	streaming
274.5684	0.0768985435133799	3	diastole	26	B	500.0	streaming
274.7243	0.0768985435133799	3	diastole	27	A	2180.0224995339627	streaming
275.0493	0.0768985435133799	3	diastole	28	A	2180.0224995339627	streaming
275.2072	0.0768985435133799	3	diastole	29	B	500.0	streaming
275.3644	0.0768985435133799	3	diastole	30	A	2180.0224995339627	streaming
275.6796	0.0768985435133799	3	diastole	31	A	2180.0224995339627	streaming
275.8375	0.0768985435133799	3	diastole	32	B	500.0	streaming
275.9947	0.0768985435133799	3	diastole	33	A	2180.0224995339627	streaming
276.3096	0.0768985435133799	3	diastole	34	A	2180.0224995339627	streaming
276.4675	0.0768985435133799	3	diastole	35	B	500.0	streaming
276.6247	0.0768985435133799	3	diastole	36	A	2180.0224995339627	streaming
276.9796	0.0768985435133799	3	diastole	37	A	2180.0224995339627	streaming
277.1375	0.0768985435133799	3	diastole	38	B	500.0	streaming
277.2947	0.0768985435133799	3	diastole	39	A	2180.0224995339627	streaming
277.6296	0.0768985435133799	3	diastole	40	A	2180.0224995339627	streaming
277.7875	0.0768985435133799	3	diastole	41	B	500.0	streaming
277.9447	0.0768985435133799	3	diastole	42	A	2180.0224995339627	streaming
278.2596	0.0768985435133799	3	diastole	43	A	2180.0224995339627	streaming
278.4175	0.0768985435133799	3	diastole	44	B	500.0	streaming
278.5746	0.0768985435133799	3	diastole	45	A	2180.0224995339627	streaming
282.5733	0.0812456593266688	4	systole	1	A	2180.0224995339627	streaming
282.7361	0.0812456593266688	4	systole	2	B	500.0	streaming
282.8982	0.0812456593266688	4	systole	3	A	2180.0224995339627	streaming
283.2133	0.0812456593266688	4	systole	4	A	2180.0224995339627	streaming
283.3761	0.0812456593266688	4	systole	5	B	500.0	streaming
283.5383	0.0812456593266688	4	systole	6	A	2180.0224995339627	streaming
283.8387	0.0812456593266688	4	systole	7	A	2180.0224995339627	streaming
284.0003	0.0812456593266688	4	systole	8	B	500.0	streaming
284.1612	0.0812456593266688	4	systole	9	A	2180.0224995339627	streaming
284.4639	0.0812456593266688	4	systole	10	A	2180.0224995339627	streaming
284.6243	0.0812456593266688	4	systole	11	B	500.0	streaming
284.784	0.0812456593266688	4	systole	12	A	2180.0224995339627	streaming
285.074	0.0812456593266688	4	systole	13	A	2180.0224995339627	streaming
285.2343	0.0812456593266688	4	systole	14	B	500.0	streaming
285.394	0.0812456593266688	4	systole	15	A	2180.0224995339627	streaming
285.6994	0.0812456593266688	4	systole	16	A	2180.0224995339627	streaming
285.8585	0.0812456593266688	4	systole	17	B	500.0	streaming
286.0169	0.0812456593266688	4	systole	18	A	2180.0224995339627	streaming
286.3692	0.0812456593266688	4	systole	19	A	2180.0224995339627	streaming
286.5283	0.0812456593266688	4	systole	20	B	500.0	streaming
286.6867	0.0812456593266688	4	systole	21	A	2180.0224995339627	streaming
287.039	0.0812456593266688	4	systole	22	A	2180.0224995339627	streaming
287.1981	0.0812456593266688	4	systole	23	B	500.0	streaming
287.3565	0.0812456593266688	4	systole	24	A	2180.0224995339627	streaming
287.679	0.0812456593266688	4	systole	25	A	2180.0224995339627	streaming
287.8382	0.0812456593266688	4	systole	26	B	500.0	streaming
287.9965	0.0812456593266688	4	systole	27	A	2180.0224995339627	streaming
288.319	0.0812456593266688	4	systole	28	A	2180.0224995339627	streaming
288.4782	0.0812456593266688	4	systole	29	B	500.0	streaming
288.6366	0.0812456593266688	4	systole	30	A	2180.0224995339627	streaming
288.959	0.0812456593266688	4	systole	31	A	2180.0224995339627	streaming
289.1181	0.0812456593266688	4	systole	32	B	500.0	streaming
289.2765	0.0812456593266688	4	systole	33	A	2180.0224995339627	streaming
289.599	0.0812456593266688	4	systole	34	A	2180.0224995339627	streaming
289.7581	0.0812456593266688	4	systole	35	B	500.0	streaming
289.9165	0.0812456593266688	4	systole	36	A	2180.0224995339627	streaming
290.2636	0.0812456593266688	4	systole	37	A	2180.0224995339627	streaming
290.4239	0.0812456593266688	4	systole	38	B	500.0	streaming
290.5836	0.0812456593266688	4	systole	39	A	2180.0224995339627	streaming
290.9036	0.0812456593266688	4	systole	40	A	2180.0224995339627	streaming
291.064	0.0812456593266688	4	systole	41	B	500.0	streaming
291.2236	0.0812456593266688	4	systole	42	A	2180.0224995339627	streaming
291.5336	0.0812456593266688	4	systole	43	A	2180.0224995339627	streaming
291.694	0.0812456593266688	4	systole	44	B	500.0	streaming
291.8537	0.0812456593266688	4	systole	45	A	2180.0224995339627	streaming
292.1637	0.0812456593266688	4	systole	46	A	2180.0224995339627	streaming
292.3241	0.0812456593266688	4	systole	47	B	500.0	streaming
292.4837	0.0812456593266688	4	systole	48	A	2180.0224995339627	streaming
295.3749	0.078754793445114	5	systole	1	A	1253.4921645871675	streaming
295.5329	0.078754793445114	5	systole	2	B	500.0	streaming
295.6899	0.078754793445114	5	systole	3	A	1253.4921645871675	streaming
296.0048	0.078754793445114	5	systole	4	A	1253.4921645871675	streaming
296.1628	0.078754793445114	5	systole	5	B	500.0	streaming
296.3198	0.078754793445114	5	systole	6	A	1253.4921645871675	streaming
296.6448	0.078754793445114	5	systole	7	A	1253.4921645871675	streaming
296.8028	0.078754793445114	5	systole	8	B	500.0	streaming
296.9598	0.078754793445114	5	systole	9	A	1253.4921645871675	streaming
297.3095	0.078754793445114	5	systole	10	A	1253.4921645871675	streaming
297.4687	0.078754793445114	5	systole	11	B	500.0	streaming
297.627	0.078754793445114	5	systole	12	A	1253.4921645871675	streaming
297.9695	0.078754793445114	5	systole	13	A	1253.4921645871675	streaming
298.1288	0.078754793445114	5	systole	14	B	500.0	streaming
298.287	0.078754793445114	5	systole	15	A	1253.4921645871675	streaming
298.6138	0.078754793445114	5	systole	16	A	1253.4921645871675	streaming
298.7743	0.078754793445114	5	systole	17	B	500.0	streaming
298.9338	0.078754793445114	5	systole	18	A	1253.4921645871675	streaming
299.2438	0.078754793445114	5	systole	19	A	1253.4921645871675	streaming
299.4043	0.078754793445114	5	systole	20	B	500.0	streaming
299.5638	0.078754793445114	5	systole	21	A	1253.4921645871675	streaming
299.8739	0.078754793445114	5	systole	22	A	1253.4921645871675	streaming
300.0343	0.078754793445114	5	systole	23	B	500.0	streaming
300.1938	0.078754793445114	5	systole	24	A	1253.4921645871675	streaming
300.514	0.078754793445114	5	systole	25	A	1253.4921645871675	streaming
300.6745	0.078754793445114	5	systole	26	B	500.0	streaming
300.834	0.078754793445114	5	systole	27	A	1253.4921645871675	streaming
301.1786	0.078754793445114	5	systole	28	A	1253.4921645871675	streaming
301.3404	0.078754793445114	5	systole	29	B	500.0	streaming
301.5011	0.078754793445114	5	systole	30	A	1253.4921645871675	streaming
301.8044	0.078754793445114	5	systole	31	A	1253.4921645871675	streaming
301.9649	0.078754793445114	5	systole	32	B	500.0	streaming
302.1243	0.078754793445114	5	systole	33	A	1253.4921645871675	streaming
302.4645	0.078754793445114	5	systole	34	A	1253.4921645871675	streaming
302.625	0.078754793445114	5	systole	35	B	500.0	streaming
302.7845	0.078754793445114	5	systole	36	A	1253.4921645871675	streaming
303.1245	0.078754793445114	5	systole	37	A	1253.4921645871675	streaming
303.285	0.078754793445114	5	systole	38	B	500.0	streaming
303.4445	0.078754793445114	5	systole	39	A	1253.4921645871675	streaming
303.8191	0.078754793445114	5	systole	40	A	1253.4921645871675	streaming
303.9808	0.078754793445114	5	systole	41	B	500.0	streaming
304.1416	0.078754793445114	5	systole	42	A	1253.4921645871675	streaming
304.4545	0.078754793445114	5	systole	43	A	1253.4921645871675	streaming
304.615	0.078754793445114	5	systole	44	B	500.0	streaming
304.7745	0.078754793445114	5	systole	45	A	1253.4921645871675	streaming
305.084	0.078754793445114	5	systole	46	A	1253.4921645871675	streaming
305.2444	0.078754793445114	5	systole	47	B	500.0	streaming
305.4039	0.078754793445114	5	systole	48	A	1253.4921645871675	streaming
309.3509	0.0818524608039297	6	diastole	1	A	1253.4921645871675	coherent
309.5126	0.0818524608039297	6	diastole	2	B	500.0	coherent
309.6733	0.0818524608039297	6	diastole	3	A	1253.4921645871675	coherent
309.9909	0.0818524608039297	6	diastole	4	A	1253.4921645871675	coherent
310.1526	0.0818524608039297	6	diastole	5	B	500.0	coherent
310.3133	0.0818524608039297	6	diastole	6	A	1253.4921645871675	coherent
310.6309	0.0818524608039297	6	diastole	7	A	1253.4921645871675	coherent
310.7926	0.0818524608039297	6	diastole	8	B	500.0	coherent
310.9533	0.0818524608039297	6	diastole	9	A	1253.4921645871675	coherent
311.2708	0.0818524608039297	6	diastole	10	A	1253.4921645871675	coherent
311.4325	0.0818524608039297	6	diastole	11	B	500.0	coherent
311.5933	0.0818524608039297	6	diastole	12	A	1253.4921645871675	coherent
311.9108	0.0818524608039297	6	diastole	13	A	1253.4921645871675	coherent
312.0725	0.0818524608039297	6	diastole	14	B	500.0	coherent
312.2332	0.0818524608039297	6	diastole	15	A	1253.4921645871675	coherent
312.5678	0.0818524608039297	6	diastole	16	A	1253.4921645871675	coherent
312.7307	0.0818524608039297	6	diastole	17	B	500.0	coherent
312.8927	0.0818524608039297	6	diastole	18	A	1253.4921645871675	coherent
313.2009	0.0818524608039297	6	diastole	19	A	1253.4921645871675	coherent
313.3626	0.0818524608039297	6	diastole	20	B	500.0	coherent
313.5233	0.0818524608039297	6	diastole	21	A	1253.4921645871675	coherent
313.8242	0.0818524608039297	6	diastole	22	A	1253.4921645871675	coherent
313.9847	0.0818524608039297	6	diastole	23	B	500.0	coherent
314.1442	0.0818524608039297	6	diastole	24	A	1253.4921645871675	coherent
314.4542	0.0818524608039297	6	diastole	25	A	1253.4921645871675	coherent
314.6147	0.0818524608039297	6	diastole	26	B	500.0	coherent
314.7742	0.0818524608039297	6	diastole	27	A	1253.4921645871675	coherent
315.0941	0.0818524608039297	6	diastole	28	A	1253.4921645871675	coherent
315.2546	0.0818524608039297	6	diastole	29	B	500.0	coherent
315.4141	0.0818524608039297	6	diastole	30	A	1253.4921645871675	coherent
315.754	0.0818524608039297	6	diastole	31	A	1253.4921645871675	coherent
315.9145	0.0818524608039297	6	diastole	32	B	500.0	coherent
316.0741	0.0818524608039297	6	diastole	33	A	1253.4921645871675	coherent
316.394	0.0818524608039297	6	diastole	34	A	1253.4921645871675	coherent
316.5545	0.0818524608039297	6	diastole	35	B	500.0	coherent
316.714	0.0818524608039297	6	diastole	36	A	1253.4921645871675	coherent
317.044	0.0818524608039297	6	diastole	37	A	1253.4921645871675	coherent
317.2045	0.0818524608039297	6	diastole	38	B	500.0	coherent
317.3641	0.0818524608039297	6	diastole	39	A	1253.4921645871675	coherent
317.7011	0.0818524608039297	6	diastole	40	A	1253.4921645871675	coherent
317.8628	0.0818524608039297	6	diastole	41	B	500.0	coherent
318.0236	0.0818524608039297	6	diastole	42	A	1253.4921645871675	coherent
318.3681	0.0818524608039297	6	diastole	43	A	1253.4921645871675	coherent
318.5311	0.0818524608039297	6	diastole	44	B	500.0	coherent
318.6931	0.0818524608039297	6	diastole	45	A	1253.4921645871675	coherent
319.0009	0.0818524608039297	6	diastole	46	A	1253.4921645871675	coherent
319.1627	0.0818524608039297	6	diastole	47	B	500.0	coherent
319.3234	0.0818524608039297	6	diastole	48	A	1253.4921645871675	coherent
321.6183	0.0806245105341076	7	diastole	1	A	2621.646269519023	streaming
321.7813	0.0806245105341076	7	diastole	2	B	500.0	streaming
321.9433	0.0806245105341076	7	diastole	3	A	2621.646269519023	streaming
322.2684	0.0806245105341076	7	diastole	4	A	2621.646269519023	streaming
322.4314	0.0806245105341076	7	diastole	5	B	500.0	streaming
322.5934	0.0806245105341076	7	diastole	6	A	2621.646269519023	streaming
322.9201	0.0806245105341076	7	diastole	7	A	2621.646269519023	streaming
323.0831	0.0806245105341076	7	diastole	8	B	500.0	streaming
323.2451	0.0806245105341076	7	diastole	9	A	2621.646269519023	streaming
323.5414	0.0806245105341076	7	diastole	10	A	2621.646269519023	streaming
323.7031	0.0806245105341076	7	diastole	11	B	500.0	streaming
323.8639	0.0806245105341076	7	diastole	12	A	2621.646269519023	streaming
324.1658	0.0806245105341076	7	diastole	13	A	2621.646269519023	streaming
324.3262	0.0806245105341076	7	diastole	14	B	500.0	streaming
324.4858	0.0806245105341076	7	diastole	15	A	2621.646269519023	streaming
324.7974	0.0806245105341076	7	diastole	16	A	2621.646269519023	streaming
324.9578	0.0806245105341076	7	diastole	17	B	500.0	streaming
325.1174	0.0806245105341076	7	diastole	18	A	2621.646269519023	streaming
325.4646	0.0806245105341076	7	diastole	19	A	2621.646269519023	streaming
325.6263	0.0806245105341076	7	diastole	20	B	500.0	streaming
325.7871	0.0806245105341076	7	diastole	21	A	2621.646269519023	streaming
326.125	0.0806245105341076	7	diastole	22	A	2621.646269519023	streaming
326.2865	0.0806245105341076	7	diastole	23	B	500.0	streaming
326.4471	0.0806245105341076	7	diastole	24	A	2621.646269519023	streaming
326.7866	0.0806245105341076	7	diastole	25	A	2621.646269519023	streaming
326.9481	0.0806245105341076	7	diastole	26	B	500.0	streaming
327.1087	0.0806245105341076	7	diastole	27	A	2621.646269519023	streaming
327.4737	0.0806245105341076	7	diastole	28	A	2621.646269519023	streaming
327.6364	0.0806245105341076	7	diastole	29	B	500.0	streaming
327.7983	0.0806245105341076	7	diastole	30	A	2621.646269519023	streaming
328.1547	0.0806245105341076	7	diastole	31	A	2621.646269519023	streaming
328.3177	0.0806245105341076	7	diastole	32	B	500.0	streaming
328.4797	0.0806245105341076	7	diastole	33	A	2621.646269519023	streaming
328.8348	0.0806245105341076	7	diastole	34	A	2621.646269519023	streaming
328.9977	0.0806245105341076	7	diastole	35	B	500.0	streaming
329.1598	0.0806245105341076	7	diastole	36	A	2621.646269519023	streaming
329.5003	0.0806245105341076	7	diastole	37	A	2621.646269519023	streaming
329.6643	0.0806245105341076	7	diastole	38	B	500.0	streaming
329.8274	0.0806245105341076	7	diastole	39	A	2621.646269519023	streaming
330.1513	0.0806245105341076	7	diastole	40	A	2621.646269519023	streaming
330.3155	0.0806245105341076	7	diastole	41	B	500.0	streaming
330.4787	0.0806245105341076	7	diastole	42	A	2621.646269519023	streaming
330.8013	0.0806245105341076	7	diastole	43	A	2621.646269519023	streaming
330.9654	0.0806245105341076	7	diastole	44	B	500.0	streaming
331.1287	0.0806245105341076	7	diastole	45	A	2621.646269519023	streaming
336.8242	0.080627461138647	8	systole	1	A	2446.423693900757	streaming
336.9847	0.080627461138647	8	systole	2	B	500.0	streaming
337.1442	0.080627461138647	8	systole	3	A	2446.423693900757	streaming
337.4542	0.080627461138647	8	systole	4	A	2446.423693900757	streaming
337.6147	0.080627461138647	8	systole	5	B	500.0	streaming
337.7743	0.080627461138647	8	systole	6	A	2446.423693900757	streaming
338.0842	0.080627461138647	8	systole	7	A	2446.423693900757	streaming
338.2447	0.080627461138647	8	systole	8	B	500.0	streaming
338.4043	0.080627461138647	8	systole	9	A	2446.423693900757	streaming
338.7242	0.080627461138647	8	systole	10	A	2446.423693900757	streaming
338.8846	0.080627461138647	8	systole	11	B	500.0	streaming
339.0442	0.080627461138647	8	systole	12	A	2446.423693900757	streaming
339.3642	0.080627461138647	8	systole	13	A	2446.423693900757	streaming
339.5247	0.080627461138647	8	systole	14	B	500.0	streaming
339.6842	0.080627461138647	8	systole	15	A	2446.423693900757	streaming
340.0042	0.080627461138647	8	systole	16	A	2446.423693900757	streaming
340.1647	0.080627461138647	8	systole	17	B	500.0	streaming
340.3242	0.080627461138647	8	systole	18	A	2446.423693900757	streaming
340.6301	0.080627461138647	8	systole	19	A	2446.423693900757	streaming
340.7894	0.080627461138647	8	systole	20	B	500.0	streaming
340.9479	0.080627461138647	8	systole	21	A	2446.423693900757	streaming
341.2804	0.080627461138647	8	systole	22	A	2446.423693900757	streaming
341.4398	0.080627461138647	8	systole	23	B	500.0	streaming
341.5983	0.080627461138647	8	systole	24	A	2446.423693900757	streaming
341.9308	0.080627461138647	8	systole	25	A	2446.423693900757	streaming
342.0902	0.080627461138647	8	systole	26	B	500.0	streaming
342.2487	0.080627461138647	8	systole	27	A	2446.423693900757	streaming
342.6108	0.080627461138647	8	systole	28	A	2446.423693900757	streaming
342.7702	0.080627461138647	8	systole	29	B	500.0	streaming
342.9287	0.080627461138647	8	systole	30	A	2446.423693900757	streaming
343.3008	0.080627461138647	8	systole	31	A	2446.423693900757	streaming
343.4602	0.080627461138647	8	systole	32	B	500.0	streaming
343.6187	0.080627461138647	8	systole	33	A	2446.423693900757	streaming
343.9647	0.080627461138647	8	systole	34	A	2446.423693900757	streaming
344.1251	0.080627461138647	8	systole	35	B	500.0	streaming
344.2847	0.080627461138647	8	systole	36	A	2446.423693900757	streaming
344.6247	0.080627461138647	8	systole	37	A	2446.423693900757	streaming
344.7851	0.080627461138647	8	systole	38	B	500.0	streaming
344.9447	0.080627461138647	8	systole	39	A	2446.423693900757	streaming
345.2793	0.080627461138647	8	systole	40	A	2446.423693900757	streaming
345.441	0.080627461138647	8	systole	41	B	500.0	streaming
345.6018	0.080627461138647	8	systole	42	A	2446.423693900757	streaming
345.9537	0.080627461138647	8	systole	43	A	2446.423693900757	streaming
346.1166	0.080627461138647	8	systole	44	B	500.0	streaming
346.2788	0.080627461138647	8	systole	45	A	2446.423693900757	streaming
346.6227	0.080627461138647	8	systole	46	A	2446.423693900757	streaming
346.7882	0.080627461138647	8	systole	47	B	500.0	streaming
346.9527	0.080627461138647	8	systole	48	A	2446.423693900757	streaming
349.7846	0.0806467437068931	9	systole	1	A	846.9957848672357	coherent
349.9451	0.0806467437068931	9	systole	2	B	500.0	coherent
350.1048	0.0806467437068931	9	systole	3	A	846.9957848672357	coherent
350.4247	0.0806467437068931	9	systole	4	A	846.9957848672357	coherent
350.5851	0.0806467437068931	9	systole	5	B	500.0	coherent
350.7448	0.0806467437068931	9	systole	6	A	846.9957848672357	coherent
351.0641	0.0806467437068931	9	systole	7	A	846.9957848672357	coherent
351.2245	0.0806467437068931	9	systole	8	B	500.0	coherent
351.3842	0.0806467437068931	9	systole	9	A	846.9957848672357	coherent
351.7041	0.0806467437068931	9	systole	10	A	846.9957848672357	coherent
351.8644	0.0806467437068931	9	systole	11	B	500.0	coherent
352.0241	0.0806467437068931	9	systole	12	A	846.9957848672357	coherent
352.3441	0.0806467437068931	9	systole	13	A	846.9957848672357	coherent
352.5045	0.0806467437068931	9	systole	14	B	500.0	coherent
352.6641	0.0806467437068931	9	systole	15	A	846.9957848672357	coherent
352.9841	0.0806467437068931	9	systole	16	A	846.9957848672357	coherent
353.1445	0.0806467437068931	9	systole	17	B	500.0	coherent
353.3041	0.0806467437068931	9	systole	18	A	846.9957848672357	coherent
353.6441	0.0806467437068931	9	systole	19	A	846.9957848672357	coherent
353.8045	0.0806467437068931	9	systole	20	B	500.0	coherent
353.9641	0.0806467437068931	9	systole	21	A	846.9957848672357	coherent
354.3142	0.0806467437068931	9	systole	22	A	846.9957848672357	coherent
354.4745	0.0806467437068931	9	systole	23	B	500.0	coherent
354.6342	0.0806467437068931	9	systole	24	A	846.9957848672357	coherent
354.9842	0.0806467437068931	9	systole	25	A	846.9957848672357	coherent
355.1445	0.0806467437068931	9	systole	26	B	500.0	coherent
355.3042	0.0806467437068931	9	systole	27	A	846.9957848672357	coherent
355.6343	0.0806467437068931	9	systole	28	A	846.9957848672357	coherent
355.7947	0.0806467437068931	9	systole	29	B	500.0	coherent
355.9544	0.0806467437068931	9	systole	30	A	846.9957848672357	coherent
356.2741	0.0806467437068931	9	systole	31	A	846.9957848672357	coherent
356.4345	0.0806467437068931	9	systole	32	B	500.0	coherent
356.5941	0.0806467437068931	9	systole	33	A	846.9957848672357	coherent
356.924	0.0806467437068931	9	systole	34	A	846.9957848672357	coherent
357.0844	0.0806467437068931	9	systole	35	B	500.0	coherent
357.244	0.0806467437068931	9	systole	36	A	846.9957848672357	coherent
357.574	0.0806467437068931	9	systole	37	A	846.9957848672357	coherent
357.7344	0.0806467437068931	9	systole	38	B	500.0	coherent
357.894	0.0806467437068931	9	systole	39	A	846.9957848672357	coherent
358.2286	0.0806467437068931	9	systole	40	A	846.9957848672357	coherent
358.3903	0.0806467437068931	9	systole	41	B	500.0	coherent
358.5511	0.0806467437068931	9	systole	42	A	846.9957848672357	coherent
358.8832	0.0806467437068931	9	systole	43	A	846.9957848672357	coherent
359.0461	0.0806467437068931	9	systole	44	B	500.0	coherent
359.2083	0.0806467437068931	9	systole	45	A	846.9957848672357	coherent
361.374	0.0800034963758662	10	systole	1	A	2682.7996005075997	streaming
361.5345	0.0800034963758662	10	systole	2	B	500.0	streaming
361.694	0.0800034963758662	10	systole	3	A	2682.7996005075997	streaming
362.0141	0.0800034963758662	10	systole	4	A	2682.7996005075997	streaming
362.1745	0.0800034963758662	10	systole	5	B	500.0	streaming
362.3341	0.0800034963758662	10	systole	6	A	2682.7996005075997	streaming
362.6541	0.0800034963758662	10	systole	7	A	2682.7996005075997	streaming
362.8146	0.0800034963758662	10	systole	8	B	500.0	streaming
362.9741	0.0800034963758662	10	systole	9	A	2682.7996005075997	streaming
363.2841	0.0800034963758662	10	systole	10	A	2682.7996005075997	streaming
363.4445	0.0800034963758662	10	systole	11	B	500.0	streaming
363.6041	0.0800034963758662	10	systole	12	A	2682.7996005075997	streaming
363.9141	0.0800034963758662	10	systole	13	A	2682.7996005075997	streaming
364.0746	0.0800034963758662	10	systole	14	B	500.0	streaming
364.2341	0.0800034963758662	10	systole	15	A	2682.7996005075997	streaming
364.554	0.0800034963758662	10	systole	16	A	2682.7996005075997	streaming
364.7145	0.0800034963758662	10	systole	17	B	500.0	streaming
364.874	0.0800034963758662	10	systole	18	A	2682.7996005075997	streaming
365.2241	0.0800034963758662	10	systole	19	A	2682.7996005075997	streaming
365.3845	0.0800034963758662	10	systole	20	B	500.0	streaming
365.5441	0.0800034963758662	10	systole	21	A	2682.7996005075997	streaming
365.854	0.0800034963758662	10	systole	22	A	2682.7996005075997	streaming
366.0144	0.0800034963758662	10	systole	23	B	500.0	streaming
366.1739	0.0800034963758662	10	systole	24	A	2682.7996005075997	streaming
366.4839	0.0800034963758662	10	systole	25	A	2682.7996005075997	streaming
366.6444	0.0800034963758662	10	systole	26	B	500.0	streaming
366.8039	0.0800034963758662	10	systole	27	A	2682.7996005075997	streaming
367.1239	0.0800034963758662	10	systole	28	A	2682.7996005075997	streaming
367.2844	0.0800034963758662	10	systole	29	B	500.0	streaming
367.4439	0.0800034963758662	10	systole	30	A	2682.7996005075997	streaming
367.7639	0.0800034963758662	10	systole	31	A	2682.7996005075997	streaming
367.9243	0.0800034963758662	10	systole	32	B	500.0	streaming
368.0839	0.0800034963758662	10	systole	33	A	2682.7996005075997	streaming
368.4239	0.0800034963758662	10	systole	34	A	2682.7996005075997	streaming
368.5844	0.0800034963758662	10	systole	35	B	500.0	streaming
368.7439	0.0800034963758662	10	systole	36	A	2682.7996005075997	streaming
369.0539	0.0800034963758662	10	systole	37	A	2682.7996005075997	streaming
369.2144	0.0800034963758662	10	systole	38	B	500.0	streaming
369.3739	0.0800034963758662	10	systole	39	A	2682.7996005075997	streaming
369.6839	0.0800034963758662	10	systole	40	A	2682.7996005075997	streaming
369.8444	0.0800034963758662	10	systole	41	B	500.0	streaming
370.0039	0.0800034963758662	10	systole	42	A	2682.7996005075997	streaming
370.3139	0.0800034963758662	10	systole	43	A	2682.7996005075997	streaming
370.4744	0.0800034963758662	10	systole	44	B	500.0	streaming
370.6339	0.0800034963758662	10	systole	45	A	2682.7996005075997	streaming
370.9539	0.0800034963758662	10	systole	46	A	2682.7996005075997	streaming
371.1144	0.0800034963758662	10	systole	47	B	500.0	streaming
371.2739	0.0800034963758662	10	systole	48	A	2682.7996005075997	streaming
376.1141	0.0800016829161904	11	systole	1	A	720.7460505647621	coherent
376.2744	0.0800016829161904	11	systole	2	B	500.0	coherent
376.4341	0.0800016829161904	11	systole	3	A	720.7460505647621	coherent
376.754	0.0800016829161904	11	systole	4	A	720.7460505647621	coherent
376.9142	0.0800016829161904	11	systole	5	B	500.0	coherent
377.074	0.0800016829161904	11	systole	6	A	720.7460505647621	coherent
377.4944	0.0800016829161904	11	systole	7	A	720.7460505647621	coherent
377.6547	0.0800016829161904	11	systole	8	B	500.0	coherent
377.8144	0.0800016829161904	11	systole	9	A	720.7460505647621	coherent
378.2386	0.0800016829161904	11	systole	10	A	720.7460505647621	coherent
378.4001	0.0800016829161904	11	systole	11	B	500.0	coherent
378.5611	0.0800016829161904	11	systole	12	A	720.7460505647621	coherent
378.9782	0.0800016829161904	11	systole	13	A	720.7460505647621	coherent
379.1397	0.0800016829161904	11	systole	14	B	500.0	coherent
379.3007	0.0800016829161904	11	systole	15	A	720.7460505647621	coherent
379.6681	0.0800016829161904	11	systole	16	A	720.7460505647621	coherent
379.8297	0.0800016829161904	11	systole	17	B	500.0	coherent
379.9906	0.0800016829161904	11	systole	18	A	720.7460505647621	coherent
380.3186	0.0800016829161904	11	systole	19	A	720.7460505647621	coherent
380.4801	0.0800016829161904	11	systole	20	B	500.0	coherent
380.641	0.0800016829161904	11	systole	21	A	720.7460505647621	coherent
380.969	0.0800016829161904	11	systole	22	A	720.7460505647621	coherent
381.1305	0.0800016829161904	11	systole	23	B	500.0	coherent
381.2914	0.0800016829161904	11	systole	24	A	720.7460505647621	coherent
381.6193	0.0800016829161904	11	systole	25	A	720.7460505647621	coherent
381.7809	0.0800016829161904	11	systole	26	B	500.0	coherent
381.9418	0.0800016829161904	11	systole	27	A	720.7460505647621	coherent
382.3214	0.0800016829161904	11	systole	28	A	720.7460505647621	coherent
382.4916	0.0800016829161904	11	systole	29	B	500.0	coherent
382.6614	0.0800016829161904	11	systole	30	A	720.7460505647621	coherent
382.9713	0.0800016829161904	11	systole	31	A	720.7460505647621	coherent
383.1416	0.0800016829161904	11	systole	32	B	500.0	coherent
383.3113	0.0800016829161904	11	systole	33	A	720.7460505647621	coherent
383.6212	0.0800016829161904	11	systole	34	A	720.7460505647621	coherent
383.7915	0.0800016829161904	11	systole	35	B	500.0	coherent
383.9612	0.0800016829161904	11	systole	36	A	720.7460505647621	coherent
384.2712	0.0800016829161904	11	systole	37	A	720.7460505647621	coherent
384.4415	0.0800016829161904	11	systole	38	B	500.0	coherent
384.6112	0.0800016829161904	11	systole	39	A	720.7460505647621	coherent
384.8929	0.0800016829161904	11	systole	40	A	720.7460505647621	coherent
385.0582	0.0800016829161904	11	systole	41	B	500.0	coherent
385.2229	0.0800016829161904	11	systole	42	A	720.7460505647621	coherent
385.5285	0.0800016829161904	11	systole	43	A	720.7460505647621	coherent
385.6925	0.0800016829161904	11	systole	44	B	500.0	coherent
385.856	0.0800016829161904	11	systole	45	A	720.7460505647621	coherent
386.1784	0.0800016829161904	11	systole	46	A	720.7460505647621	coherent
386.3424	0.0800016829161904	11	systole	47	B	500.0	coherent
386.5059	0.0800016829161904	11	systole	48	A	720.7460505647621	coherent
388.8235	0.0812593686277978	12	systole	1	A	737.5583956554606	coherent
388.9863	0.0812593686277978	12	systole	2	B	500.0	coherent
389.1486	0.0812593686277978	12	systole	3	A	737.5583956554606	coherent
389.4836	0.0812593686277978	12	systole	4	A	737.5583956554606	coherent
389.6464	0.0812593686277978	12	systole	5	B	500.0	coherent
389.8086	0.0812593686277978	12	systole	6	A	737.5583956554606	coherent
390.1134	0.0812593686277978	12	systole	7	A	737.5583956554606	coherent
390.2761	0.0812593686277978	12	systole	8	B	500.0	coherent
390.4383	0.0812593686277978	12	systole	9	A	737.5583956554606	coherent
390.7433	0.0812593686277978	12	systole	10	A	737.5583956554606	coherent
390.9061	0.0812593686277978	12	systole	11	B	500.0	coherent
391.0683	0.0812593686277978	12	systole	12	A	737.5583956554606	coherent
391.3588	0.0812593686277978	12	systole	13	A	737.5583956554606	coherent
391.5203	0.0812593686277978	12	systole	14	B	500.0	coherent
391.6813	0.0812593686277978	12	systole	15	A	737.5583956554606	coherent
391.9887	0.0812593686277978	12	systole	16	A	737.5583956554606	coherent
392.1502	0.0812593686277978	12	systole	17	B	500.0	coherent
392.3112	0.0812593686277978	12	systole	18	A	737.5583956554606	coherent
392.6388	0.0812593686277978	12	systole	19	A	737.5583956554606	coherent
392.8003	0.0812593686277978	12	systole	20	B	500.0	coherent
392.9612	0.0812593686277978	12	systole	21	A	737.5583956554606	coherent
393.2741	0.0812593686277978	12	systole	22	A	737.5583956554606	coherent
393.4344	0.0812593686277978	12	systole	23	B	500.0	coherent
393.5941	0.0812593686277978	12	systole	24	A	737.5583956554606	coherent
393.8997	0.0812593686277978	12	systole	25	A	737.5583956554606	coherent
394.0587	0.0812593686277978	12	systole	26	B	500.0	coherent
394.2171	0.0812593686277978	12	systole	27	A	737.5583956554606	coherent
394.5297	0.0812593686277978	12	systole	28	A	737.5583956554606	coherent
394.6887	0.0812593686277978	12	systole	29	B	500.0	coherent
394.8472	0.0812593686277978	12	systole	30	A	737.5583956554606	coherent
395.1697	0.0812593686277978	12	systole	31	A	737.5583956554606	coherent
395.3287	0.0812593686277978	12	systole	32	B	500.0	coherent
395.4872	0.0812593686277978	12	systole	33	A	737.5583956554606	coherent
395.8197	0.0812593686277978	12	systole	34	A	737.5583956554606	coherent
395.9787	0.0812593686277978	12	systole	35	B	500.0	coherent
396.1372	0.0812593686277978	12	systole	36	A	737.5583956554606	coherent
396.4742	0.0812593686277978	12	systole	37	A	737.5583956554606	coherent
396.6345	0.0812593686277978	12	systole	38	B	500.0	coherent
396.7942	0.0812593686277978	12	systole	39	A	737.5583956554606	coherent
397.1142	0.0812593686277978	12	systole	40	A	737.5583956554606	coherent
397.2746	0.0812593686277978	12	systole	41	B	500.0	coherent
397.4343	0.0812593686277978	12	systole	42	A	737.5583956554606	coherent
397.7688	0.0812593686277978	12	systole	43	A	737.5583956554606	coherent
397.9303	0.0812593686277978	12	systole	44	B	500.0	coherent
398.0913	0.0812593686277978	12	systole	45	A	737.5583956554606	coherent
398.4187	0.0812593686277978	12	systole	46	A	737.5583956554606	coherent
398.5803	0.0812593686277978	12	systole	47	B	500.0	coherent
398.7412	0.0812593686277978	12	systole	48	A	737.5583956554606	coherent
404.4769	0.0800054107094183	13	diastole	1	A	1196.9977780158051	streaming
404.6362	0.0800054107094183	13	diastole	2	B	500.0	streaming
404.7945	0.0800054107094183	13	diastole	3	A	1196.9977780158051	streaming
405.127	0.0800054107094183	13	diastole	4	A	1196.9977780158051	streaming
405.2862	0.0800054107094183	13	diastole	5	B	500.0	streaming
405.4444	0.0800054107094183	13	diastole	6	A	1196.9977780158051	streaming
405.777	0.0800054107094183	13	diastole	7	A	1196.9977780158051	streaming
405.9362	0.0800054107094183	13	diastole	8	B	500.0	streaming
406.0944	0.0800054107094183	13	diastole	9	A	1196.9977780158051	streaming
406.4341	0.0800054107094183	13	diastole	10	A	1196.9977780158051	streaming
406.5946	0.0800054107094183	13	diastole	11	B	500.0	streaming
406.7541	0.0800054107094183	13	diastole	12	A	1196.9977780158051	streaming
407.0912	0.0800054107094183	13	diastole	13	A	1196.9977780158051	streaming
407.253	0.0800054107094183	13	diastole	14	B	500.0	streaming
407.4137	0.0800054107094183	13	diastole	15	A	1196.9977780158051	streaming
407.7112	0.0800054107094183	13	diastole	16	A	1196.9977780158051	streaming
407.8729	0.0800054107094183	13	diastole	17	B	500.0	streaming
408.0337	0.0800054107094183	13	diastole	18	A	1196.9977780158051	streaming
408.3312	0.0800054107094183	13	diastole	19	A	1196.9977780158051	streaming
408.493	0.0800054107094183	13	diastole	20	B	500.0	streaming
408.6537	0.0800054107094183	13	diastole	21	A	1196.9977780158051	streaming
408.9513	0.0800054107094183	13	diastole	22	A	1196.9977780158051	streaming
409.113	0.0800054107094183	13	diastole	23	B	500.0	streaming
409.2738	0.0800054107094183	13	diastole	24	A	1196.9977780158051	streaming
409.5912	0.0800054107094183	13	diastole	25	A	1196.9977780158051	streaming
409.753	0.0800054107094183	13	diastole	26	B	500.0	streaming
409.9137	0.0800054107094183	13	diastole	27	A	1196.9977780158051	streaming
410.2312	0.0800054107094183	13	diastole	28	A	1196.9977780158051	streaming
410.393	0.0800054107094183	13	diastole	29	B	500.0	streaming
410.5537	0.0800054107094183	13	diastole	30	A	1196.9977780158051	streaming
410.8641	0.0800054107094183	13	diastole	31	A	1196.9977780158051	streaming
411.0246	0.0800054107094183	13	diastole	32	B	500.0	streaming
411.1841	0.0800054107094183	13	diastole	33	A	1196.9977780158051	streaming
411.4941	0.0800054107094183	13	diastole	34	A	1196.9977780158051	streaming
411.6546	0.0800054107094183	13	diastole	35	B	500.0	streaming
411.8141	0.0800054107094183	13	diastole	36	A	1196.9977780158051	streaming
412.1241	0.0800054107094183	13	diastole	37	A	1196.9977780158051	streaming
412.2845	0.0800054107094183	13	diastole	38	B	500.0	streaming
412.4441	0.0800054107094183	13	diastole	39	A	1196.9977780158051	streaming
412.774	0.0800054107094183	13	diastole	40	A	1196.9977780158051	streaming
412.9345	0.0800054107094183	13	diastole	41	B	500.0	streaming
413.094	0.0800054107094183	13	diastole	42	A	1196.9977780158051	streaming
413.4341	0.0800054107094183	13	diastole	43	A	1196.9977780158051	streaming
413.5945	0.0800054107094183	13	diastole	44	B	500.0	streaming
413.754	0.0800054107094183	13	diastole	45	A	1196.9977780158051	streaming
417.4857	0.0788513186853379	14	systole	1	A	2621.646269519023	streaming
417.6438	0.0788513186853379	14	systole	2	B	500.0	streaming
417.8011	0.0788513186853379	14	systole	3	A	2621.646269519023	streaming
418.1356	0.0788513186853379	14	systole	4	A	2621.646269519023	streaming
418.2938	0.0788513186853379	14	systole	5	B	500.0	streaming
418.451	0.0788513186853379	14	systole	6	A	2621.646269519023	streaming
418.7856	0.0788513186853379	14	systole	7	A	2621.646269519023	streaming
418.9437	0.0788513186853379	14	systole	8	B	500.0	streaming
419.101	0.0788513186853379	14	systole	9	A	2621.646269519023	streaming
419.4456	0.0788513186853379	14	systole	10	A	2621.646269519023	streaming
419.6037	0.0788513186853379	14	systole	11	B	500.0	streaming
419.761	0.0788513186853379	14	systole	12	A	2621.646269519023	streaming
420.0856	0.0788513186853379	14	systole	13	A	2621.646269519023	streaming
420.2438	0.0788513186853379	14	systole	14	B	500.0	streaming
420.401	0.0788513186853379	14	systole	15	A	2621.646269519023	streaming
420.7402	0.0788513186853379	14	systole	16	A	2621.646269519023	streaming
420.8996	0.0788513186853379	14	systole	17	B	500.0	streaming
421.0581	0.0788513186853379	14	systole	18	A	2621.646269519023	streaming
421.404	0.0788513186853379	14	systole	19	A	2621.646269519023	streaming
421.5645	0.0788513186853379	14	systole	20	B	500.0	streaming
421.7241	0.0788513186853379	14	systole	21	A	2621.646269519023	streaming
422.0631	0.0788513186853379	14	systole	22	A	2621.646269519023	streaming
422.2261	0.0788513186853379	14	systole	23	B	500.0	streaming
422.3881	0.0788513186853379	14	systole	24	A	2621.646269519023	streaming
422.713	0.0788513186853379	14	systole	25	A	2621.646269519023	streaming
422.876	0.0788513186853379	14	systole	26	B	500.0	streaming
423.038	0.0788513186853379	14	systole	27	A	2621.646269519023	streaming
423.363	0.0788513186853379	14	systole	28	A	2621.646269519023	streaming
423.526	0.0788513186853379	14	systole	29	B	500.0	streaming
423.688	0.0788513186853379	14	systole	30	A	2621.646269519023	streaming
424.013	0.0788513186853379	14	systole	31	A	2621.646269519023	streaming
424.1759	0.0788513186853379	14	systole	32	B	500.0	streaming
424.338	0.0788513186853379	14	systole	33	A	2621.646269519023	streaming
424.653	0.0788513186853379	14	systole	34	A	2621.646269519023	streaming
424.8159	0.0788513186853379	14	systole	35	B	500.0	streaming
424.978	0.0788513186853379	14	systole	36	A	2621.646269519023	streaming
425.303	0.0788513186853379	14	systole	37	A	2621.646269519023	streaming
425.466	0.0788513186853379	14	systole	38	B	500.0	streaming
425.628	0.0788513186853379	14	systole	39	A	2621.646269519023	streaming
425.9676	0.0788513186853379	14	systole	40	A	2621.646269519023	streaming
426.1318	0.0788513186853379	14	systole	41	B	500.0	streaming
426.2951	0.0788513186853379	14	systole	42	A	2621.646269519023	streaming
426.603	0.0788513186853379	14	systole	43	A	2621.646269519023	streaming
426.766	0.0788513186853379	14	systole	44	B	500.0	streaming
426.928	0.0788513186853379	14	systole	45	A	2621.646269519023	streaming
429.8487	0.0812501295586116	15	systole	1	A	772.3687435845811	coherent
430.0103	0.0812501295586116	15	systole	2	B	500.0	coherent
430.1712	0.0812501295586116	15	systole	3	A	772.3687435845811	coherent
430.4841	0.0812501295586116	15	systole	4	A	772.3687435845811	coherent
430.6445	0.0812501295586116	15	systole	5	B	500.0	coherent
430.8042	0.0812501295586116	15	systole	6	A	772.3687435845811	coherent
431.1341	0.0812501295586116	15	systole	7	A	772.3687435845811	coherent
431.2945	0.0812501295586116	15	systole	8	B	500.0	coherent
431.4542	0.0812501295586116	15	systole	9	A	772.3687435845811	coherent
431.7842	0.0812501295586116	15	systole	10	A	772.3687435845811	coherent
431.9445	0.0812501295586116	15	systole	11	B	500.0	coherent
432.1042	0.0812501295586116	15	systole	12	A	772.3687435845811	coherent
432.4388	0.0812501295586116	15	systole	13	A	772.3687435845811	coherent
432.6003	0.0812501295586116	15	systole	14	B	500.0	coherent
432.7613	0.0812501295586116	15	systole	15	A	772.3687435845811	coherent
433.0932	0.0812501295586116	15	systole	16	A	772.3687435845811	coherent
433.256	0.0812501295586116	15	systole	17	B	500.0	coherent
433.4181	0.0812501295586116	15	systole	18	A	772.3687435845811	coherent
433.7631	0.0812501295586116	15	systole	19	A	772.3687435845811	coherent
433.9259	0.0812501295586116	15	systole	20	B	500.0	coherent
434.0881	0.0812501295586116	15	systole	21	A	772.3687435845811	coherent
434.4331	0.0812501295586116	15	systole	22	A	772.3687435845811	coherent
434.5959	0.0812501295586116	15	systole	23	B	500.0	coherent
434.7581	0.0812501295586116	15	systole	24	A	772.3687435845811	coherent
435.1032	0.0812501295586116	15	systole	25	A	772.3687435845811	coherent
435.266	0.0812501295586116	15	systole	26	B	500.0	coherent
435.4281	0.0812501295586116	15	systole	27	A	772.3687435845811	coherent
435.7732	0.0812501295586116	15	systole	28	A	772.3687435845811	coherent
435.936	0.0812501295586116	15	systole	29	B	500.0	coherent
436.0982	0.0812501295586116	15	systole	30	A	772.3687435845811	coherent
436.4231	0.0812501295586116	15	systole	31	A	772.3687435845811	coherent
436.5859	0.0812501295586116	15	systole	32	B	500.0	coherent
436.7481	0.0812501295586116	15	systole	33	A	772.3687435845811	coherent
437.0632	0.0812501295586116	15	systole	34	A	772.3687435845811	coherent
437.2259	0.0812501295586116	15	systole	35	B	500.0	coherent
437.3881	0.0812501295586116	15	systole	36	A	772.3687435845811	coherent
437.7132	0.0812501295586116	15	systole	37	A	772.3687435845811	coherent
437.876	0.0812501295586116	15	systole	38	B	500.0	coherent
438.0382	0.0812501295586116	15	systole	39	A	772.3687435845811	coherent
438.3632	0.0812501295586116	15	systole	40	A	772.3687435845811	coherent
438.526	0.0812501295586116	15	systole	41	B	500.0	coherent
438.6882	0.0812501295586116	15	systole	42	A	772.3687435845811	coherent
439.0031	0.0812501295586116	15	systole	43	A	772.3687435845811	coherent
439.166	0.0812501295586116	15	systole	44	B	500.0	coherent
439.3281	0.0812501295586116	15	systole	45	A	772.3687435845811	coherent
443.1113	0.0812536124140024	16	diastole	1	A	754.7629107028698	coherent
443.2729	0.0812536124140024	16	diastole	2	B	500.0	coherent
443.4338	0.0812536124140024	16	diastole	3	A	754.7629107028698	coherent
443.744	0.0812536124140024	16	diastole	4	A	754.7629107028698	coherent
443.9043	0.0812536124140024	16	diastole	5	B	500.0	coherent
444.064	0.0812536124140024	16	diastole	6	A	754.7629107028698	coherent
444.384	0.0812536124140024	16	diastole	7	A	754.7629107028698	coherent
444.5442	0.0812536124140024	16	diastole	8	B	500.0	coherent
444.7039	0.0812536124140024	16	diastole	9	A	754.7629107028698	coherent
445.041	0.0812536124140024	16	diastole	10	A	754.7629107028698	coherent
445.2026	0.0812536124140024	16	diastole	11	B	500.0	coherent
445.3635	0.0812536124140024	16	diastole	12	A	754.7629107028698	coherent
445.7182	0.0812536124140024	16	diastole	13	A	754.7629107028698	coherent
445.881	0.0812536124140024	16	diastole	14	B	500.0	coherent
446.0432	0.0812536124140024	16	diastole	15	A	754.7629107028698	coherent
446.3683	0.0812536124140024	16	diastole	16	A	754.7629107028698	coherent
446.5311	0.0812536124140024	16	diastole	17	B	500.0	coherent
446.6933	0.0812536124140024	16	diastole	18	A	754.7629107028698	coherent
446.9982	0.0812536124140024	16	diastole	19	A	754.7629107028698	coherent
447.1611	0.0812536124140024	16	diastole	20	B	500.0	coherent
447.3232	0.0812536124140024	16	diastole	21	A	754.7629107028698	coherent
447.6282	0.0812536124140024	16	diastole	22	A	754.7629107028698	coherent
447.791	0.0812536124140024	16	diastole	23	B	500.0	coherent
447.9532	0.0812536124140024	16	diastole	24	A	754.7629107028698	coherent
448.2582	0.0812536124140024	16	diastole	25	A	754.7629107028698	coherent
448.421	0.0812536124140024	16	diastole	26	B	500.0	coherent
448.5832	0.0812536124140024	16	diastole	27	A	754.7629107028698	coherent
448.9281	0.0812536124140024	16	diastole	28	A	754.7629107028698	coherent
449.0909	0.0812536124140024	16	diastole	29	B	500.0	coherent
449.2531	0.0812536124140024	16	diastole	30	A	754.7629107028698	coherent
449.5982	0.0812536124140024	16	diastole	31	A	754.7629107028698	coherent
449.761	0.0812536124140024	16	diastole	32	B	500.0	coherent
449.9232	0.0812536124140024	16	diastole	33	A	754.7629107028698	coherent
450.2682	0.0812536124140024	16	diastole	34	A	754.7629107028698	coherent
450.431	0.0812536124140024	16	diastole	35	B	500.0	coherent
450.5932	0.0812536124140024	16	diastole	36	A	754.7629107028698	coherent
450.8983	0.0812536124140024	16	diastole	37	A	754.7629107028698	coherent
451.0611	0.0812536124140024	16	diastole	38	B	500.0	coherent
451.2233	0.0812536124140024	16	diastole	39	A	754.7629107028698	coherent
451.5283	0.0812536124140024	16	diastole	40	A	754.7629107028698	coherent
451.6911	0.0812536124140024	16	diastole	41	B	500.0	coherent
451.8533	0.0812536124140024	16	diastole	42	A	754.7629107028698	coherent
457.3412	0.0800071469857357	17	diastole	1	A	3010.640720484466	streaming
457.5027	0.0800071469857357	17	diastole	2	B	500.0	streaming
457.6637	0.0800071469857357	17	diastole	3	A	3010.640720484466	streaming
457.9642	0.0800071469857357	17	diastole	4	A	3010.640720484466	streaming
458.1244	0.0800071469857357	17	diastole	5	B	500.0	streaming
458.2842	0.0800071469857357	17	diastole	6	A	3010.640720484466	streaming
458.5842	0.0800071469857357	17	diastole	7	A	3010.640720484466	streaming
458.7444	0.0800071469857357	17	diastole	8	B	500.0	streaming
458.9042	0.0800071469857357	17	diastole	9	A	3010.640720484466	streaming
459.2042	0.0800071469857357	17	diastole	10	A	3010.640720484466	streaming
459.3645	0.0800071469857357	17	diastole	11	B	500.0	streaming
459.5242	0.0800071469857357	17	diastole	12	A	3010.640720484466	streaming
459.8141	0.0800071469857357	17	diastole	13	A	3010.640720484466	streaming
459.9744	0.0800071469857357	17	diastole	14	B	500.0	streaming
460.1341	0.0800071469857357	17	diastole	15	A	3010.640720484466	streaming
460.4241	0.0800071469857357	17	diastole	16	A	3010.640720484466	streaming
460.5844	0.0800071469857357	17	diastole	17	B	500.0	streaming
460.7441	0.0800071469857357	17	diastole	18	A	3010.640720484466	streaming
461.01	0.0800071469857357	17	diastole	19	A	3010.640720484466	streaming
461.1677	0.0800071469857357	17	diastole	20	B	500.0	streaming
461.325	0.0800071469857357	17	diastole	21	A	3010.640720484466	streaming
461.5887	0.0800071469857357	17	diastole	22	A	3010.640720484466	streaming
461.7427	0.0800071469857357	17	diastole	23	B	500.0	streaming
461.8962	0.0800071469857357	17	diastole	24	A	3010.640720484466	streaming
462.1887	0.0800071469857357	17	diastole	25	A	3010.640720484466	streaming
462.3427	0.0800071469857357	17	diastole	26	B	500.0	streaming
462.4962	0.0800071469857357	17	diastole	27	A	3010.640720484466	streaming
462.7887	0.0800071469857357	17	diastole	28	A	3010.640720484466	streaming
462.9427	0.0800071469857357	17	diastole	29	B	500.0	streaming
463.0962	0.0800071469857357	17	diastole	30	A	3010.640720484466	streaming
463.4287	0.0800071469857357	17	diastole	31	A	3010.640720484466	streaming
463.5827	0.0800071469857357	17	diastole	32	B	500.0	streaming
463.7362	0.0800071469857357	17	diastole	33	A	3010.640720484466	streaming
464.0687	0.0800071469857357	17	diastole	34	A	3010.640720484466	streaming
464.2227	0.0800071469857357	17	diastole	35	B	500.0	streaming
464.3762	0.0800071469857357	17	diastole	36	A	3010.640720484466	streaming
464.7088	0.0800071469857357	17	diastole	37	A	3010.640720484466	streaming
464.8627	0.0800071469857357	17	diastole	38	B	500.0	streaming
465.0163	0.0800071469857357	17	diastole	39	A	3010.640720484466	streaming
465.3487	0.0800071469857357	17	diastole	40	A	3010.640720484466	streaming
465.5027	0.0800071469857357	17	diastole	41	B	500.0	streaming
465.6562	0.0800071469857357	17	diastole	42	A	3010.640720484466	streaming
466.0158	0.0800071469857357	17	diastole	43	A	3010.640720484466	streaming
466.1711	0.0800071469857357	17	diastole	44	B	500.0	streaming
466.3258	0.0800071469857357	17	diastole	45	A	3010.640720484466	streaming
472.6255	0.0818761374684982	18	diastole	1	A	737.5583956554606	coherent
472.7895	0.0818761374684982	18	diastole	2	B	500.0	coherent
472.953	0.0818761374684982	18	diastole	3	A	737.5583956554606	coherent
473.2926	0.0818761374684982	18	diastole	4	A	737.5583956554606	coherent
473.4578	0.0818761374684982	18	diastole	5	B	500.0	coherent
473.6226	0.0818761374684982	18	diastole	6	A	737.5583956554606	coherent
473.9526	0.0818761374684982	18	diastole	7	A	737.5583956554606	coherent
474.1179	0.0818761374684982	18	diastole	8	B	500.0	coherent
474.2826	0.0818761374684982	18	diastole	9	A	737.5583956554606	coherent
474.5826	0.0818761374684982	18	diastole	10	A	737.5583956554606	coherent
474.7479	0.0818761374684982	18	diastole	11	B	500.0	coherent
474.9126	0.0818761374684982	18	diastole	12	A	737.5583956554606	coherent
475.2125	0.0818761374684982	18	diastole	13	A	737.5583956554606	coherent
475.3778	0.0818761374684982	18	diastole	14	B	500.0	coherent
475.5425	0.0818761374684982	18	diastole	15	A	737.5583956554606	coherent
475.8384	0.0818761374684982	18	diastole	16	A	737.5583956554606	coherent
476.0012	0.0818761374684982	18	diastole	17	B	500.0	coherent
476.1634	0.0818761374684982	18	diastole	18	A	737.5583956554606	coherent
476.4642	0.0818761374684982	18	diastole	19	A	737.5583956554606	coherent
476.6245	0.0818761374684982	18	diastole	20	B	500.0	coherent
476.7842	0.0818761374684982	18	diastole	21	A	737.5583956554606	coherent
477.1042	0.0818761374684982	18	diastole	22	A	737.5583956554606	coherent
477.2645	0.0818761374684982	18	diastole	23	B	500.0	coherent
477.4242	0.0818761374684982	18	diastole	24	A	737.5583956554606	coherent
477.7442	0.0818761374684982	18	diastole	25	A	737.5583956554606	coherent
477.9045	0.0818761374684982	18	diastole	26	B	500.0	coherent
478.0642	0.0818761374684982	18	diastole	27	A	737.5583956554606	coherent
478.3842	0.0818761374684982	18	diastole	28	A	737.5583956554606	coherent
478.5445	0.0818761374684982	18	diastole	29	B	500.0	coherent
478.7042	0.0818761374684982	18	diastole	30	A	737.5583956554606	coherent
479.0241	0.0818761374684982	18	diastole	31	A	737.5583956554606	coherent
479.1844	0.0818761374684982	18	diastole	32	B	500.0	coherent
479.3441	0.0818761374684982	18	diastole	33	A	737.5583956554606	coherent
479.664	0.0818761374684982	18	diastole	34	A	737.5583956554606	coherent
479.8243	0.0818761374684982	18	diastole	35	B	500.0	coherent
479.984	0.0818761374684982	18	diastole	36	A	737.5583956554606	coherent
480.2841	0.0818761374684982	18	diastole	37	A	737.5583956554606	coherent
480.4444	0.0818761374684982	18	diastole	38	B	500.0	coherent
480.6041	0.0818761374684982	18	diastole	39	A	737.5583956554606	coherent
480.9042	0.0818761374684982	18	diastole	40	A	737.5583956554606	coherent
481.0645	0.0818761374684982	18	diastole	41	B	500.0	coherent
481.2242	0.0818761374684982	18	diastole	42	A	737.5583956554606	coherent
481.5571	0.0818761374684982	18	diastole	43	A	737.5583956554606	coherent
481.7161	0.0818761374684982	18	diastole	44	B	500.0	coherent
481.8745	0.0818761374684982	18	diastole	45	A	737.5583956554606	coherent
485.7038	0.0806308828759938	19	systole	1	A	2446.423693900757	streaming
485.8643	0.0806308828759938	19	systole	2	B	500.0	streaming
486.0238	0.0806308828759938	19	systole	3	A	2446.423693900757	streaming
486.3192	0.0806308828759938	19	systole	4	A	2446.423693900757	streaming
486.4784	0.0806308828759938	19	systole	5	B	500.0	streaming
486.6367	0.0806308828759938	19	systole	6	A	2446.423693900757	streaming
486.9592	0.0806308828759938	19	systole	7	A	2446.423693900757	streaming
487.1184	0.0806308828759938	19	systole	8	B	500.0	streaming
487.2767	0.0806308828759938	19	systole	9	A	2446.423693900757	streaming
487.6096	0.0806308828759938	19	systole	10	A	2446.423693900757	streaming
487.7688	0.0806308828759938	19	systole	11	B	500.0	streaming
487.9271	0.0806308828759938	19	systole	12	A	2446.423693900757	streaming
488.2242	0.0806308828759938	19	systole	13	A	2446.423693900757	streaming
488.382	0.0806308828759938	19	systole	14	B	500.0	streaming
488.5388	0.0806308828759938	19	systole	15	A	2446.423693900757	streaming
488.8442	0.0806308828759938	19	systole	16	A	2446.423693900757	streaming
489.002	0.0806308828759938	19	systole	17	B	500.0	streaming
489.1588	0.0806308828759938	19	systole	18	A	2446.423693900757	streaming
489.4705	0.0806308828759938	19	systole	19	A	2446.423693900757	streaming
489.6272	0.0806308828759938	19	systole	20	B	500.0	streaming
489.783	0.0806308828759938	19	systole	21	A	2446.423693900757	streaming
490.1105	0.0806308828759938	19	systole	22	A	2446.423693900757	streaming
490.2672	0.0806308828759938	19	systole	23	B	500.0	streaming
490.423	0.0806308828759938	19	systole	24	A	2446.423693900757	streaming
490.7505	0.0806308828759938	19	systole	25	A	2446.423693900757	streaming
490.9072	0.0806308828759938	19	systole	26	B	500.0	streaming
491.063	0.0806308828759938	19	systole	27	A	2446.423693900757	streaming
491.3904	0.0806308828759938	19	systole	28	A	2446.423693900757	streaming
491.5471	0.0806308828759938	19	systole	29	B	500.0	streaming
491.703	0.0806308828759938	19	systole	30	A	2446.423693900757	streaming
492.0149	0.0806308828759938	19	systole	31	A	2446.423693900757	streaming
492.1728	0.0806308828759938	19	systole	32	B	500.0	streaming
492.3298	0.0806308828759938	19	systole	33	A	2446.423693900757	streaming
492.635	0.0806308828759938	19	systole	34	A	2446.423693900757	streaming
492.7929	0.0806308828759938	19	systole	35	B	500.0	streaming
492.9499	0.0806308828759938	19	systole	36	A	2446.423693900757	streaming
493.255	0.0806308828759938	19	systole	37	A	2446.423693900757	streaming
493.4129	0.0806308828759938	19	systole	38	B	500.0	streaming
493.57	0.0806308828759938	19	systole	39	A	2446.423693900757	streaming
493.895	0.0806308828759938	19	systole	40	A	2446.423693900757	streaming
494.0529	0.0806308828759938	19	systole	41	B	500.0	streaming
494.2099	0.0806308828759938	19	systole	42	A	2446.423693900757	streaming
494.525	0.0806308828759938	19	systole	43	A	2446.423693900757	streaming
494.6829	0.0806308828759938	19	systole	44	B	500.0	streaming
494.8399	0.0806308828759938	19	systole	45	A	2446.423693900757	streaming
495.1352	0.0806308828759938	19	systole	46	A	2446.423693900757	streaming
495.2931	0.0806308828759938	19	systole	47	B	500.0	streaming
495.4502	0.0806308828759938	19	systole	48	A	2446.423693900757	streaming
500.5942	0.0793754814076237	20	diastole	1	A	2942.014383864825	streaming
500.7545	0.0793754814076237	20	diastole	2	B	500.0	streaming
500.9142	0.0793754814076237	20	diastole	3	A	2942.014383864825	streaming
501.2543	0.0793754814076237	20	diastole	4	A	2942.014383864825	streaming
501.4145	0.0793754814076237	20	diastole	5	B	500.0	streaming
501.5743	0.0793754814076237	20	diastole	6	A	2942.014383864825	streaming
501.9143	0.0793754814076237	20	diastole	7	A	2942.014383864825	streaming
502.0745	0.0793754814076237	20	diastole	8	B	500.0	streaming
502.2343	0.0793754814076237	20	diastole	9	A	2942.014383864825	streaming
502.5542	0.0793754814076237	20	diastole	10	A	2942.014383864825	streaming
502.7144	0.0793754814076237	20	diastole	11	B	500.0	streaming
502.8742	0.0793754814076237	20	diastole	12	A	2942.014383864825	streaming
503.1942	0.0793754814076237	20	diastole	13	A	2942.014383864825	streaming
503.3544	0.0793754814076237	20	diastole	14	B	500.0	streaming
503.5142	0.0793754814076237	20	diastole	15	A	2942.014383864825	streaming
503.8542	0.0793754814076237	20	diastole	16	A	2942.014383864825	streaming
504.0144	0.0793754814076237	20	diastole	17	B	500.0	streaming
504.1742	0.0793754814076237	20	diastole	18	A	2942.014383864825	streaming
504.5142	0.0793754814076237	20	diastole	19	A	2942.014383864825	streaming
504.6744	0.0793754814076237	20	diastole	20	B	500.0	streaming
504.8342	0.0793754814076237	20	diastole	21	A	2942.014383864825	streaming
505.1741	0.0793754814076237	20	diastole	22	A	2942.014383864825	streaming
505.3343	0.0793754814076237	20	diastole	23	B	500.0	streaming
505.4941	0.0793754814076237	20	diastole	24	A	2942.014383864825	streaming
505.834	0.0793754814076237	20	diastole	25	A	2942.014383864825	streaming
505.9942	0.0793754814076237	20	diastole	26	B	500.0	streaming
506.1539	0.0793754814076237	20	diastole	27	A	2942.014383864825	streaming
506.471	0.0793754814076237	20	diastole	28	A	2942.014383864825	streaming
506.6325	0.0793754814076237	20	diastole	29	B	500.0	streaming
506.7935	0.0793754814076237	20	diastole	30	A	2942.014383864825	streaming
507.1281	0.0793754814076237	20	diastole	31	A	2942.014383864825	streaming
507.2908	0.0793754814076237	20	diastole	32	B	500.0	streaming
507.4531	0.0793754814076237	20	diastole	33	A	2942.014383864825	streaming
507.7882	0.0793754814076237	20	diastole	34	A	2942.014383864825	streaming
507.9509	0.0793754814076237	20	diastole	35	B	500.0	streaming
508.1131	0.0793754814076237	20	diastole	36	A	2942.014383864825	streaming
508.4483	0.0793754814076237	20	diastole	37	A	2942.014383864825	streaming
508.611	0.0793754814076237	20	diastole	38	B	500.0	streaming
508.7732	0.0793754814076237	20	diastole	39	A	2942.014383864825	streaming
509.0982	0.0793754814076237	20	diastole	40	A	2942.014383864825	streaming
509.2609	0.0793754814076237	20	diastole	41	B	500.0	streaming
509.4232	0.0793754814076237	20	diastole	42	A	2942.014383864825	streaming
511.8785	0.0806220609811134	21	systole	1	A	866.753070272264	streaming
512.0401	0.0806220609811134	21	systole	2	B	500.0	streaming
512.201	0.0806220609811134	21	systole	3	A	866.753070272264	streaming
512.4984	0.0806220609811134	21	systole	4	A	866.753070272264	streaming
512.6601	0.0806220609811134	21	systole	5	B	500.0	streaming
512.8209	0.0806220609811134	21	systole	6	A	866.753070272264	streaming
513.1134	0.0806220609811134	21	systole	7	A	866.753070272264	streaming
513.2738	0.0806220609811134	21	systole	8	B	500.0	streaming
513.4335	0.0806220609811134	21	systole	9	A	866.753070272264	streaming
513.7534	0.0806220609811134	21	systole	10	A	866.753070272264	streaming
513.9138	0.0806220609811134	21	systole	11	B	500.0	streaming
514.0734	0.0806220609811134	21	systole	12	A	866.753070272264	streaming
514.3934	0.0806220609811134	21	systole	13	A	866.753070272264	streaming
514.5538	0.0806220609811134	21	systole	14	B	500.0	streaming
514.7134	0.0806220609811134	21	systole	15	A	866.753070272264	streaming
515.0334	0.0806220609811134	21	systole	16	A	866.753070272264	streaming
515.1937	0.0806220609811134	21	systole	17	B	500.0	streaming
515.3533	0.0806220609811134	21	systole	18	A	866.753070272264	streaming
515.6734	0.0806220609811134	21	systole	19	A	866.753070272264	streaming
515.8338	0.0806220609811134	21	systole	20	B	500.0	streaming
515.9934	0.0806220609811134	21	systole	21	A	866.753070272264	streaming
516.3135	0.0806220609811134	21	systole	22	A	866.753070272264	streaming
516.4738	0.0806220609811134	21	systole	23	B	500.0	streaming
516.6335	0.0806220609811134	21	systole	24	A	866.753070272264	streaming
516.9731	0.0806220609811134	21	systole	25	A	866.753070272264	streaming
517.1335	0.0806220609811134	21	systole	26	B	500.0	streaming
517.2931	0.0806220609811134	21	systole	27	A	866.753070272264	streaming
517.6327	0.0806220609811134	21	systole	28	A	866.753070272264	streaming
517.793	0.0806220609811134	21	systole	29	B	500.0	streaming
517.9527	0.0806220609811134	21	systole	30	A	866.753070272264	streaming
518.2922	0.0806220609811134	21	systole	31	A	866.753070272264	streaming
518.4526	0.0806220609811134	21	systole	32	B	500.0	streaming
518.6123	0.0806220609811134	21	systole	33	A	866.753070272264	streaming
518.9623	0.0806220609811134	21	systole	34	A	866.753070272264	streaming
519.1227	0.0806220609811134	21	systole	35	B	500.0	streaming
519.2823	0.0806220609811134	21	systole	36	A	866.753070272264	streaming
519.6324	0.0806220609811134	21	systole	37	A	866.753070272264	streaming
519.7927	0.0806220609811134	21	systole	38	B	500.0	streaming
519.9524	0.0806220609811134	21	systole	39	A	866.753070272264	streaming
520.3024	0.0806220609811134	21	systole	40	A	866.753070272264	streaming
520.4628	0.0806220609811134	21	systole	41	B	500.0	streaming
520.6224	0.0806220609811134	21	systole	42	A	866.753070272264	streaming
520.9725	0.0806220609811134	21	systole	43	A	866.753070272264	streaming
521.1328	0.0806220609811134	21	systole	44	B	500.0	streaming
521.2925	0.0806220609811134	21	systole	45	A	866.753070272264	streaming
524.0597	0.0837604102562181	22	diastole	1	A	772.3687435845811	streaming
524.2263	0.0837604102562181	22	diastole	2	B	500.0	streaming
524.3923	0.0837604102562181	22	diastole	3	A	772.3687435845811	streaming
524.6926	0.0837604102562181	22	diastole	4	A	772.3687435845811	streaming
524.8579	0.0837604102562181	22	diastole	5	B	500.0	streaming
525.0226	0.0837604102562181	22	diastole	6	A	772.3687435845811	streaming
525.3325	0.0837604102562181	22	diastole	7	A	772.3687435845811	streaming
525.4978	0.0837604102562181	22	diastole	8	B	500.0	streaming
525.6625	0.0837604102562181	22	diastole	9	A	772.3687435845811	streaming
525.9726	0.0837604102562181	22	diastole	10	A	772.3687435845811	streaming
526.1379	0.0837604102562181	22	diastole	11	B	500.0	streaming
526.3026	0.0837604102562181	22	diastole	12	A	772.3687435845811	streaming
526.6155	0.0837604102562181	22	diastole	13	A	772.3687435845811	streaming
526.7796	0.0837604102562181	22	diastole	14	B	500.0	streaming
526.943	0.0837604102562181	22	diastole	15	A	772.3687435845811	streaming
527.2483	0.0837604102562181	22	diastole	16	A	772.3687435845811	streaming
527.4111	0.0837604102562181	22	diastole	17	B	500.0	streaming
527.5733	0.0837604102562181	22	diastole	18	A	772.3687435845811	streaming
527.8884	0.0837604102562181	22	diastole	19	A	772.3687435845811	streaming
528.0513	0.0837604102562181	22	diastole	20	B	500.0	streaming
528.2135	0.0837604102562181	22	diastole	21	A	772.3687435845811	streaming
528.5286	0.0837604102562181	22	diastole	22	A	772.3687435845811	streaming
528.6914	0.0837604102562181	22	diastole	23	B	500.0	streaming
528.8536	0.0837604102562181	22	diastole	24	A	772.3687435845811	streaming
529.1785	0.0837604102562181	22	diastole	25	A	772.3687435845811	streaming
529.3414	0.0837604102562181	22	diastole	26	B	500.0	streaming
529.5035	0.0837604102562181	22	diastole	27	A	772.3687435845811	streaming
529.8485	0.0837604102562181	22	diastole	28	A	772.3687435845811	streaming
530.0113	0.0837604102562181	22	diastole	29	B	500.0	streaming
530.1735	0.0837604102562181	22	diastole	30	A	772.3687435845811	streaming
530.4816	0.0837604102562181	22	diastole	31	A	772.3687435845811	streaming
530.6431	0.0837604102562181	22	diastole	32	B	500.0	streaming
530.8041	0.0837604102562181	22	diastole	33	A	772.3687435845811	streaming
531.1216	0.0837604102562181	22	diastole	34	A	772.3687435845811	streaming
531.2832	0.0837604102562181	22	diastole	35	B	500.0	streaming
531.4442	0.0837604102562181	22	diastole	36	A	772.3687435845811	streaming
531.7786	0.0837604102562181	22	diastole	37	A	772.3687435845811	streaming
531.9414	0.0837604102562181	22	diastole	38	B	500.0	streaming
532.1036	0.0837604102562181	22	diastole	39	A	772.3687435845811	streaming
532.4287	0.0837604102562181	22	diastole	40	A	772.3687435845811	streaming
532.5915	0.0837604102562181	22	diastole	41	B	500.0	streaming
532.7537	0.0837604102562181	22	diastole	42	A	772.3687435845811	streaming
533.0883	0.0837604102562181	22	diastole	43	A	772.3687435845811	streaming
533.2511	0.0837604102562181	22	diastole	44	B	500.0	streaming
533.4133	0.0837604102562181	22	diastole	45	A	772.3687435845811	streaming
536.3212	0.081252489821054	23	diastole	1	A	3080.8678562380856	streaming
536.4828	0.081252489821054	23	diastole	2	B	500.0	streaming
536.6437	0.081252489821054	23	diastole	3	A	3080.8678562380856	streaming
536.9512	0.081252489821054	23	diastole	4	A	3080.8678562380856	streaming
537.1127	0.081252489821054	23	diastole	5	B	500.0	streaming
537.2738	0.081252489821054	23	diastole	6	A	3080.8678562380856	streaming
537.5913	0.081252489821054	23	diastole	7	A	3080.8678562380856	streaming
537.7528	0.081252489821054	23	diastole	8	B	500.0	streaming
537.9138	0.081252489821054	23	diastole	9	A	3080.8678562380856	streaming
538.2242	0.081252489821054	23	diastole	10	A	3080.8678562380856	streaming
538.3845	0.081252489821054	23	diastole	11	B	500.0	streaming
538.5443	0.081252489821054	23	diastole	12	A	3080.8678562380856	streaming
538.8643	0.081252489821054	23	diastole	13	A	3080.8678562380856	streaming
539.0245	0.081252489821054	23	diastole	14	B	500.0	streaming
539.1843	0.081252489821054	23	diastole	15	A	3080.8678562380856	streaming
539.5242	0.081252489821054	23	diastole	16	A	3080.8678562380856	streaming
539.6845	0.081252489821054	23	diastole	17	B	500.0	streaming
539.8443	0.081252489821054	23	diastole	18	A	3080.8678562380856	streaming
540.1742	0.081252489821054	23	diastole	19	A	3080.8678562380856	streaming
540.3345	0.081252489821054	23	diastole	20	B	500.0	streaming
540.4943	0.081252489821054	23	diastole	21	A	3080.8678562380856	streaming
540.8042	0.081252489821054	23	diastole	22	A	3080.8678562380856	streaming
540.9645	0.081252489821054	23	diastole	23	B	500.0	streaming
541.1242	0.081252489821054	23	diastole	24	A	3080.8678562380856	streaming
541.4342	0.081252489821054	23	diastole	25	A	3080.8678562380856	streaming
541.5945	0.081252489821054	23	diastole	26	B	500.0	streaming
541.7542	0.081252489821054	23	diastole	27	A	3080.8678562380856	streaming
542.1042	0.081252489821054	23	diastole	28	A	3080.8678562380856	streaming
542.2645	0.081252489821054	23	diastole	29	B	500.0	streaming
542.4243	0.081252489821054	23	diastole	30	A	3080.8678562380856	streaming
542.7742	0.081252489821054	23	diastole	31	A	3080.8678562380856	streaming
542.9345	0.081252489821054	23	diastole	32	B	500.0	streaming
543.0942	0.081252489821054	23	diastole	33	A	3080.8678562380856	streaming
543.4413	0.081252489821054	23	diastole	34	A	3080.8678562380856	streaming
543.6028	0.081252489821054	23	diastole	35	B	500.0	streaming
543.7638	0.081252489821054	23	diastole	36	A	3080.8678562380856	streaming
544.0983	0.081252489821054	23	diastole	37	A	3080.8678562380856	streaming
544.2611	0.081252489821054	23	diastole	38	B	500.0	streaming
544.4233	0.081252489821054	23	diastole	39	A	3080.8678562380856	streaming
544.7384	0.081252489821054	23	diastole	40	A	3080.8678562380856	streaming
544.9011	0.081252489821054	23	diastole	41	B	500.0	streaming
545.0634	0.081252489821054	23	diastole	42	A	3080.8678562380856	streaming
545.3783	0.081252489821054	23	diastole	43	A	3080.8678562380856	streaming
545.5411	0.081252489821054	23	diastole	44	B	500.0	streaming
545.7033	0.081252489821054	23	diastole	45	A	3080.8678562380856	streaming
549.2885	0.0812465062481351	24	diastole	1	A	510.0000000000003	coherent
549.451	0.0812465062481351	24	diastole	2	B	500.0	coherent
549.6134	0.0812465062481351	24	diastole	3	A	510.0000000000003	coherent
549.9285	0.0812465062481351	24	diastole	4	A	510.0000000000003	coherent
550.091	0.0812465062481351	24	diastole	5	B	500.0	coherent
550.2534	0.0812465062481351	24	diastole	6	A	510.0000000000003	coherent
550.5685	0.0812465062481351	24	diastole	7	A	510.0000000000003	coherent
550.731	0.0812465062481351	24	diastole	8	B	500.0	coherent
550.8935	0.0812465062481351	24	diastole	9	A	510.0000000000003	coherent
551.1885	0.0812465062481351	24	diastole	10	A	510.0000000000003	coherent
551.351	0.0812465062481351	24	diastole	11	B	500.0	coherent
551.5135	0.0812465062481351	24	diastole	12	A	510.0000000000003	coherent
551.8085	0.0812465062481351	24	diastole	13	A	510.0000000000003	coherent
551.971	0.0812465062481351	24	diastole	14	B	500.0	coherent
552.1335	0.0812465062481351	24	diastole	15	A	510.0000000000003	coherent
552.4583	0.0812465062481351	24	diastole	16	A	510.0000000000003	coherent
552.6208	0.0812465062481351	24	diastole	17	B	500.0	coherent
552.7832	0.0812465062481351	24	diastole	18	A	510.0000000000003	coherent
553.118	0.0812465062481351	24	diastole	19	A	510.0000000000003	coherent
553.2805	0.0812465062481351	24	diastole	20	B	500.0	coherent
553.4429	0.0812465062481351	24	diastole	21	A	510.0000000000003	coherent
553.7483	0.0812465062481351	24	diastole	22	A	510.0000000000003	coherent
553.9108	0.0812465062481351	24	diastole	23	B	500.0	coherent
554.0732	0.0812465062481351	24	diastole	24	A	510.0000000000003	coherent
554.3787	0.0812465062481351	24	diastole	25	A	510.0000000000003	coherent
554.5411	0.0812465062481351	24	diastole	26	B	500.0	coherent
554.7035	0.0812465062481351	24	diastole	27	A	510.0000000000003	coherent
555.0284	0.0812465062481351	24	diastole	28	A	510.0000000000003	coherent
555.1908	0.0812465062481351	24	diastole	29	B	500.0	coherent
555.3532	0.0812465062481351	24	diastole	30	A	510.0000000000003	coherent
555.678	0.0812465062481351	24	diastole	31	A	510.0000000000003	coherent
555.8405	0.0812465062481351	24	diastole	32	B	500.0	coherent
556.0029	0.0812465062481351	24	diastole	33	A	510.0000000000003	coherent
556.34	0.0812465062481351	24	diastole	34	A	510.0000000000003	coherent
556.5024	0.0812465062481351	24	diastole	35	B	500.0	coherent
556.6648	0.0812465062481351	24	diastole	36	A	510.0000000000003	coherent
556.9801	0.0812465062481351	24	diastole	37	A	510.0000000000003	coherent
557.1426	0.0812465062481351	24	diastole	38	B	500.0	coherent
557.3051	0.0812465062481351	24	diastole	39	A	510.0000000000003	coherent
557.6201	0.0812465062481351	24	diastole	40	A	510.0000000000003	coherent
557.7826	0.0812465062481351	24	diastole	41	B	500.0	coherent
557.945	0.0812465062481351	24	diastole	42	A	510.0000000000003	coherent
558.2601	0.0812465062481351	24	diastole	43	A	510.0000000000003	coherent
558.4226	0.0812465062481351	24	diastole	44	B	500.0	coherent
558.585	0.0812465062481351	24	diastole	45	A	510.0000000000003	coherent
566.7288	0.0806257437798194	25	diastole	1	A	510.0000000000003	coherent
566.8913	0.0806257437798194	25	diastole	2	B	500.0	coherent
567.0538	0.0806257437798194	25	diastole	3	A	510.0000000000003	coherent
567.3888	0.0806257437798194	25	diastole	4	A	510.0000000000003	coherent
567.5513	0.0806257437798194	25	diastole	5	B	500.0	coherent
567.7138	0.0806257437798194	25	diastole	6	A	510.0000000000003	coherent
568.0217	0.0806257437798194	25	diastole	7	A	510.0000000000003	coherent
568.1829	0.0806257437798194	25	diastole	8	B	500.0	coherent
568.3442	0.0806257437798194	25	diastole	9	A	510.0000000000003	coherent
568.6617	0.0806257437798194	25	diastole	10	A	510.0000000000003	coherent
568.8229	0.0806257437798194	25	diastole	11	B	500.0	coherent
568.9842	0.0806257437798194	25	diastole	12	A	510.0000000000003	coherent
569.2945	0.0806257437798194	25	diastole	13	A	510.0000000000003	coherent
569.4545	0.0806257437798194	25	diastole	14	B	500.0	coherent
569.6145	0.0806257437798194	25	diastole	15	A	510.0000000000003	coherent
569.9345	0.0806257437798194	25	diastole	16	A	510.0000000000003	coherent
570.0945	0.0806257437798194	25	diastole	17	B	500.0	coherent
570.2545	0.0806257437798194	25	diastole	18	A	510.0000000000003	coherent
570.5912	0.0806257437798194	25	diastole	19	A	510.0000000000003	coherent
570.7524	0.0806257437798194	25	diastole	20	B	500.0	coherent
570.9137	0.0806257437798194	25	diastole	21	A	510.0000000000003	coherent
571.2484	0.0806257437798194	25	diastole	22	A	510.0000000000003	coherent
571.4109	0.0806257437798194	25	diastole	23	B	500.0	coherent
571.5733	0.0806257437798194	25	diastole	24	A	510.0000000000003	coherent
571.8713	0.0806257437798194	25	diastole	25	A	510.0000000000003	coherent
572.0325	0.0806257437798194	25	diastole	26	B	500.0	coherent
572.1937	0.0806257437798194	25	diastole	27	A	510.0000000000003	coherent
572.5043	0.0806257437798194	25	diastole	28	A	510.0000000000003	coherent
572.6643	0.0806257437798194	25	diastole	29	B	500.0	coherent
572.8243	0.0806257437798194	25	diastole	30	A	510.0000000000003	coherent
573.1442	0.0806257437798194	25	diastole	31	A	510.0000000000003	coherent
573.3042	0.0806257437798194	25	diastole	32	B	500.0	coherent
573.4642	0.0806257437798194	25	diastole	33	A	510.0000000000003	coherent
573.8012	0.0806257437798194	25	diastole	34	A	510.0000000000003	coherent
573.9624	0.0806257437798194	25	diastole	35	B	500.0	coherent
574.1236	0.0806257437798194	25	diastole	36	A	510.0000000000003	coherent
574.4512	0.0806257437798194	25	diastole	37	A	510.0000000000003	coherent
574.6124	0.0806257437798194	25	diastole	38	B	500.0	coherent
574.7737	0.0806257437798194	25	diastole	39	A	510.0000000000003	coherent
575.0642	0.0806257437798194	25	diastole	40	A	510.0000000000003	coherent
575.2242	0.0806257437798194	25	diastole	41	B	500.0	coherent
575.3841	0.0806257437798194	25	diastole	42	A	510.0000000000003	coherent
575.7042	0.0806257437798194	25	diastole	43	A	510.0000000000003	coherent
575.8642	0.0806257437798194	25	diastole	44	B	500.0	coherent
576.0242	0.0806257437798194	25	diastole	45	A	510.0000000000003	coherent
578.9696	0.0806263624690473	26	diastole	1	A	2874.952356810848	streaming
579.131	0.0806263624690473	26	diastole	2	B	500.0	streaming
579.2916	0.0806263624690473	26	diastole	3	A	2874.952356810848	streaming
579.6176	0.0806263624690473	26	diastole	4	A	2874.952356810848	streaming
579.7791	0.0806263624690473	26	diastole	5	B	500.0	streaming
579.9396	0.0806263624690473	26	diastole	6	A	2874.952356810848	streaming
580.2419	0.0806263624690473	26	diastole	7	A	2874.952356810848	streaming
580.4024	0.0806263624690473	26	diastole	8	B	500.0	streaming
580.5619	0.0806263624690473	26	diastole	9	A	2874.952356810848	streaming
580.8976	0.0806263624690473	26	diastole	10	A	2874.952356810848	streaming
581.0591	0.0806263624690473	26	diastole	11	B	500.0	streaming
581.2196	0.0806263624690473	26	diastole	12	A	2874.952356810848	streaming
581.5476	0.0806263624690473	26	diastole	13	A	2874.952356810848	streaming
581.7091	0.0806263624690473	26	diastole	14	B	500.0	streaming
581.8697	0.0806263624690473	26	diastole	15	A	2874.952356810848	streaming
582.225	0.0806263624690473	26	diastole	16	A	2874.952356810848	streaming
582.3877	0.0806263624690473	26	diastole	17	B	500.0	streaming
582.5495	0.0806263624690473	26	diastole	18	A	2874.952356810848	streaming
582.8758	0.0806263624690473	26	diastole	19	A	2874.952356810848	streaming
583.0387	0.0806263624690473	26	diastole	20	B	500.0	streaming
583.2007	0.0806263624690473	26	diastole	21	A	2874.952356810848	streaming
583.5147	0.0806263624690473	26	diastole	22	A	2874.952356810848	streaming
583.6774	0.0806263624690473	26	diastole	23	B	500.0	streaming
583.8392	0.0806263624690473	26	diastole	24	A	2874.952356810848	streaming
584.1551	0.0806263624690473	26	diastole	25	A	2874.952356810848	streaming
584.3178	0.0806263624690473	26	diastole	26	B	500.0	streaming
584.4795	0.0806263624690473	26	diastole	27	A	2874.952356810848	streaming
584.8065	0.0806263624690473	26	diastole	28	A	2874.952356810848	streaming
584.9695	0.0806263624690473	26	diastole	29	B	500.0	streaming
585.1314	0.0806263624690473	26	diastole	30	A	2874.952356810848	streaming
585.4565	0.0806263624690473	26	diastole	31	A	2874.952356810848	streaming
585.6194	0.0806263624690473	26	diastole	32	B	500.0	streaming
585.7814	0.0806263624690473	26	diastole	33	A	2874.952356810848	streaming
586.1261	0.0806263624690473	26	diastole	34	A	2874.952356810848	streaming
586.289	0.0806263624690473	26	diastole	35	B	500.0	streaming
586.451	0.0806263624690473	26	diastole	36	A	2874.952356810848	streaming
586.7661	0.0806263624690473	26	diastole	37	A	2874.952356810848	streaming
586.929	0.0806263624690473	26	diastole	38	B	500.0	streaming
587.091	0.0806263624690473	26	diastole	39	A	2874.952356810848	streaming
587.4061	0.0806263624690473	26	diastole	40	A	2874.952356810848	streaming
587.569	0.0806263624690473	26	diastole	41	B	500.0	streaming
587.731	0.0806263624690473	26	diastole	42	A	2874.952356810848	streaming
588.0557	0.0806263624690473	26	diastole	43	A	2874.952356810848	streaming
588.2187	0.0806263624690473	26	diastole	44	B	500.0	streaming
588.3806	0.0806263624690473	26	diastole	45	A	2874.952356810848	streaming
591.3185	0.0812743624555878	27	diastole	1	A	534.0703346994981	coherent
591.481	0.0812743624555878	27	diastole	2	B	500.0	coherent
591.6434	0.0812743624555878	27	diastole	3	A	534.0703346994981	coherent
591.9586	0.0812743624555878	27	diastole	4	A	534.0703346994981	coherent
592.1211	0.0812743624555878	27	diastole	5	B	500.0	coherent
592.2835	0.0812743624555878	27	diastole	6	A	534.0703346994981	coherent
592.5986	0.0812743624555878	27	diastole	7	A	534.0703346994981	coherent
592.7611	0.0812743624555878	27	diastole	8	B	500.0	coherent
592.9235	0.0812743624555878	27	diastole	9	A	534.0703346994981	coherent
593.2387	0.0812743624555878	27	diastole	10	A	534.0703346994981	coherent
593.4012	0.0812743624555878	27	diastole	11	B	500.0	coherent
593.5636	0.0812743624555878	27	diastole	12	A	534.0703346994981	coherent
593.8991	0.0812743624555878	27	diastole	13	A	534.0703346994981	coherent
594.0617	0.0812743624555878	27	diastole	14	B	500.0	coherent
594.2242	0.0812743624555878	27	diastole	15	A	534.0703346994981	coherent
594.5382	0.0812743624555878	27	diastole	16	A	534.0703346994981	coherent
594.7007	0.0812743624555878	27	diastole	17	B	500.0	coherent
594.8631	0.0812743624555878	27	diastole	18	A	534.0703346994981	coherent
595.1778	0.0812743624555878	27	diastole	19	A	534.0703346994981	coherent
595.3403	0.0812743624555878	27	diastole	20	B	500.0	coherent
595.5027	0.0812743624555878	27	diastole	21	A	534.0703346994981	coherent
595.8115	0.0812743624555878	27	diastole	22	A	534.0703346994981	coherent
595.9728	0.0812743624555878	27	diastole	23	B	500.0	coherent
596.134	0.0812743624555878	27	diastole	24	A	534.0703346994981	coherent
596.4517	0.0812743624555878	27	diastole	25	A	534.0703346994981	coherent
596.613	0.0812743624555878	27	diastole	26	B	500.0	coherent
596.7743	0.0812743624555878	27	diastole	27	A	534.0703346994981	coherent
597.0747	0.0812743624555878	27	diastole	28	A	534.0703346994981	coherent
597.2348	0.0812743624555878	27	diastole	29	B	500.0	coherent
597.3948	0.0812743624555878	27	diastole	30	A	534.0703346994981	coherent
597.7044	0.0812743624555878	27	diastole	31	A	534.0703346994981	coherent
597.8644	0.0812743624555878	27	diastole	32	B	500.0	coherent
598.0244	0.0812743624555878	27	diastole	33	A	534.0703346994981	coherent
598.3344	0.0812743624555878	27	diastole	34	A	534.0703346994981	coherent
598.4945	0.0812743624555878	27	diastole	35	B	500.0	coherent
598.6544	0.0812743624555878	27	diastole	36	A	534.0703346994981	coherent
598.9846	0.0812743624555878	27	diastole	37	A	534.0703346994981	coherent
599.1447	0.0812743624555878	27	diastole	38	B	500.0	coherent
599.3047	0.0812743624555878	27	diastole	39	A	534.0703346994981	coherent
599.6346	0.0812743624555878	27	diastole	40	A	534.0703346994981	coherent
599.7947	0.0812743624555878	27	diastole	41	B	500.0	coherent
599.9547	0.0812743624555878	27	diastole	42	A	534.0703346994981	coherent
600.2843	0.0812743624555878	27	diastole	43	A	534.0703346994981	coherent
600.4444	0.0812743624555878	27	diastole	44	B	500.0	coherent
600.6044	0.0812743624555878	27	diastole	45	A	534.0703346994981	coherent
603.2088	0.0806050687679089	28	systole	1	A	546.5282243579111	coherent
603.3701	0.0806050687679089	28	systole	2	B	500.0	coherent
603.5312	0.0806050687679089	28	systole	3	A	546.5282243579111	coherent
603.8488	0.0806050687679089	28	systole	4	A	546.5282243579111	coherent
604.01	0.0806050687679089	28	systole	5	B	500.0	coherent
604.1712	0.0806050687679089	28	systole	6	A	546.5282243579111	coherent
604.5032	0.0806050687679089	28	systole	7	A	546.5282243579111	coherent
604.6658	0.0806050687679089	28	systole	8	B	500.0	coherent
604.8281	0.0806050687679089	28	systole	9	A	546.5282243579111	coherent
605.1342	0.0806050687679089	28	systole	10	A	546.5282243579111	coherent
605.2942	0.0806050687679089	28	systole	11	B	500.0	coherent
605.4542	0.0806050687679089	28	systole	12	A	546.5282243579111	coherent
605.774	0.0806050687679089	28	systole	13	A	546.5282243579111	coherent
605.9341	0.0806050687679089	28	systole	14	B	500.0	coherent
606.094	0.0806050687679089	28	systole	15	A	546.5282243579111	coherent
606.4036	0.0806050687679089	28	systole	16	A	546.5282243579111	coherent
606.5637	0.0806050687679089	28	systole	17	B	500.0	coherent
606.7236	0.0806050687679089	28	systole	18	A	546.5282243579111	coherent
607.0332	0.0806050687679089	28	systole	19	A	546.5282243579111	coherent
607.1933	0.0806050687679089	28	systole	20	B	500.0	coherent
607.3532	0.0806050687679089	28	systole	21	A	546.5282243579111	coherent
607.6636	0.0806050687679089	28	systole	22	A	546.5282243579111	coherent
607.8237	0.0806050687679089	28	systole	23	B	500.0	coherent
607.9836	0.0806050687679089	28	systole	24	A	546.5282243579111	coherent
608.294	0.0806050687679089	28	systole	25	A	546.5282243579111	coherent
608.4541	0.0806050687679089	28	systole	26	B	500.0	coherent
608.614	0.0806050687679089	28	systole	27	A	546.5282243579111	coherent
608.9192	0.0806050687679089	28	systole	28	A	546.5282243579111	coherent
609.0781	0.0806050687679089	28	systole	29	B	500.0	coherent
609.2368	0.0806050687679089	28	systole	30	A	546.5282243579111	coherent
609.5795	0.0806050687679089	28	systole	31	A	546.5282243579111	coherent
609.7384	0.0806050687679089	28	systole	32	B	500.0	coherent
609.8971	0.0806050687679089	28	systole	33	A	546.5282243579111	coherent
610.2399	0.0806050687679089	28	systole	34	A	546.5282243579111	coherent
610.3987	0.0806050687679089	28	systole	35	B	500.0	coherent
610.5575	0.0806050687679089	28	systole	36	A	546.5282243579111	coherent
610.9002	0.0806050687679089	28	systole	37	A	546.5282243579111	coherent
611.0591	0.0806050687679089	28	systole	38	B	500.0	coherent
611.2178	0.0806050687679089	28	systole	39	A	546.5282243579111	coherent
611.5606	0.0806050687679089	28	systole	40	A	546.5282243579111	coherent
611.7194	0.0806050687679089	28	systole	41	B	500.0	coherent
611.8781	0.0806050687679089	28	systole	42	A	546.5282243579111	coherent
612.2206	0.0806050687679089	28	systole	43	A	546.5282243579111	coherent
612.3794	0.0806050687679089	28	systole	44	B	500.0	coherent
612.5382	0.0806050687679089	28	systole	45	A	546.5282243579111	coherent
615.7791	0.081353506189771	29	diastole	1	A	2745.3794129915964	streaming
615.9423	0.081353506189771	29	diastole	2	B	500.0	streaming
616.1045	0.081353506189771	29	diastole	3	A	2745.3794129915964	streaming
616.4288	0.081353506189771	29	diastole	4	A	2745.3794129915964	streaming
616.592	0.081353506189771	29	diastole	5	B	500.0	streaming
616.7542	0.081353506189771	29	diastole	6	A	2745.3794129915964	streaming
617.0674	0.081353506189771	29	diastole	7	A	2745.3794129915964	streaming
617.2303	0.081353506189771	29	diastole	8	B	500.0	streaming
617.3923	0.081353506189771	29	diastole	9	A	2745.3794129915964	streaming
617.6871	0.081353506189771	29	diastole	10	A	2745.3794129915964	streaming
617.85	0.081353506189771	29	diastole	11	B	500.0	streaming
618.012	0.081353506189771	29	diastole	12	A	2745.3794129915964	streaming
618.3262	0.081353506189771	29	diastole	13	A	2745.3794129915964	streaming
618.4889	0.081353506189771	29	diastole	14	B	500.0	streaming
618.6507	0.081353506189771	29	diastole	15	A	2745.3794129915964	streaming
618.9775	0.081353506189771	29	diastole	16	A	2745.3794129915964	streaming
619.1404	0.081353506189771	29	diastole	17	B	500.0	streaming
619.3024	0.081353506189771	29	diastole	18	A	2745.3794129915964	streaming
619.628	0.081353506189771	29	diastole	19	A	2745.3794129915964	streaming
619.7909	0.081353506189771	29	diastole	20	B	500.0	streaming
619.9528	0.081353506189771	29	diastole	21	A	2745.3794129915964	streaming
620.2784	0.081353506189771	29	diastole	22	A	2745.3794129915964	streaming
620.4413	0.081353506189771	29	diastole	23	B	500.0	streaming
620.6032	0.081353506189771	29	diastole	24	A	2745.3794129915964	streaming
620.939	0.081353506189771	29	diastole	25	A	2745.3794129915964	streaming
621.1019	0.081353506189771	29	diastole	26	B	500.0	streaming
621.264	0.081353506189771	29	diastole	27	A	2745.3794129915964	streaming
621.5989	0.081353506189771	29	diastole	28	A	2745.3794129915964	streaming
621.7619	0.081353506189771	29	diastole	29	B	500.0	streaming
621.9239	0.081353506189771	29	diastole	30	A	2745.3794129915964	streaming
622.2305	0.081353506189771	29	diastole	31	A	2745.3794129915964	streaming
622.392	0.081353506189771	29	diastole	32	B	500.0	streaming
622.5526	0.081353506189771	29	diastole	33	A	2745.3794129915964	streaming
622.8809	0.081353506189771	29	diastole	34	A	2745.3794129915964	streaming
623.0424	0.081353506189771	29	diastole	35	B	500.0	streaming
623.2029	0.081353506189771	29	diastole	36	A	2745.3794129915964	streaming
623.5312	0.081353506189771	29	diastole	37	A	2745.3794129915964	streaming
623.6927	0.081353506189771	29	diastole	38	B	500.0	streaming
623.8533	0.081353506189771	29	diastole	39	A	2745.3794129915964	streaming
624.1816	0.081353506189771	29	diastole	40	A	2745.3794129915964	streaming
624.3431	0.081353506189771	29	diastole	41	B	500.0	streaming
624.5036	0.081353506189771	29	diastole	42	A	2745.3794129915964	streaming
624.8229	0.081353506189771	29	diastole	43	A	2745.3794129915964	streaming
624.9847	0.081353506189771	29	diastole	44	B	500.0	streaming
625.1455	0.081353506189771	29	diastole	45	A	2745.3794129915964	streaming
627.604	0.0799976562848314	30	systole	1	A	2446.423693900757	streaming
627.7644	0.0799976562848314	30	systole	2	B	500.0	streaming
627.924	0.0799976562848314	30	systole	3	A	2446.423693900757	streaming
628.2195	0.0799976562848314	30	systole	4	A	2446.423693900757	streaming
628.3787	0.0799976562848314	30	systole	5	B	500.0	streaming
628.537	0.0799976562848314	30	systole	6	A	2446.423693900757	streaming
628.8395	0.0799976562848314	30	systole	7	A	2446.423693900757	streaming
628.9986	0.0799976562848314	30	systole	8	B	500.0	streaming
629.1569	0.0799976562848314	30	systole	9	A	2446.423693900757	streaming
629.4594	0.0799976562848314	30	systole	10	A	2446.423693900757	streaming
629.6186	0.0799976562848314	30	systole	11	B	500.0	streaming
629.7769	0.0799976562848314	30	systole	12	A	2446.423693900757	streaming
630.0994	0.0799976562848314	30	systole	13	A	2446.423693900757	streaming
630.2586	0.0799976562848314	30	systole	14	B	500.0	streaming
630.4169	0.0799976562848314	30	systole	15	A	2446.423693900757	streaming
630.7394	0.0799976562848314	30	systole	16	A	2446.423693900757	streaming
630.8986	0.0799976562848314	30	systole	17	B	500.0	streaming
631.0569	0.0799976562848314	30	systole	18	A	2446.423693900757	streaming
631.384	0.0799976562848314	30	systole	19	A	2446.423693900757	streaming
631.5444	0.0799976562848314	30	systole	20	B	500.0	streaming
631.7039	0.0799976562848314	30	systole	21	A	2446.423693900757	streaming
632.034	0.0799976562848314	30	systole	22	A	2446.423693900757	streaming
632.1944	0.0799976562848314	30	systole	23	B	500.0	streaming
632.354	0.0799976562848314	30	systole	24	A	2446.423693900757	streaming
632.684	0.0799976562848314	30	systole	25	A	2446.423693900757	streaming
632.8444	0.0799976562848314	30	systole	26	B	500.0	streaming
633.004	0.0799976562848314	30	systole	27	A	2446.423693900757	streaming
633.374	0.0799976562848314	30	systole	28	A	2446.423693900757	streaming
633.5344	0.0799976562848314	30	systole	29	B	500.0	streaming
633.694	0.0799976562848314	30	systole	30	A	2446.423693900757	streaming
634.0386	0.0799976562848314	30	systole	31	A	2446.423693900757	streaming
634.2003	0.0799976562848314	30	systole	32	B	500.0	streaming
634.3612	0.0799976562848314	30	systole	33	A	2446.423693900757	streaming
634.6932	0.0799976562848314	30	systole	34	A	2446.423693900757	streaming
634.8561	0.0799976562848314	30	systole	35	B	500.0	streaming
635.0182	0.0799976562848314	30	systole	36	A	2446.423693900757	streaming
635.3678	0.0799976562848314	30	systole	37	A	2446.423693900757	streaming
635.532	0.0799976562848314	30	systole	38	B	500.0	streaming
635.6953	0.0799976562848314	30	systole	39	A	2446.423693900757	streaming
636.0424	0.0799976562848314	30	systole	40	A	2446.423693900757	streaming
636.2078	0.0799976562848314	30	systole	41	B	500.0	streaming
636.3724	0.0799976562848314	30	systole	42	A	2446.423693900757	streaming
636.6924	0.0799976562848314	30	systole	43	A	2446.423693900757	streaming
636.8578	0.0799976562848314	30	systole	44	B	500.0	streaming
637.0223	0.0799976562848314	30	systole	45	A	2446.423693900757	streaming
639.9836	0.0818797437241301	31	systole	1	A	585.6727451368844	coherent
640.1462	0.0818797437241301	31	systole	2	B	500.0	coherent
640.3086	0.0818797437241301	31	systole	3	A	585.6727451368844	coherent
640.6136	0.0818797437241301	31	systole	4	A	585.6727451368844	coherent
640.7762	0.0818797437241301	31	systole	5	B	500.0	coherent
640.9386	0.0818797437241301	31	systole	6	A	585.6727451368844	coherent
641.2436	0.0818797437241301	31	systole	7	A	585.6727451368844	coherent
641.4062	0.0818797437241301	31	systole	8	B	500.0	coherent
641.5686	0.0818797437241301	31	systole	9	A	585.6727451368844	coherent
641.8836	0.0818797437241301	31	systole	10	A	585.6727451368844	coherent
642.0462	0.0818797437241301	31	systole	11	B	500.0	coherent
642.2086	0.0818797437241301	31	systole	12	A	585.6727451368844	coherent
642.5335	0.0818797437241301	31	systole	13	A	585.6727451368844	coherent
642.6962	0.0818797437241301	31	systole	14	B	500.0	coherent
642.8585	0.0818797437241301	31	systole	15	A	585.6727451368844	coherent
643.1835	0.0818797437241301	31	systole	16	A	585.6727451368844	coherent
643.3461	0.0818797437241301	31	systole	17	B	500.0	coherent
643.5085	0.0818797437241301	31	systole	18	A	585.6727451368844	coherent
643.8106	0.0818797437241301	31	systole	19	A	585.6727451368844	coherent
643.972	0.0818797437241301	31	systole	20	B	500.0	coherent
644.1331	0.0818797437241301	31	systole	21	A	585.6727451368844	coherent
644.4344	0.0818797437241301	31	systole	22	A	585.6727451368844	coherent
644.5945	0.0818797437241301	31	systole	23	B	500.0	coherent
644.7544	0.0818797437241301	31	systole	24	A	585.6727451368844	coherent
645.0944	0.0818797437241301	31	systole	25	A	585.6727451368844	coherent
645.2545	0.0818797437241301	31	systole	26	B	500.0	coherent
645.4144	0.0818797437241301	31	systole	27	A	585.6727451368844	coherent
645.7544	0.0818797437241301	31	systole	28	A	585.6727451368844	coherent
645.9146	0.0818797437241301	31	systole	29	B	500.0	coherent
646.0744	0.0818797437241301	31	systole	30	A	585.6727451368844	coherent
646.3944	0.0818797437241301	31	systole	31	A	585.6727451368844	coherent
646.5546	0.0818797437241301	31	systole	32	B	500.0	coherent
646.7144	0.0818797437241301	31	systole	33	A	585.6727451368844	coherent
647.0345	0.0818797437241301	31	systole	34	A	585.6727451368844	coherent
647.1946	0.0818797437241301	31	systole	35	B	500.0	coherent
647.3545	0.0818797437241301	31	systole	36	A	585.6727451368844	coherent
647.6744	0.0818797437241301	31	systole	37	A	585.6727451368844	coherent
647.8345	0.0818797437241301	31	systole	38	B	500.0	coherent
647.9944	0.0818797437241301	31	systole	39	A	585.6727451368844	coherent
648.3144	0.0818797437241301	31	systole	40	A	585.6727451368844	coherent
648.4745	0.0818797437241301	31	systole	41	B	500.0	coherent
648.6344	0.0818797437241301	31	systole	42	A	585.6727451368844	coherent
648.9644	0.0818797437241301	31	systole	43	A	585.6727451368844	coherent
649.1246	0.0818797437241301	31	systole	44	B	500.0	coherent
649.2844	0.0818797437241301	31	systole	45	A	585.6727451368844	coherent
654.2942	0.0812546249944716	32	systole	1	A	2180.0224995339627	streaming
654.4572	0.0812546249944716	32	systole	2	B	500.0	streaming
654.6196	0.0812546249944716	32	systole	3	A	2180.0224995339627	streaming
654.9742	0.0812546249944716	32	systole	4	A	2180.0224995339627	streaming
655.1373	0.0812546249944716	32	systole	5	B	500.0	streaming
655.2996	0.0812546249944716	32	systole	6	A	2180.0224995339627	streaming
655.6441	0.0812546249944716	32	systole	7	A	2180.0224995339627	streaming
655.8072	0.0812546249944716	32	systole	8	B	500.0	streaming
655.9696	0.0812546249944716	32	systole	9	A	2180.0224995339627	streaming
656.2937	0.0812546249944716	32	systole	10	A	2180.0224995339627	streaming
656.4568	0.0812546249944716	32	systole	11	B	500.0	streaming
656.6192	0.0812546249944716	32	systole	12	A	2180.0224995339627	streaming
656.9437	0.0812546249944716	32	systole	13	A	2180.0224995339627	streaming
657.1068	0.0812546249944716	32	systole	14	B	500.0	streaming
657.2691	0.0812546249944716	32	systole	15	A	2180.0224995339627	streaming
657.5937	0.0812546249944716	32	systole	16	A	2180.0224995339627	streaming
657.7568	0.0812546249944716	32	systole	17	B	500.0	streaming
657.9191	0.0812546249944716	32	systole	18	A	2180.0224995339627	streaming
658.2437	0.0812546249944716	32	systole	19	A	2180.0224995339627	streaming
658.4067	0.0812546249944716	32	systole	20	B	500.0	streaming
658.5691	0.0812546249944716	32	systole	21	A	2180.0224995339627	streaming
658.9037	0.0812546249944716	32	systole	22	A	2180.0224995339627	streaming
659.0667	0.0812546249944716	32	systole	23	B	500.0	streaming
659.2291	0.0812546249944716	32	systole	24	A	2180.0224995339627	streaming
659.5637	0.0812546249944716	32	systole	25	A	2180.0224995339627	streaming
659.7267	0.0812546249944716	32	systole	26	B	500.0	streaming
659.8891	0.0812546249944716	32	systole	27	A	2180.0224995339627	streaming
660.213	0.0812546249944716	32	systole	28	A	2180.0224995339627	streaming
660.3759	0.0812546249944716	32	systole	29	B	500.0	streaming
660.538	0.0812546249944716	32	systole	30	A	2180.0224995339627	streaming
660.863	0.0812546249944716	32	systole	31	A	2180.0224995339627	streaming
661.0259	0.0812546249944716	32	systole	32	B	500.0	streaming
661.188	0.0812546249944716	32	systole	33	A	2180.0224995339627	streaming
661.533	0.0812546249944716	32	systole	34	A	2180.0224995339627	streaming
661.6959	0.0812546249944716	32	systole	35	B	500.0	streaming
661.858	0.0812546249944716	32	systole	36	A	2180.0224995339627	streaming
662.203	0.0812546249944716	32	systole	37	A	2180.0224995339627	streaming
662.3659	0.0812546249944716	32	systole	38	B	500.0	streaming
662.528	0.0812546249944716	32	systole	39	A	2180.0224995339627	streaming
662.8531	0.0812546249944716	32	systole	40	A	2180.0224995339627	streaming
663.0159	0.0812546249944716	32	systole	41	B	500.0	streaming
663.1781	0.0812546249944716	32	systole	42	A	2180.0224995339627	streaming
663.4831	0.0812546249944716	32	systole	43	A	2180.0224995339627	streaming
663.6459	0.0812546249944716	32	systole	44	B	500.0	streaming
663.8081	0.0812546249944716	32	systole	45	A	2180.0224995339627	streaming
664.133	0.0812546249944716	32	systole	46	A	2180.0224995339627	streaming
664.2958	0.0812546249944716	32	systole	47	B	500.0	streaming
664.458	0.0812546249944716	32	systole	48	A	2180.0224995339627	streaming
668.0536	0.0812531937262974	33	systole	1	A	627.6209518715393	coherent
668.2163	0.0812531937262974	33	systole	2	B	500.0	coherent
668.3786	0.0812531937262974	33	systole	3	A	627.6209518715393	coherent
668.7036	0.0812531937262974	33	systole	4	A	627.6209518715393	coherent
668.8663	0.0812531937262974	33	systole	5	B	500.0	coherent
669.0287	0.0812531937262974	33	systole	6	A	627.6209518715393	coherent
669.3536	0.0812531937262974	33	systole	7	A	627.6209518715393	coherent
669.5163	0.0812531937262974	33	systole	8	B	500.0	coherent
669.6787	0.0812531937262974	33	systole	9	A	627.6209518715393	coherent
670.0279	0.0812531937262974	33	systole	10	A	627.6209518715393	coherent
670.1918	0.0812531937262974	33	systole	11	B	500.0	coherent
670.3554	0.0812531937262974	33	systole	12	A	627.6209518715393	coherent
