onset	duration	trial_num	trial_type	tone_num	tone_type	frequency	response
284.8424	0.0719837983779143	1	systole	1	A	1578.5670027440333	coherent
284.986	0.0719837983779143	1	systole	2	B	500.0	coherent
285.1303	0.0719837983779143	1	systole	3	A	1578.5670027440333	coherent
285.4624	0.0719837983779143	1	systole	4	A	1578.5670027440333	coherent
285.606	0.0719837983779143	1	systole	5	B	500.0	coherent
285.7503	0.0719837983779143	1	systole	6	A	1578.5670027440333	coherent
286.0969	0.0719837983779143	1	systole	7	A	1578.5670027440333	coherent
286.2418	0.0719837983779143	1	systole	8	B	500.0	coherent
286.3874	0.0719837983779143	1	systole	9	A	1578.5670027440333	coherent
286.7508	0.0719837983779143	1	systole	10	A	1578.5670027440333	coherent
286.8967	0.0719837983779143	1	systole	11	B	500.0	coherent
287.0433	0.0719837983779143	1	systole	12	A	1578.5670027440333	coherent
287.4008	0.0719837983779143	1	systole	13	A	1578.5670027440333	coherent
287.5467	0.0719837983779143	1	systole	14	B	500.0	coherent
287.6933	0.0719837983779143	1	systole	15	A	1578.5670027440333	coherent
288.0629	0.0719837983779143	1	systole	16	A	1578.5670027440333	coherent
288.2149	0.0719837983779143	1	systole	17	B	500.0	coherent
288.3675	0.0719837983779143	1	systole	18	A	1578.5670027440333	coherent
288.6929	0.0719837983779143	1	systole	19	A	1578.5670027440333	coherent
288.8475	0.0719837983779143	1	systole	20	B	500.0	coherent
289.0029	0.0719837983779143	1	systole	21	A	1578.5670027440333	coherent
289.3129	0.0719837983779143	1	systole	22	A	1578.5670027440333	coherent
289.4675	0.0719837983779143	1	systole	23	B	500.0	coherent
289.6229	0.0719837983779143	1	systole	24	A	1578.5670027440333	coherent
289.9229	0.0719837983779143	1	systole	25	A	1578.5670027440333	coherent
290.0776	0.0719837983779143	1	systole	26	B	500.0	coherent
290.2329	0.0719837983779143	1	systole	27	A	1578.5670027440333	coherent
290.5128	0.0719837983779143	1	systole	28	A	1578.5670027440333	coherent
290.6675	0.0719837983779143	1	systole	29	B	500.0	coherent
290.8228	0.0719837983779143	1	systole	30	A	1578.5670027440333	coherent
291.1027	0.0719837983779143	1	systole	31	A	1578.5670027440333	coherent
291.2574	0.0719837983779143	1	systole	32	B	500.0	coherent
291.4128	0.0719837983779143	1	systole	33	A	1578.5670027440333	coherent
291.6828	0.0719837983779143	1	systole	34	A	1578.5670027440333	coherent
291.8375	0.0719837983779143	1	systole	35	B	500.0	coherent
291.9928	0.0719837983779143	1	systole	36	A	1578.5670027440333	coherent
292.2629	0.0719837983779143	1	systole	37	A	1578.5670027440333	coherent
292.4176	0.0719837983779143	1	systole	38	B	500.0	coherent
292.5729	0.0719837983779143	1	systole	39	A	1578.5670027440333	coherent
292.8438	0.0719837983779143	1	systole	40	A	1578.5670027440333	coherent
292.9959	0.0719837983779143	1	systole	41	B	500.0	coherent
293.1488	0.0719837983779143	1	systole	42	A	1578.5670027440333	coherent
293.4337	0.0719837983779143	1	systole	43	A	1578.5670027440333	coherent
293.5859	0.0719837983779143	1	systole	44	B	500.0	coherent
293.7388	0.0719837983779143	1	systole	45	A	1578.5670027440333	coherent
294.0237	0.0719837983779143	1	systole	46	A	1578.5670027440333	coherent
294.1759	0.0719837983779143	1	systole	47	B	500.0	coherent
294.3287	0.0719837983779143	1	systole	48	A	1578.5670027440333	coherent
310.6114	0.0756245449010748	2	diastole	1	A	1578.5670027440333	coherent
310.7624	0.0756245449010748	2	diastole	2	B	500.0	coherent
310.9139	0.0756245449010748	2	diastole	3	A	1578.5670027440333	coherent
311.2014	0.0756245449010748	2	diastole	4	A	1578.5670027440333	coherent
311.3524	0.0756245449010748	2	diastole	5	B	500.0	coherent
311.5039	0.0756245449010748	2	diastole	6	A	1578.5670027440333	coherent
311.7814	0.0756245449010748	2	diastole	7	A	1578.5670027440333	coherent
311.9323	0.0756245449010748	2	diastole	8	B	500.0	coherent
312.0839	0.0756245449010748	2	diastole	9	A	1578.5670027440333	coherent
312.3544	0.0756245449010748	2	diastole	10	A	1578.5670027440333	coherent
312.504	0.0756245449010748	2	diastole	11	B	500.0	coherent
312.6544	0.0756245449010748	2	diastole	12	A	1578.5670027440333	coherent
312.9344	0.0756245449010748	2	diastole	13	A	1578.5670027440333	coherent
313.084	0.0756245449010748	2	diastole	14	B	500.0	coherent
313.2344	0.0756245449010748	2	diastole	15	A	1578.5670027440333	coherent
313.4902	0.0756245449010748	2	diastole	16	A	1578.5670027440333	coherent
313.6374	0.0756245449010748	2	diastole	17	B	500.0	coherent
313.7852	0.0756245449010748	2	diastole	18	A	1578.5670027440333	coherent
314.0562	0.0756245449010748	2	diastole	19	A	1578.5670027440333	coherent
314.2009	0.0756245449010748	2	diastole	20	B	500.0	coherent
314.3463	0.0756245449010748	2	diastole	21	A	1578.5670027440333	coherent
314.6661	0.0756245449010748	2	diastole	22	A	1578.5670027440333	coherent
314.8108	0.0756245449010748	2	diastole	23	B	500.0	coherent
314.9562	0.0756245449010748	2	diastole	24	A	1578.5670027440333	coherent
315.276	0.0756245449010748	2	diastole	25	A	1578.5670027440333	coherent
315.4207	0.0756245449010748	2	diastole	26	B	500.0	coherent
315.5661	0.0756245449010748	2	diastole	27	A	1578.5670027440333	coherent
315.946	0.0756245449010748	2	diastole	28	A	1578.5670027440333	coherent
316.0907	0.0756245449010748	2	diastole	29	B	500.0	coherent
316.2361	0.0756245449010748	2	diastole	30	A	1578.5670027440333	coherent
316.596	0.0756245449010748	2	diastole	31	A	1578.5670027440333	coherent
316.7406	0.0756245449010748	2	diastole	32	B	500.0	coherent
316.886	0.0756245449010748	2	diastole	33	A	1578.5670027440333	coherent
317.2459	0.0756245449010748	2	diastole	34	A	1578.5670027440333	coherent
317.3905	0.0756245449010748	2	diastole	35	B	500.0	coherent
317.5359	0.0756245449010748	2	diastole	36	A	1578.5670027440333	coherent
317.9272	0.0756245449010748	2	diastole	37	A	1578.5670027440333	coherent
318.0756	0.0756245449010748	2	diastole	38	B	500.0	coherent
318.2247	0.0756245449010748	2	diastole	39	A	1578.5670027440333	coherent
318.6094	0.0756245449010748	2	diastole	40	A	1578.5670027440333	coherent
318.7653	0.0756245449010748	2	diastole	41	B	500.0	coherent
318.9219	0.0756245449010748	2	diastole	42	A	1578.5670027440333	coherent
319.2979	0.0756245449010748	2	diastole	43	A	1578.5670027440333	coherent
319.4587	0.0756245449010748	2	diastole	44	B	500.0	coherent
319.6203	0.0756245449010748	2	diastole	45	A	1578.5670027440333	coherent
319.9578	0.0756245449010748	2	diastole	46	A	1578.5670027440333	coherent
320.1187	0.0756245449010748	2	diastole	47	B	500.0	coherent
320.2803	0.0756245449010748	2	diastole	48	A	1578.5670027440333	coherent
324.2264	0.079993885330623	3	diastole	1	A	2180.0224995339627	coherent
324.3839	0.079993885330623	3	diastole	2	B	500.0	coherent
324.5414	0.079993885330623	3	diastole	3	A	2180.0224995339627	coherent
324.7881	0.079993885330623	3	diastole	4	A	2180.0224995339627	coherent
324.9407	0.079993885330623	3	diastole	5	B	500.0	coherent
325.0931	0.079993885330623	3	diastole	6	A	2180.0224995339627	coherent
325.3569	0.079993885330623	3	diastole	7	A	2180.0224995339627	coherent
325.5058	0.079993885330623	3	diastole	8	B	500.0	coherent
325.6545	0.079993885330623	3	diastole	9	A	2180.0224995339627	coherent
325.947	0.079993885330623	3	diastole	10	A	2180.0224995339627	coherent
326.0958	0.079993885330623	3	diastole	11	B	500.0	coherent
326.2445	0.079993885330623	3	diastole	12	A	2180.0224995339627	coherent
326.5469	0.079993885330623	3	diastole	13	A	2180.0224995339627	coherent
326.6958	0.079993885330623	3	diastole	14	B	500.0	coherent
326.8445	0.079993885330623	3	diastole	15	A	2180.0224995339627	coherent
327.157	0.079993885330623	3	diastole	16	A	2180.0224995339627	coherent
327.3058	0.079993885330623	3	diastole	17	B	500.0	coherent
327.4545	0.079993885330623	3	diastole	18	A	2180.0224995339627	coherent
327.767	0.079993885330623	3	diastole	19	A	2180.0224995339627	coherent
327.9158	0.079993885330623	3	diastole	20	B	500.0	coherent
328.0645	0.079993885330623	3	diastole	21	A	2180.0224995339627	coherent
328.387	0.079993885330623	3	diastole	22	A	2180.0224995339627	coherent
328.5358	0.079993885330623	3	diastole	23	B	500.0	coherent
328.6845	0.079993885330623	3	diastole	24	A	2180.0224995339627	coherent
329.0069	0.079993885330623	3	diastole	25	A	2180.0224995339627	coherent
329.1558	0.079993885330623	3	diastole	26	B	500.0	coherent
329.3044	0.079993885330623	3	diastole	27	A	2180.0224995339627	coherent
329.651	0.079993885330623	3	diastole	28	A	2180.0224995339627	coherent
329.8023	0.079993885330623	3	diastole	29	B	500.0	coherent
329.9535	0.079993885330623	3	diastole	30	A	2180.0224995339627	coherent
330.2682	0.079993885330623	3	diastole	31	A	2180.0224995339627	coherent
330.4207	0.079993885330623	3	diastole	32	B	500.0	coherent
330.5732	0.079993885330623	3	diastole	33	A	2180.0224995339627	coherent
330.8782	0.079993885330623	3	diastole	34	A	2180.0224995339627	coherent
331.0307	0.079993885330623	3	diastole	35	B	500.0	coherent
331.1832	0.079993885330623	3	diastole	36	A	2180.0224995339627	coherent
331.4882	0.079993885330623	3	diastole	37	A	2180.0224995339627	coherent
331.6408	0.079993885330623	3	diastole	38	B	500.0	coherent
331.7932	0.079993885330623	3	diastole	39	A	2180.0224995339627	coherent
332.0782	0.079993885330623	3	diastole	40	A	2180.0224995339627	coherent
332.2307	0.079993885330623	3	diastole	41	B	500.0	coherent
332.3832	0.079993885330623	3	diastole	42	A	2180.0224995339627	coherent
332.6583	0.079993885330623	3	diastole	43	A	2180.0224995339627	coherent
332.8108	0.079993885330623	3	diastole	44	B	500.0	coherent
332.9633	0.079993885330623	3	diastole	45	A	2180.0224995339627	coherent
342.4006	0.0800046775839291	4	systole	1	A	2180.0224995339627	coherent
342.5607	0.0800046775839291	4	systole	2	B	500.0	coherent
342.7206	0.0800046775839291	4	systole	3	A	2180.0224995339627	coherent
343.0006	0.0800046775839291	4	systole	4	A	2180.0224995339627	coherent
343.1607	0.0800046775839291	4	systole	5	B	500.0	coherent
343.3206	0.0800046775839291	4	systole	6	A	2180.0224995339627	coherent
343.5676	0.0800046775839291	4	systole	7	A	2180.0224995339627	coherent
343.7214	0.0800046775839291	4	systole	8	B	500.0	coherent
343.8751	0.0800046775839291	4	systole	9	A	2180.0224995339627	coherent
344.1576	0.0800046775839291	4	systole	10	A	2180.0224995339627	coherent
344.3114	0.0800046775839291	4	systole	11	B	500.0	coherent
344.4651	0.0800046775839291	4	systole	12	A	2180.0224995339627	coherent
344.763	0.0800046775839291	4	systole	13	A	2180.0224995339627	coherent
344.9156	0.0800046775839291	4	systole	14	B	500.0	coherent
345.068	0.0800046775839291	4	systole	15	A	2180.0224995339627	coherent
345.393	0.0800046775839291	4	systole	16	A	2180.0224995339627	coherent
345.5456	0.0800046775839291	4	systole	17	B	500.0	coherent
345.698	0.0800046775839291	4	systole	18	A	2180.0224995339627	coherent
346.023	0.0800046775839291	4	systole	19	A	2180.0224995339627	coherent
346.1756	0.0800046775839291	4	systole	20	B	500.0	coherent
346.328	0.0800046775839291	4	systole	21	A	2180.0224995339627	coherent
346.653	0.0800046775839291	4	systole	22	A	2180.0224995339627	coherent
346.8056	0.0800046775839291	4	systole	23	B	500.0	coherent
346.958	0.0800046775839291	4	systole	24	A	2180.0224995339627	coherent
347.2777	0.0800046775839291	4	systole	25	A	2180.0224995339627	coherent
347.4315	0.0800046775839291	4	systole	26	B	500.0	coherent
347.5852	0.0800046775839291	4	systole	27	A	2180.0224995339627	coherent
347.8876	0.0800046775839291	4	systole	28	A	2180.0224995339627	coherent
348.0414	0.0800046775839291	4	systole	29	B	500.0	coherent
348.1951	0.0800046775839291	4	systole	30	A	2180.0224995339627	coherent
348.4976	0.0800046775839291	4	systole	31	A	2180.0224995339627	coherent
348.6514	0.0800046775839291	4	systole	32	B	500.0	coherent
348.8051	0.0800046775839291	4	systole	33	A	2180.0224995339627	coherent
349.1221	0.0800046775839291	4	systole	34	A	2180.0224995339627	coherent
349.2771	0.0800046775839291	4	systole	35	B	500.0	coherent
349.4321	0.0800046775839291	4	systole	36	A	2180.0224995339627	coherent
349.7421	0.0800046775839291	4	systole	37	A	2180.0224995339627	coherent
349.8972	0.0800046775839291	4	systole	38	B	500.0	coherent
350.0521	0.0800046775839291	4	systole	39	A	2180.0224995339627	coherent
350.3621	0.0800046775839291	4	systole	40	A	2180.0224995339627	coherent
350.5172	0.0800046775839291	4	systole	41	B	500.0	coherent
350.6721	0.0800046775839291	4	systole	42	A	2180.0224995339627	coherent
350.9721	0.0800046775839291	4	systole	43	A	2180.0224995339627	coherent
351.1272	0.0800046775839291	4	systole	44	B	500.0	coherent
351.2821	0.0800046775839291	4	systole	45	A	2180.0224995339627	coherent
351.5821	0.0800046775839291	4	systole	46	A	2180.0224995339627	coherent
351.7372	0.0800046775839291	4	systole	47	B	500.0	coherent
351.8921	0.0800046775839291	4	systole	48	A	2180.0224995339627	coherent
364.5833	0.0762542124139145	5	systole	1	A	1987.9452401467304	coherent
364.7358	0.0762542124139145	5	systole	2	B	500.0	coherent
364.8883	0.0762542124139145	5	systole	3	A	1987.9452401467304	coherent
365.2032	0.0762542124139145	5	systole	4	A	1987.9452401467304	coherent
365.3557	0.0762542124139145	5	systole	5	B	500.0	coherent
365.5082	0.0762542124139145	5	systole	6	A	1987.9452401467304	coherent
365.8231	0.0762542124139145	5	systole	7	A	1987.9452401467304	coherent
365.9756	0.0762542124139145	5	systole	8	B	500.0	coherent
366.1282	0.0762542124139145	5	systole	9	A	1987.9452401467304	coherent
366.4431	0.0762542124139145	5	systole	10	A	1987.9452401467304	coherent
366.5955	0.0762542124139145	5	systole	11	B	500.0	coherent
366.7481	0.0762542124139145	5	systole	12	A	1987.9452401467304	coherent
367.0638	0.0762542124139145	5	systole	13	A	1987.9452401467304	coherent
367.2165	0.0762542124139145	5	systole	14	B	500.0	coherent
367.3692	0.0762542124139145	5	systole	15	A	1987.9452401467304	coherent
367.6838	0.0762542124139145	5	systole	16	A	1987.9452401467304	coherent
367.8365	0.0762542124139145	5	systole	17	B	500.0	coherent
367.9892	0.0762542124139145	5	systole	18	A	1987.9452401467304	coherent
368.2935	0.0762542124139145	5	systole	19	A	1987.9452401467304	coherent
368.446	0.0762542124139145	5	systole	20	B	500.0	coherent
368.5986	0.0762542124139145	5	systole	21	A	1987.9452401467304	coherent
368.8932	0.0762542124139145	5	systole	22	A	1987.9452401467304	coherent
369.0457	0.0762542124139145	5	systole	23	B	500.0	coherent
369.1983	0.0762542124139145	5	systole	24	A	1987.9452401467304	coherent
369.4935	0.0762542124139145	5	systole	25	A	1987.9452401467304	coherent
369.646	0.0762542124139145	5	systole	26	B	500.0	coherent
369.7986	0.0762542124139145	5	systole	27	A	1987.9452401467304	coherent
370.1036	0.0762542124139145	5	systole	28	A	1987.9452401467304	coherent
370.2561	0.0762542124139145	5	systole	29	B	500.0	coherent
370.4087	0.0762542124139145	5	systole	30	A	1987.9452401467304	coherent
370.7133	0.0762542124139145	5	systole	31	A	1987.9452401467304	coherent
370.8658	0.0762542124139145	5	systole	32	B	500.0	coherent
371.0184	0.0762542124139145	5	systole	33	A	1987.9452401467304	coherent
371.3336	0.0762542124139145	5	systole	34	A	1987.9452401467304	coherent
371.4861	0.0762542124139145	5	systole	35	B	500.0	coherent
371.6386	0.0762542124139145	5	systole	36	A	1987.9452401467304	coherent
371.9835	0.0762542124139145	5	systole	37	A	1987.9452401467304	coherent
372.136	0.0762542124139145	5	systole	38	B	500.0	coherent
372.2886	0.0762542124139145	5	systole	39	A	1987.9452401467304	coherent
372.6333	0.0762542124139145	5	systole	40	A	1987.9452401467304	coherent
372.7858	0.0762542124139145	5	systole	41	B	500.0	coherent
372.9384	0.0762542124139145	5	systole	42	A	1987.9452401467304	coherent
373.2779	0.0762542124139145	5	systole	43	A	1987.9452401467304	coherent
373.4316	0.0762542124139145	5	systole	44	B	500.0	coherent
373.5854	0.0762542124139145	5	systole	45	A	1987.9452401467304	coherent
373.9179	0.0762542124139145	5	systole	46	A	1987.9452401467304	coherent
374.0717	0.0762542124139145	5	systole	47	B	500.0	coherent
374.2255	0.0762542124139145	5	systole	48	A	1987.9452401467304	coherent
379.7522	0.0774923999269958	6	diastole	1	A	1987.9452401467304	streaming
379.9071	0.0774923999269958	6	diastole	2	B	500.0	streaming
380.0621	0.0774923999269958	6	diastole	3	A	1987.9452401467304	streaming
380.3721	0.0774923999269958	6	diastole	4	A	1987.9452401467304	streaming
380.527	0.0774923999269958	6	diastole	5	B	500.0	streaming
380.682	0.0774923999269958	6	diastole	6	A	1987.9452401467304	streaming
380.975	0.0774923999269958	6	diastole	7	A	1987.9452401467304	streaming
381.1287	0.0774923999269958	6	diastole	8	B	500.0	streaming
381.2825	0.0774923999269958	6	diastole	9	A	1987.9452401467304	streaming
381.585	0.0774923999269958	6	diastole	10	A	1987.9452401467304	streaming
381.7387	0.0774923999269958	6	diastole	11	B	500.0	streaming
381.8925	0.0774923999269958	6	diastole	12	A	1987.9452401467304	streaming
382.195	0.0774923999269958	6	diastole	13	A	1987.9452401467304	streaming
382.3487	0.0774923999269958	6	diastole	14	B	500.0	streaming
382.5025	0.0774923999269958	6	diastole	15	A	1987.9452401467304	streaming
382.8155	0.0774923999269958	6	diastole	16	A	1987.9452401467304	streaming
382.9692	0.0774923999269958	6	diastole	17	B	500.0	streaming
383.123	0.0774923999269958	6	diastole	18	A	1987.9452401467304	streaming
383.4359	0.0774923999269958	6	diastole	19	A	1987.9452401467304	streaming
383.5896	0.0774923999269958	6	diastole	20	B	500.0	streaming
383.7434	0.0774923999269958	6	diastole	21	A	1987.9452401467304	streaming
384.0564	0.0774923999269958	6	diastole	22	A	1987.9452401467304	streaming
384.2101	0.0774923999269958	6	diastole	23	B	500.0	streaming
384.3638	0.0774923999269958	6	diastole	24	A	1987.9452401467304	streaming
384.666	0.0774923999269958	6	diastole	25	A	1987.9452401467304	streaming
384.8197	0.0774923999269958	6	diastole	26	B	500.0	streaming
384.9735	0.0774923999269958	6	diastole	27	A	1987.9452401467304	streaming
385.2756	0.0774923999269958	6	diastole	28	A	1987.9452401467304	streaming
385.4293	0.0774923999269958	6	diastole	29	B	500.0	streaming
385.5831	0.0774923999269958	6	diastole	30	A	1987.9452401467304	streaming
385.8856	0.0774923999269958	6	diastole	31	A	1987.9452401467304	streaming
386.0393	0.0774923999269958	6	diastole	32	B	500.0	streaming
386.1931	0.0774923999269958	6	diastole	33	A	1987.9452401467304	streaming
386.4483	0.0774923999269958	6	diastole	34	A	1987.9452401467304	streaming
386.6007	0.0774923999269958	6	diastole	35	B	500.0	streaming
386.7532	0.0774923999269958	6	diastole	36	A	1987.9452401467304	streaming
387.0114	0.0774923999269958	6	diastole	37	A	1987.9452401467304	streaming
387.1625	0.0774923999269958	6	diastole	38	B	500.0	streaming
387.3138	0.0774923999269958	6	diastole	39	A	1987.9452401467304	streaming
387.5844	0.0774923999269958	6	diastole	40	A	1987.9452401467304	streaming
387.7344	0.0774923999269958	6	diastole	41	B	500.0	streaming
387.8844	0.0774923999269958	6	diastole	42	A	1987.9452401467304	streaming
388.1643	0.0774923999269958	6	diastole	43	A	1987.9452401467304	streaming
388.3142	0.0774923999269958	6	diastole	44	B	500.0	streaming
388.4643	0.0774923999269958	6	diastole	45	A	1987.9452401467304	streaming
388.7472	0.0774923999269958	6	diastole	46	A	1987.9452401467304	streaming
388.8959	0.0774923999269958	6	diastole	47	B	500.0	streaming
389.0447	0.0774923999269958	6	diastole	48	A	1987.9452401467304	streaming
399.4663	0.0787290767475497	7	diastole	1	A	1143.0495706741503	streaming
399.6236	0.0787290767475497	7	diastole	2	B	500.0	streaming
399.7812	0.0787290767475497	7	diastole	3	A	1143.0495706741503	streaming
400.0793	0.0787290767475497	7	diastole	4	A	1143.0495706741503	streaming
400.2354	0.0787290767475497	7	diastole	5	B	500.0	streaming
400.3917	0.0787290767475497	7	diastole	6	A	1143.0495706741503	streaming
400.6993	0.0787290767475497	7	diastole	7	A	1143.0495706741503	streaming
400.8554	0.0787290767475497	7	diastole	8	B	500.0	streaming
401.0118	0.0787290767475497	7	diastole	9	A	1143.0495706741503	streaming
401.3093	0.0787290767475497	7	diastole	10	A	1143.0495706741503	streaming
401.4654	0.0787290767475497	7	diastole	11	B	500.0	streaming
401.6217	0.0787290767475497	7	diastole	12	A	1143.0495706741503	streaming
401.9296	0.0787290767475497	7	diastole	13	A	1143.0495706741503	streaming
402.0857	0.0787290767475497	7	diastole	14	B	500.0	streaming
402.2421	0.0787290767475497	7	diastole	15	A	1143.0495706741503	streaming
402.5496	0.0787290767475497	7	diastole	16	A	1143.0495706741503	streaming
402.7057	0.0787290767475497	7	diastole	17	B	500.0	streaming
402.8621	0.0787290767475497	7	diastole	18	A	1143.0495706741503	streaming
403.1596	0.0787290767475497	7	diastole	19	A	1143.0495706741503	streaming
403.3157	0.0787290767475497	7	diastole	20	B	500.0	streaming
403.472	0.0787290767475497	7	diastole	21	A	1143.0495706741503	streaming
403.7695	0.0787290767475497	7	diastole	22	A	1143.0495706741503	streaming
403.9256	0.0787290767475497	7	diastole	23	B	500.0	streaming
404.082	0.0787290767475497	7	diastole	24	A	1143.0495706741503	streaming
404.3626	0.0787290767475497	7	diastole	25	A	1143.0495706741503	streaming
404.5175	0.0787290767475497	7	diastole	26	B	500.0	streaming
404.6726	0.0787290767475497	7	diastole	27	A	1143.0495706741503	streaming
404.9626	0.0787290767475497	7	diastole	28	A	1143.0495706741503	streaming
405.1175	0.0787290767475497	7	diastole	29	B	500.0	streaming
405.2726	0.0787290767475497	7	diastole	30	A	1143.0495706741503	streaming
405.5455	0.0787290767475497	7	diastole	31	A	1143.0495706741503	streaming
405.6991	0.0787290767475497	7	diastole	32	B	500.0	streaming
405.853	0.0787290767475497	7	diastole	33	A	1143.0495706741503	streaming
406.1355	0.0787290767475497	7	diastole	34	A	1143.0495706741503	streaming
406.2892	0.0787290767475497	7	diastole	35	B	500.0	streaming
406.443	0.0787290767475497	7	diastole	36	A	1143.0495706741503	streaming
406.7384	0.0787290767475497	7	diastole	37	A	1143.0495706741503	streaming
406.8908	0.0787290767475497	7	diastole	38	B	500.0	streaming
407.0434	0.0787290767475497	7	diastole	39	A	1143.0495706741503	streaming
407.3483	0.0787290767475497	7	diastole	40	A	1143.0495706741503	streaming
407.5007	0.0787290767475497	7	diastole	41	B	500.0	streaming
407.6533	0.0787290767475497	7	diastole	42	A	1143.0495706741503	streaming
407.9684	0.0787290767475497	7	diastole	43	A	1143.0495706741503	streaming
408.1207	0.0787290767475497	7	diastole	44	B	500.0	streaming
408.2733	0.0787290767475497	7	diastole	45	A	1143.0495706741503	streaming
408.6082	0.0787290767475497	7	diastole	46	A	1143.0495706741503	streaming
408.7606	0.0787290767475497	7	diastole	47	B	500.0	streaming
408.9131	0.0787290767475497	7	diastole	48	A	1143.0495706741503	streaming
411.7727	0.0774985298630781	8	diastole	1	A	866.753070272264	streaming
411.9272	0.0774985298630781	8	diastole	2	B	500.0	streaming
412.0827	0.0774985298630781	8	diastole	3	A	866.753070272264	streaming
412.3628	0.0774985298630781	8	diastole	4	A	866.753070272264	streaming
412.5173	0.0774985298630781	8	diastole	5	B	500.0	streaming
412.6728	0.0774985298630781	8	diastole	6	A	866.753070272264	streaming
412.9525	0.0774985298630781	8	diastole	7	A	866.753070272264	streaming
413.107	0.0774985298630781	8	diastole	8	B	500.0	streaming
413.2624	0.0774985298630781	8	diastole	9	A	866.753070272264	streaming
413.5155	0.0774985298630781	8	diastole	10	A	866.753070272264	streaming
413.6687	0.0774985298630781	8	diastole	11	B	500.0	streaming
413.8229	0.0774985298630781	8	diastole	12	A	866.753070272264	streaming
414.0687	0.0774985298630781	8	diastole	13	A	866.753070272264	streaming
414.2207	0.0774985298630781	8	diastole	14	B	500.0	streaming
414.3737	0.0774985298630781	8	diastole	15	A	866.753070272264	streaming
414.6247	0.0774985298630781	8	diastole	16	A	866.753070272264	streaming
414.7742	0.0774985298630781	8	diastole	17	B	500.0	streaming
414.9247	0.0774985298630781	8	diastole	18	A	866.753070272264	streaming
415.2106	0.0774985298630781	8	diastole	19	A	866.753070272264	streaming
415.3576	0.0774985298630781	8	diastole	20	B	500.0	streaming
415.5056	0.0774985298630781	8	diastole	21	A	866.753070272264	streaming
415.8106	0.0774985298630781	8	diastole	22	A	866.753070272264	streaming
415.9576	0.0774985298630781	8	diastole	23	B	500.0	streaming
416.1057	0.0774985298630781	8	diastole	24	A	866.753070272264	streaming
416.4306	0.0774985298630781	8	diastole	25	A	866.753070272264	streaming
416.5776	0.0774985298630781	8	diastole	26	B	500.0	streaming
416.7257	0.0774985298630781	8	diastole	27	A	866.753070272264	streaming
417.0506	0.0774985298630781	8	diastole	28	A	866.753070272264	streaming
417.1976	0.0774985298630781	8	diastole	29	B	500.0	streaming
417.3456	0.0774985298630781	8	diastole	30	A	866.753070272264	streaming
417.6677	0.0774985298630781	8	diastole	31	A	866.753070272264	streaming
417.8159	0.0774985298630781	8	diastole	32	B	500.0	streaming
417.9652	0.0774985298630781	8	diastole	33	A	866.753070272264	streaming
418.3119	0.0774985298630781	8	diastole	34	A	866.753070272264	streaming
418.4626	0.0774985298630781	8	diastole	35	B	500.0	streaming
418.6144	0.0774985298630781	8	diastole	36	A	866.753070272264	streaming
418.9287	0.0774985298630781	8	diastole	37	A	866.753070272264	streaming
419.0807	0.0774985298630781	8	diastole	38	B	500.0	streaming
419.2337	0.0774985298630781	8	diastole	39	A	866.753070272264	streaming
419.5386	0.0774985298630781	8	diastole	40	A	866.753070272264	streaming
419.6906	0.0774985298630781	8	diastole	41	B	500.0	streaming
419.8436	0.0774985298630781	8	diastole	42	A	866.753070272264	streaming
420.1485	0.0774985298630781	8	diastole	43	A	866.753070272264	streaming
420.3005	0.0774985298630781	8	diastole	44	B	500.0	streaming
420.4535	0.0774985298630781	8	diastole	45	A	866.753070272264	streaming
420.7757	0.0774985298630781	8	diastole	46	A	866.753070272264	streaming
420.929	0.0774985298630781	8	diastole	47	B	500.0	streaming
421.0832	0.0774985298630781	8	diastole	48	A	866.753070272264	streaming
421.3958	0.0774985298630781	8	diastole	49	A	866.753070272264	streaming
421.549	0.0774985298630781	8	diastole	50	B	500.0	streaming
421.7033	0.0774985298630781	8	diastole	51	A	866.753070272264	streaming
424.5157	0.073127618728904	9	systole	1	A	2942.014383864825	streaming
424.6607	0.073127618728904	9	systole	2	B	500.0	streaming
424.8057	0.073127618728904	9	systole	3	A	2942.014383864825	streaming
425.0956	0.073127618728904	9	systole	4	A	2942.014383864825	streaming
425.2407	0.073127618728904	9	systole	5	B	500.0	streaming
425.3856	0.073127618728904	9	systole	6	A	2942.014383864825	streaming
425.6757	0.073127618728904	9	systole	7	A	2942.014383864825	streaming
425.8207	0.073127618728904	9	systole	8	B	500.0	streaming
425.9657	0.073127618728904	9	systole	9	A	2942.014383864825	streaming
426.2656	0.073127618728904	9	systole	10	A	2942.014383864825	streaming
426.4107	0.073127618728904	9	systole	11	B	500.0	streaming
426.5557	0.073127618728904	9	systole	12	A	2942.014383864825	streaming
426.8556	0.073127618728904	9	systole	13	A	2942.014383864825	streaming
427.0007	0.073127618728904	9	systole	14	B	500.0	streaming
427.1457	0.073127618728904	9	systole	15	A	2942.014383864825	streaming
427.4656	0.073127618728904	9	systole	16	A	2942.014383864825	streaming
427.6107	0.073127618728904	9	systole	17	B	500.0	streaming
427.7557	0.073127618728904	9	systole	18	A	2942.014383864825	streaming
428.0901	0.073127618728904	9	systole	19	A	2942.014383864825	streaming
428.2364	0.073127618728904	9	systole	20	B	500.0	streaming
428.3826	0.073127618728904	9	systole	21	A	2942.014383864825	streaming
428.7101	0.073127618728904	9	systole	22	A	2942.014383864825	streaming
428.8564	0.073127618728904	9	systole	23	B	500.0	streaming
429.0026	0.073127618728904	9	systole	24	A	2942.014383864825	streaming
429.3339	0.073127618728904	9	systole	25	A	2942.014383864825	streaming
429.4839	0.073127618728904	9	systole	26	B	500.0	streaming
429.6339	0.073127618728904	9	systole	27	A	2942.014383864825	streaming
429.9439	0.073127618728904	9	systole	28	A	2942.014383864825	streaming
430.094	0.073127618728904	9	systole	29	B	500.0	streaming
430.2439	0.073127618728904	9	systole	30	A	2942.014383864825	streaming
430.5484	0.073127618728904	9	systole	31	A	2942.014383864825	streaming
430.6997	0.073127618728904	9	systole	32	B	500.0	streaming
430.8509	0.073127618728904	9	systole	33	A	2942.014383864825	streaming
431.1385	0.073127618728904	9	systole	34	A	2942.014383864825	streaming
431.2898	0.073127618728904	9	systole	35	B	500.0	streaming
431.441	0.073127618728904	9	systole	36	A	2942.014383864825	streaming
431.7285	0.073127618728904	9	systole	37	A	2942.014383864825	streaming
431.8798	0.073127618728904	9	systole	38	B	500.0	streaming
432.031	0.073127618728904	9	systole	39	A	2942.014383864825	streaming
432.3185	0.073127618728904	9	systole	40	A	2942.014383864825	streaming
432.4698	0.073127618728904	9	systole	41	B	500.0	streaming
432.621	0.073127618728904	9	systole	42	A	2942.014383864825	streaming
432.8885	0.073127618728904	9	systole	43	A	2942.014383864825	streaming
433.0398	0.073127618728904	9	systole	44	B	500.0	streaming
433.1909	0.073127618728904	9	systole	45	A	2942.014383864825	streaming
433.4493	0.073127618728904	9	systole	46	A	2942.014383864825	streaming
433.5981	0.073127618728904	9	systole	47	B	500.0	streaming
433.7468	0.073127618728904	9	systole	48	A	2942.014383864825	streaming
434.0149	0.073127618728904	9	systole	49	A	2942.014383864825	streaming
434.1624	0.073127618728904	9	systole	50	B	500.0	streaming
434.3099	0.073127618728904	9	systole	51	A	2942.014383864825	streaming
437.2825	0.0731233705009799	10	diastole	1	A	3010.640720484466	streaming
437.4288	0.0731233705009799	10	diastole	2	B	500.0	streaming
437.575	0.0731233705009799	10	diastole	3	A	3010.640720484466	streaming
437.8825	0.0731233705009799	10	diastole	4	A	3010.640720484466	streaming
438.0288	0.0731233705009799	10	diastole	5	B	500.0	streaming
438.175	0.0731233705009799	10	diastole	6	A	3010.640720484466	streaming
438.4825	0.0731233705009799	10	diastole	7	A	3010.640720484466	streaming
438.6288	0.0731233705009799	10	diastole	8	B	500.0	streaming
438.775	0.0731233705009799	10	diastole	9	A	3010.640720484466	streaming
439.0796	0.0731233705009799	10	diastole	10	A	3010.640720484466	streaming
439.2272	0.0731233705009799	10	diastole	11	B	500.0	streaming
439.3746	0.0731233705009799	10	diastole	12	A	3010.640720484466	streaming
439.6696	0.0731233705009799	10	diastole	13	A	3010.640720484466	streaming
439.8171	0.0731233705009799	10	diastole	14	B	500.0	streaming
439.9646	0.0731233705009799	10	diastole	15	A	3010.640720484466	streaming
440.2767	0.0731233705009799	10	diastole	16	A	3010.640720484466	streaming
440.4255	0.0731233705009799	10	diastole	17	B	500.0	streaming
440.5742	0.0731233705009799	10	diastole	18	A	3010.640720484466	streaming
440.8837	0.0731233705009799	10	diastole	19	A	3010.640720484466	streaming
441.0337	0.0731233705009799	10	diastole	20	B	500.0	streaming
441.1837	0.0731233705009799	10	diastole	21	A	3010.640720484466	streaming
441.4738	0.0731233705009799	10	diastole	22	A	3010.640720484466	streaming
441.6238	0.0731233705009799	10	diastole	23	B	500.0	streaming
441.7738	0.0731233705009799	10	diastole	24	A	3010.640720484466	streaming
442.0638	0.0731233705009799	10	diastole	25	A	3010.640720484466	streaming
442.2138	0.0731233705009799	10	diastole	26	B	500.0	streaming
442.3638	0.0731233705009799	10	diastole	27	A	3010.640720484466	streaming
442.6437	0.0731233705009799	10	diastole	28	A	3010.640720484466	streaming
442.7938	0.0731233705009799	10	diastole	29	B	500.0	streaming
442.9437	0.0731233705009799	10	diastole	30	A	3010.640720484466	streaming
443.2167	0.0731233705009799	10	diastole	31	A	3010.640720484466	streaming
443.3655	0.0731233705009799	10	diastole	32	B	500.0	streaming
443.5142	0.0731233705009799	10	diastole	33	A	3010.640720484466	streaming
443.7796	0.0731233705009799	10	diastole	34	A	3010.640720484466	streaming
443.9272	0.0731233705009799	10	diastole	35	B	500.0	streaming
444.0746	0.0731233705009799	10	diastole	36	A	3010.640720484466	streaming
444.3696	0.0731233705009799	10	diastole	37	A	3010.640720484466	streaming
444.5171	0.0731233705009799	10	diastole	38	B	500.0	streaming
444.6645	0.0731233705009799	10	diastole	39	A	3010.640720484466	streaming
444.9595	0.0731233705009799	10	diastole	40	A	3010.640720484466	streaming
445.1071	0.0731233705009799	10	diastole	41	B	500.0	streaming
445.2545	0.0731233705009799	10	diastole	42	A	3010.640720484466	streaming
445.5595	0.0731233705009799	10	diastole	43	A	3010.640720484466	streaming
445.7071	0.0731233705009799	10	diastole	44	B	500.0	streaming
445.8545	0.0731233705009799	10	diastole	45	A	3010.640720484466	streaming
446.1698	0.0731233705009799	10	diastole	46	A	3010.640720484466	streaming
446.3173	0.0731233705009799	10	diastole	47	B	500.0	streaming
446.4648	0.0731233705009799	10	diastole	48	A	3010.640720484466	streaming
446.78	0.0731233705009799	10	diastole	49	A	3010.640720484466	streaming
446.9275	0.0731233705009799	10	diastole	50	B	500.0	streaming
447.075	0.0731233705009799	10	diastole	51	A	3010.640720484466	streaming
451.6042	0.0751038626767695	11	diastole	1	A	3080.8678562380856	streaming
451.7543	0.0751038626767695	11	diastole	2	B	500.0	streaming
451.9042	0.0751038626767695	11	diastole	3	A	3080.8678562380856	streaming
452.194	0.0751038626767695	11	diastole	4	A	3080.8678562380856	streaming
452.3441	0.0751038626767695	11	diastole	5	B	500.0	streaming
452.4941	0.0751038626767695	11	diastole	6	A	3080.8678562380856	streaming
452.767	0.0751038626767695	11	diastole	7	A	3080.8678562380856	streaming
452.9158	0.0751038626767695	11	diastole	8	B	500.0	streaming
453.0645	0.0751038626767695	11	diastole	9	A	3080.8678562380856	streaming
453.3295	0.0751038626767695	11	diastole	10	A	3080.8678562380856	streaming
453.4771	0.0751038626767695	11	diastole	11	B	500.0	streaming
453.6245	0.0751038626767695	11	diastole	12	A	3080.8678562380856	streaming
453.8984	0.0751038626767695	11	diastole	13	A	3080.8678562380856	streaming
454.0458	0.0751038626767695	11	diastole	14	B	500.0	streaming
454.193	0.0751038626767695	11	diastole	15	A	3080.8678562380856	streaming
454.4684	0.0751038626767695	11	diastole	16	A	3080.8678562380856	streaming
454.6158	0.0751038626767695	11	diastole	17	B	500.0	streaming
454.763	0.0751038626767695	11	diastole	18	A	3080.8678562380856	streaming
455.0314	0.0751038626767695	11	diastole	19	A	3080.8678562380856	streaming
455.1775	0.0751038626767695	11	diastole	20	B	500.0	streaming
455.3235	0.0751038626767695	11	diastole	21	A	3080.8678562380856	streaming
455.5858	0.0751038626767695	11	diastole	22	A	3080.8678562380856	streaming
455.7309	0.0751038626767695	11	diastole	23	B	500.0	streaming
455.8759	0.0751038626767695	11	diastole	24	A	3080.8678562380856	streaming
456.1416	0.0751038626767695	11	diastole	25	A	3080.8678562380856	streaming
456.2842	0.0751038626767695	11	diastole	26	B	500.0	streaming
456.4267	0.0751038626767695	11	diastole	27	A	3080.8678562380856	streaming
456.7217	0.0751038626767695	11	diastole	28	A	3080.8678562380856	streaming
456.8643	0.0751038626767695	11	diastole	29	B	500.0	streaming
457.0067	0.0751038626767695	11	diastole	30	A	3080.8678562380856	streaming
457.3017	0.0751038626767695	11	diastole	31	A	3080.8678562380856	streaming
457.4443	0.0751038626767695	11	diastole	32	B	500.0	streaming
457.5867	0.0751038626767695	11	diastole	33	A	3080.8678562380856	streaming
457.9013	0.0751038626767695	11	diastole	34	A	3080.8678562380856	streaming
458.0439	0.0751038626767695	11	diastole	35	B	500.0	streaming
458.1863	0.0751038626767695	11	diastole	36	A	3080.8678562380856	streaming
458.5009	0.0751038626767695	11	diastole	37	A	3080.8678562380856	streaming
458.6435	0.0751038626767695	11	diastole	38	B	500.0	streaming
458.786	0.0751038626767695	11	diastole	39	A	3080.8678562380856	streaming
459.1105	0.0751038626767695	11	diastole	40	A	3080.8678562380856	streaming
459.2531	0.0751038626767695	11	diastole	41	B	500.0	streaming
459.3955	0.0751038626767695	11	diastole	42	A	3080.8678562380856	streaming
459.718	0.0751038626767695	11	diastole	43	A	3080.8678562380856	streaming
459.8618	0.0751038626767695	11	diastole	44	B	500.0	streaming
460.0055	0.0751038626767695	11	diastole	45	A	3080.8678562380856	streaming
460.3184	0.0751038626767695	11	diastole	46	A	3080.8678562380856	streaming
460.4622	0.0751038626767695	11	diastole	47	B	500.0	streaming
460.6059	0.0751038626767695	11	diastole	48	A	3080.8678562380856	streaming
460.9634	0.0751038626767695	11	diastole	49	A	3080.8678562380856	streaming
461.1134	0.0751038626767695	11	diastole	50	B	500.0	streaming
461.2632	0.0751038626767695	11	diastole	51	A	3080.8678562380856	streaming
463.6845	0.0756225875229574	12	systole	1	A	1653.0702107864488	coherent
463.8343	0.0756225875229574	12	systole	2	B	500.0	coherent
463.9846	0.0756225875229574	12	systole	3	A	1653.0702107864488	coherent
464.2645	0.0756225875229574	12	systole	4	A	1653.0702107864488	coherent
464.4143	0.0756225875229574	12	systole	5	B	500.0	coherent
464.5646	0.0756225875229574	12	systole	6	A	1653.0702107864488	coherent
464.8543	0.0756225875229574	12	systole	7	A	1653.0702107864488	coherent
465.004	0.0756225875229574	12	systole	8	B	500.0	coherent
465.1543	0.0756225875229574	12	systole	9	A	1653.0702107864488	coherent
465.4397	0.0756225875229574	12	systole	10	A	1653.0702107864488	coherent
465.5882	0.0756225875229574	12	systole	11	B	500.0	coherent
465.7372	0.0756225875229574	12	systole	12	A	1653.0702107864488	coherent
466.0252	0.0756225875229574	12	systole	13	A	1653.0702107864488	coherent
466.1724	0.0756225875229574	12	systole	14	B	500.0	coherent
466.3202	0.0756225875229574	12	systole	15	A	1653.0702107864488	coherent
466.6252	0.0756225875229574	12	systole	16	A	1653.0702107864488	coherent
466.7724	0.0756225875229574	12	systole	17	B	500.0	coherent
466.9202	0.0756225875229574	12	systole	18	A	1653.0702107864488	coherent
467.2252	0.0756225875229574	12	systole	19	A	1653.0702107864488	coherent
467.3724	0.0756225875229574	12	systole	20	B	500.0	coherent
467.5202	0.0756225875229574	12	systole	21	A	1653.0702107864488	coherent
467.8352	0.0756225875229574	12	systole	22	A	1653.0702107864488	coherent
467.9824	0.0756225875229574	12	systole	23	B	500.0	coherent
468.1302	0.0756225875229574	12	systole	24	A	1653.0702107864488	coherent
468.4452	0.0756225875229574	12	systole	25	A	1653.0702107864488	coherent
468.5924	0.0756225875229574	12	systole	26	B	500.0	coherent
468.7402	0.0756225875229574	12	systole	27	A	1653.0702107864488	coherent
469.0698	0.0756225875229574	12	systole	28	A	1653.0702107864488	coherent
469.2182	0.0756225875229574	12	systole	29	B	500.0	coherent
469.3673	0.0756225875229574	12	systole	30	A	1653.0702107864488	coherent
469.7043	0.0756225875229574	12	systole	31	A	1653.0702107864488	coherent
469.8541	0.0756225875229574	12	systole	32	B	500.0	coherent
470.0043	0.0756225875229574	12	systole	33	A	1653.0702107864488	coherent
470.3343	0.0756225875229574	12	systole	34	A	1653.0702107864488	coherent
470.4841	0.0756225875229574	12	systole	35	B	500.0	coherent
470.6343	0.0756225875229574	12	systole	36	A	1653.0702107864488	coherent
470.9643	0.0756225875229574	12	systole	37	A	1653.0702107864488	coherent
471.114	0.0756225875229574	12	systole	38	B	500.0	coherent
471.2643	0.0756225875229574	12	systole	39	A	1653.0702107864488	coherent
471.5689	0.0756225875229574	12	systole	40	A	1653.0702107864488	coherent
471.7198	0.0756225875229574	12	systole	41	B	500.0	coherent
471.8714	0.0756225875229574	12	systole	42	A	1653.0702107864488	coherent
472.1735	0.0756225875229574	12	systole	43	A	1653.0702107864488	coherent
472.3256	0.0756225875229574	12	systole	44	B	500.0	coherent
472.4784	0.0756225875229574	12	systole	45	A	1653.0702107864488	coherent
472.7634	0.0756225875229574	12	systole	46	A	1653.0702107864488	coherent
472.9157	0.0756225875229574	12	systole	47	B	500.0	coherent
473.0684	0.0756225875229574	12	systole	48	A	1653.0702107864488	coherent
473.3534	0.0756225875229574	12	systole	49	A	1653.0702107864488	coherent
473.5057	0.0756225875229574	12	systole	50	B	500.0	coherent
473.6584	0.0756225875229574	12	systole	51	A	1653.0702107864488	coherent
475.9098	0.0743746811931487	13	diastole	1	A	3152.7331318609326	streaming
476.0574	0.0743746811931487	13	diastole	2	B	500.0	streaming
476.2048	0.0743746811931487	13	diastole	3	A	3152.7331318609326	streaming
476.4899	0.0743746811931487	13	diastole	4	A	3152.7331318609326	streaming
476.6375	0.0743746811931487	13	diastole	5	B	500.0	streaming
476.7849	0.0743746811931487	13	diastole	6	A	3152.7331318609326	streaming
477.0798	0.0743746811931487	13	diastole	7	A	3152.7331318609326	streaming
477.2274	0.0743746811931487	13	diastole	8	B	500.0	streaming
477.3748	0.0743746811931487	13	diastole	9	A	3152.7331318609326	streaming
477.6898	0.0743746811931487	13	diastole	10	A	3152.7331318609326	streaming
477.8374	0.0743746811931487	13	diastole	11	B	500.0	streaming
477.9848	0.0743746811931487	13	diastole	12	A	3152.7331318609326	streaming
478.2998	0.0743746811931487	13	diastole	13	A	3152.7331318609326	streaming
478.4474	0.0743746811931487	13	diastole	14	B	500.0	streaming
478.5948	0.0743746811931487	13	diastole	15	A	3152.7331318609326	streaming
478.9099	0.0743746811931487	13	diastole	16	A	3152.7331318609326	streaming
479.0575	0.0743746811931487	13	diastole	17	B	500.0	streaming
479.2049	0.0743746811931487	13	diastole	18	A	3152.7331318609326	streaming
479.534	0.0743746811931487	13	diastole	19	A	3152.7331318609326	streaming
479.6841	0.0743746811931487	13	diastole	20	B	500.0	streaming
479.834	0.0743746811931487	13	diastole	21	A	3152.7331318609326	streaming
480.141	0.0743746811931487	13	diastole	22	A	3152.7331318609326	streaming
480.2924	0.0743746811931487	13	diastole	23	B	500.0	streaming
480.4435	0.0743746811931487	13	diastole	24	A	3152.7331318609326	streaming
480.7681	0.0743746811931487	13	diastole	25	A	3152.7331318609326	streaming
480.9207	0.0743746811931487	13	diastole	26	B	500.0	streaming
481.0731	0.0743746811931487	13	diastole	27	A	3152.7331318609326	streaming
481.3783	0.0743746811931487	13	diastole	28	A	3152.7331318609326	streaming
481.5309	0.0743746811931487	13	diastole	29	B	500.0	streaming
481.6833	0.0743746811931487	13	diastole	30	A	3152.7331318609326	streaming
481.9883	0.0743746811931487	13	diastole	31	A	3152.7331318609326	streaming
482.141	0.0743746811931487	13	diastole	32	B	500.0	streaming
482.2933	0.0743746811931487	13	diastole	33	A	3152.7331318609326	streaming
482.5882	0.0743746811931487	13	diastole	34	A	3152.7331318609326	streaming
482.7408	0.0743746811931487	13	diastole	35	B	500.0	streaming
482.8932	0.0743746811931487	13	diastole	36	A	3152.7331318609326	streaming
483.1881	0.0743746811931487	13	diastole	37	A	3152.7331318609326	streaming
483.3407	0.0743746811931487	13	diastole	38	B	500.0	streaming
483.493	0.0743746811931487	13	diastole	39	A	3152.7331318609326	streaming
483.788	0.0743746811931487	13	diastole	40	A	3152.7331318609326	streaming
483.9406	0.0743746811931487	13	diastole	41	B	500.0	streaming
484.093	0.0743746811931487	13	diastole	42	A	3152.7331318609326	streaming
484.361	0.0743746811931487	13	diastole	43	A	3152.7331318609326	streaming
484.5124	0.0743746811931487	13	diastole	44	B	500.0	streaming
484.6635	0.0743746811931487	13	diastole	45	A	3152.7331318609326	streaming
484.934	0.0743746811931487	13	diastole	46	A	3152.7331318609326	streaming
485.0841	0.0743746811931487	13	diastole	47	B	500.0	streaming
485.234	0.0743746811931487	13	diastole	48	A	3152.7331318609326	streaming
485.514	0.0743746811931487	13	diastole	49	A	3152.7331318609326	streaming
485.6641	0.0743746811931487	13	diastole	50	B	500.0	streaming
485.814	0.0743746811931487	13	diastole	51	A	3152.7331318609326	streaming
488.5267	0.0743765624938532	14	diastole	1	A	3080.8678562380856	streaming
488.6756	0.0743765624938532	14	diastole	2	B	500.0	streaming
488.8242	0.0743765624938532	14	diastole	3	A	3080.8678562380856	streaming
489.1268	0.0743765624938532	14	diastole	4	A	3080.8678562380856	streaming
489.2756	0.0743765624938532	14	diastole	5	B	500.0	streaming
489.4243	0.0743765624938532	14	diastole	6	A	3080.8678562380856	streaming
489.7268	0.0743765624938532	14	diastole	7	A	3080.8678562380856	streaming
489.8756	0.0743765624938532	14	diastole	8	B	500.0	streaming
490.0243	0.0743765624938532	14	diastole	9	A	3080.8678562380856	streaming
490.3168	0.0743765624938532	14	diastole	10	A	3080.8678562380856	streaming
490.4656	0.0743765624938532	14	diastole	11	B	500.0	streaming
490.6143	0.0743765624938532	14	diastole	12	A	3080.8678562380856	streaming
490.9068	0.0743765624938532	14	diastole	13	A	3080.8678562380856	streaming
491.0556	0.0743765624938532	14	diastole	14	B	500.0	streaming
491.2043	0.0743765624938532	14	diastole	15	A	3080.8678562380856	streaming
491.4768	0.0743765624938532	14	diastole	16	A	3080.8678562380856	streaming
491.6256	0.0743765624938532	14	diastole	17	B	500.0	streaming
491.7743	0.0743765624938532	14	diastole	18	A	3080.8678562380856	streaming
492.0467	0.0743765624938532	14	diastole	19	A	3080.8678562380856	streaming
492.1956	0.0743765624938532	14	diastole	20	B	500.0	streaming
492.3442	0.0743765624938532	14	diastole	21	A	3080.8678562380856	streaming
492.6066	0.0743765624938532	14	diastole	22	A	3080.8678562380856	streaming
492.7554	0.0743765624938532	14	diastole	23	B	500.0	streaming
492.9041	0.0743765624938532	14	diastole	24	A	3080.8678562380856	streaming
493.1695	0.0743765624938532	14	diastole	25	A	3080.8678562380856	streaming
493.3171	0.0743765624938532	14	diastole	26	B	500.0	streaming
493.4645	0.0743765624938532	14	diastole	27	A	3080.8678562380856	streaming
493.7595	0.0743765624938532	14	diastole	28	A	3080.8678562380856	streaming
493.9071	0.0743765624938532	14	diastole	29	B	500.0	streaming
494.0545	0.0743765624938532	14	diastole	30	A	3080.8678562380856	streaming
494.3495	0.0743765624938532	14	diastole	31	A	3080.8678562380856	streaming
494.4971	0.0743765624938532	14	diastole	32	B	500.0	streaming
494.6445	0.0743765624938532	14	diastole	33	A	3080.8678562380856	streaming
494.9496	0.0743765624938532	14	diastole	34	A	3080.8678562380856	streaming
495.0972	0.0743765624938532	14	diastole	35	B	500.0	streaming
495.2446	0.0743765624938532	14	diastole	36	A	3080.8678562380856	streaming
495.5595	0.0743765624938532	14	diastole	37	A	3080.8678562380856	streaming
495.7071	0.0743765624938532	14	diastole	38	B	500.0	streaming
495.8545	0.0743765624938532	14	diastole	39	A	3080.8678562380856	streaming
496.1595	0.0743765624938532	14	diastole	40	A	3080.8678562380856	streaming
496.3071	0.0743765624938532	14	diastole	41	B	500.0	streaming
496.4546	0.0743765624938532	14	diastole	42	A	3080.8678562380856	streaming
496.7768	0.0743765624938532	14	diastole	43	A	3080.8678562380856	streaming
496.9256	0.0743765624938532	14	diastole	44	B	500.0	streaming
497.0743	0.0743765624938532	14	diastole	45	A	3080.8678562380856	streaming
497.3868	0.0743765624938532	14	diastole	46	A	3080.8678562380856	streaming
497.5357	0.0743765624938532	14	diastole	47	B	500.0	streaming
497.6844	0.0743765624938532	14	diastole	48	A	3080.8678562380856	streaming
500.5639	0.0749970471078995	15	systole	1	A	3457.353363503972	streaming
500.7138	0.0749970471078995	15	systole	2	B	500.0	streaming
500.8638	0.0749970471078995	15	systole	3	A	3457.353363503972	streaming
501.1139	0.0749970471078995	15	systole	4	A	3457.353363503972	streaming
501.2638	0.0749970471078995	15	systole	5	B	500.0	streaming
501.4138	0.0749970471078995	15	systole	6	A	3457.353363503972	streaming
501.6648	0.0749970471078995	15	systole	7	A	3457.353363503972	streaming
501.8122	0.0749970471078995	15	systole	8	B	500.0	streaming
501.9597	0.0749970471078995	15	systole	9	A	3457.353363503972	streaming
502.2248	0.0749970471078995	15	systole	10	A	3457.353363503972	streaming
502.3722	0.0749970471078995	15	systole	11	B	500.0	streaming
502.5197	0.0749970471078995	15	systole	12	A	3457.353363503972	streaming
502.7711	0.0749970471078995	15	systole	13	A	3457.353363503972	streaming
502.9148	0.0749970471078995	15	systole	14	B	500.0	streaming
503.0586	0.0749970471078995	15	systole	15	A	3457.353363503972	streaming
503.3365	0.0749970471078995	15	systole	16	A	3457.353363503972	streaming
503.479	0.0749970471078995	15	systole	17	B	500.0	streaming
503.6215	0.0749970471078995	15	systole	18	A	3457.353363503972	streaming
503.9065	0.0749970471078995	15	systole	19	A	3457.353363503972	streaming
504.049	0.0749970471078995	15	systole	20	B	500.0	streaming
504.1915	0.0749970471078995	15	systole	21	A	3457.353363503972	streaming
504.4665	0.0749970471078995	15	systole	22	A	3457.353363503972	streaming
504.6089	0.0749970471078995	15	systole	23	B	500.0	streaming
504.7515	0.0749970471078995	15	systole	24	A	3457.353363503972	streaming
505.0265	0.0749970471078995	15	systole	25	A	3457.353363503972	streaming
505.1689	0.0749970471078995	15	systole	26	B	500.0	streaming
505.3114	0.0749970471078995	15	systole	27	A	3457.353363503972	streaming
505.5864	0.0749970471078995	15	systole	28	A	3457.353363503972	streaming
505.7289	0.0749970471078995	15	systole	29	B	500.0	streaming
505.8714	0.0749970471078995	15	systole	30	A	3457.353363503972	streaming
506.1464	0.0749970471078995	15	systole	31	A	3457.353363503972	streaming
506.2888	0.0749970471078995	15	systole	32	B	500.0	streaming
506.4314	0.0749970471078995	15	systole	33	A	3457.353363503972	streaming
506.7664	0.0749970471078995	15	systole	34	A	3457.353363503972	streaming
506.9088	0.0749970471078995	15	systole	35	B	500.0	streaming
507.0514	0.0749970471078995	15	systole	36	A	3457.353363503972	streaming
507.3764	0.0749970471078995	15	systole	37	A	3457.353363503972	streaming
507.5188	0.0749970471078995	15	systole	38	B	500.0	streaming
507.6613	0.0749970471078995	15	systole	39	A	3457.353363503972	streaming
507.9863	0.0749970471078995	15	systole	40	A	3457.353363503972	streaming
508.1288	0.0749970471078995	15	systole	41	B	500.0	streaming
508.2713	0.0749970471078995	15	systole	42	A	3457.353363503972	streaming
508.5963	0.0749970471078995	15	systole	43	A	3457.353363503972	streaming
508.7387	0.0749970471078995	15	systole	44	B	500.0	streaming
508.8813	0.0749970471078995	15	systole	45	A	3457.353363503972	streaming
509.2192	0.0749970471078995	15	systole	46	A	3457.353363503972	streaming
509.3679	0.0749970471078995	15	systole	47	B	500.0	streaming
509.5167	0.0749970471078995	15	systole	48	A	3457.353363503972	streaming
509.8192	0.0749970471078995	15	systole	49	A	3457.353363503972	streaming
509.9679	0.0749970471078995	15	systole	50	B	500.0	streaming
510.1167	0.0749970471078995	15	systole	51	A	3457.353363503972	streaming
514.3126	0.0731276049045845	16	diastole	1	A	510.0000000000003	coherent
514.4589	0.0731276049045845	16	diastole	2	B	500.0	coherent
514.6051	0.0731276049045845	16	diastole	3	A	510.0000000000003	coherent
514.9026	0.0731276049045845	16	diastole	4	A	510.0000000000003	coherent
515.0488	0.0731276049045845	16	diastole	5	B	500.0	coherent
515.1951	0.0731276049045845	16	diastole	6	A	510.0000000000003	coherent
515.4926	0.0731276049045845	16	diastole	7	A	510.0000000000003	coherent
515.6389	0.0731276049045845	16	diastole	8	B	500.0	coherent
515.7851	0.0731276049045845	16	diastole	9	A	510.0000000000003	coherent
516.0826	0.0731276049045845	16	diastole	10	A	510.0000000000003	coherent
516.2289	0.0731276049045845	16	diastole	11	B	500.0	coherent
516.3751	0.0731276049045845	16	diastole	12	A	510.0000000000003	coherent
516.6726	0.0731276049045845	16	diastole	13	A	510.0000000000003	coherent
516.8189	0.0731276049045845	16	diastole	14	B	500.0	coherent
516.9651	0.0731276049045845	16	diastole	15	A	510.0000000000003	coherent
517.2626	0.0731276049045845	16	diastole	16	A	510.0000000000003	coherent
517.4089	0.0731276049045845	16	diastole	17	B	500.0	coherent
517.5551	0.0731276049045845	16	diastole	18	A	510.0000000000003	coherent
517.8797	0.0731276049045845	16	diastole	19	A	510.0000000000003	coherent
518.0272	0.0731276049045845	16	diastole	20	B	500.0	coherent
518.1747	0.0731276049045845	16	diastole	21	A	510.0000000000003	coherent
518.4896	0.0731276049045845	16	diastole	22	A	510.0000000000003	coherent
518.6371	0.0731276049045845	16	diastole	23	B	500.0	coherent
518.7846	0.0731276049045845	16	diastole	24	A	510.0000000000003	coherent
519.1096	0.0731276049045845	16	diastole	25	A	510.0000000000003	coherent
519.2571	0.0731276049045845	16	diastole	26	B	500.0	coherent
519.4046	0.0731276049045845	16	diastole	27	A	510.0000000000003	coherent
519.7396	0.0731276049045845	16	diastole	28	A	510.0000000000003	coherent
519.8871	0.0731276049045845	16	diastole	29	B	500.0	coherent
520.0346	0.0731276049045845	16	diastole	30	A	510.0000000000003	coherent
520.3866	0.0731276049045845	16	diastole	31	A	510.0000000000003	coherent
520.5354	0.0731276049045845	16	diastole	32	B	500.0	coherent
520.6842	0.0731276049045845	16	diastole	33	A	510.0000000000003	coherent
521.0208	0.0731276049045845	16	diastole	34	A	510.0000000000003	coherent
521.172	0.0731276049045845	16	diastole	35	B	500.0	coherent
521.3232	0.0731276049045845	16	diastole	36	A	510.0000000000003	coherent
521.6721	0.0731276049045845	16	diastole	37	A	510.0000000000003	coherent
521.8271	0.0731276049045845	16	diastole	38	B	500.0	coherent
521.982	0.0731276049045845	16	diastole	39	A	510.0000000000003	coherent
522.3291	0.0731276049045845	16	diastole	40	A	510.0000000000003	coherent
522.4854	0.0731276049045845	16	diastole	41	B	500.0	coherent
522.6416	0.0731276049045845	16	diastole	42	A	510.0000000000003	coherent
522.9661	0.0731276049045845	16	diastole	43	A	510.0000000000003	coherent
523.1237	0.0731276049045845	16	diastole	44	B	500.0	coherent
523.2811	0.0731276049045845	16	diastole	45	A	510.0000000000003	coherent
523.5962	0.0731276049045845	16	diastole	46	A	510.0000000000003	coherent
523.7537	0.0731276049045845	16	diastole	47	B	500.0	coherent
523.9112	0.0731276049045845	16	diastole	48	A	510.0000000000003	coherent
526.6564	0.0787506249907892	17	diastole	1	A	510.0000000000003	coherent
526.814	0.0787506249907892	17	diastole	2	B	500.0	coherent
526.9714	0.0787506249907892	17	diastole	3	A	510.0000000000003	coherent
527.2465	0.0787506249907892	17	diastole	4	A	510.0000000000003	coherent
527.404	0.0787506249907892	17	diastole	5	B	500.0	coherent
527.5615	0.0787506249907892	17	diastole	6	A	510.0000000000003	coherent
527.8365	0.0787506249907892	17	diastole	7	A	510.0000000000003	coherent
527.9941	0.0787506249907892	17	diastole	8	B	500.0	coherent
528.1515	0.0787506249907892	17	diastole	9	A	510.0000000000003	coherent
528.4181	0.0787506249907892	17	diastole	10	A	510.0000000000003	coherent
528.5707	0.0787506249907892	17	diastole	11	B	500.0	coherent
528.7231	0.0787506249907892	17	diastole	12	A	510.0000000000003	coherent
529.0383	0.0787506249907892	17	diastole	13	A	510.0000000000003	coherent
529.1908	0.0787506249907892	17	diastole	14	B	500.0	coherent
529.3433	0.0787506249907892	17	diastole	15	A	510.0000000000003	coherent
529.6483	0.0787506249907892	17	diastole	16	A	510.0000000000003	coherent
529.8008	0.0787506249907892	17	diastole	17	B	500.0	coherent
529.9533	0.0787506249907892	17	diastole	18	A	510.0000000000003	coherent
530.2583	0.0787506249907892	17	diastole	19	A	510.0000000000003	coherent
530.4108	0.0787506249907892	17	diastole	20	B	500.0	coherent
530.5633	0.0787506249907892	17	diastole	21	A	510.0000000000003	coherent
530.8412	0.0787506249907892	17	diastole	22	A	510.0000000000003	coherent
530.9925	0.0787506249907892	17	diastole	23	B	500.0	coherent
531.1437	0.0787506249907892	17	diastole	24	A	510.0000000000003	coherent
531.4242	0.0787506249907892	17	diastole	25	A	510.0000000000003	coherent
531.5742	0.0787506249907892	17	diastole	26	B	500.0	coherent
531.7242	0.0787506249907892	17	diastole	27	A	510.0000000000003	coherent
532.0071	0.0787506249907892	17	diastole	28	A	510.0000000000003	coherent
532.1559	0.0787506249907892	17	diastole	29	B	500.0	coherent
532.3046	0.0787506249907892	17	diastole	30	A	510.0000000000003	coherent
532.5901	0.0787506249907892	17	diastole	31	A	510.0000000000003	coherent
532.7376	0.0787506249907892	17	diastole	32	B	500.0	coherent
532.8851	0.0787506249907892	17	diastole	33	A	510.0000000000003	coherent
533.1701	0.0787506249907892	17	diastole	34	A	510.0000000000003	coherent
533.3176	0.0787506249907892	17	diastole	35	B	500.0	coherent
533.4651	0.0787506249907892	17	diastole	36	A	510.0000000000003	coherent
533.7501	0.0787506249907892	17	diastole	37	A	510.0000000000003	coherent
533.8976	0.0787506249907892	17	diastole	38	B	500.0	coherent
534.0451	0.0787506249907892	17	diastole	39	A	510.0000000000003	coherent
534.3301	0.0787506249907892	17	diastole	40	A	510.0000000000003	coherent
534.4776	0.0787506249907892	17	diastole	41	B	500.0	coherent
534.6251	0.0787506249907892	17	diastole	42	A	510.0000000000003	coherent
534.9101	0.0787506249907892	17	diastole	43	A	510.0000000000003	coherent
535.0576	0.0787506249907892	17	diastole	44	B	500.0	coherent
535.2051	0.0787506249907892	17	diastole	45	A	510.0000000000003	coherent
535.4899	0.0787506249907892	17	diastole	46	A	510.0000000000003	coherent
535.6374	0.0787506249907892	17	diastole	47	B	500.0	coherent
535.7849	0.0787506249907892	17	diastole	48	A	510.0000000000003	coherent
538.4599	0.073751547752181	18	diastole	1	A	510.0000000000003	coherent
538.6074	0.073751547752181	18	diastole	2	B	500.0	coherent
538.7549	0.073751547752181	18	diastole	3	A	510.0000000000003	coherent
539.0399	0.073751547752181	18	diastole	4	A	510.0000000000003	coherent
539.1875	0.073751547752181	18	diastole	5	B	500.0	coherent
539.3349	0.073751547752181	18	diastole	6	A	510.0000000000003	coherent
539.6199	0.073751547752181	18	diastole	7	A	510.0000000000003	coherent
539.7674	0.073751547752181	18	diastole	8	B	500.0	coherent
539.9149	0.073751547752181	18	diastole	9	A	510.0000000000003	coherent
540.1999	0.073751547752181	18	diastole	10	A	510.0000000000003	coherent
540.3474	0.073751547752181	18	diastole	11	B	500.0	coherent
540.4949	0.073751547752181	18	diastole	12	A	510.0000000000003	coherent
540.7799	0.073751547752181	18	diastole	13	A	510.0000000000003	coherent
540.9274	0.073751547752181	18	diastole	14	B	500.0	coherent
541.0749	0.073751547752181	18	diastole	15	A	510.0000000000003	coherent
541.3598	0.073751547752181	18	diastole	16	A	510.0000000000003	coherent
541.5073	0.073751547752181	18	diastole	17	B	500.0	coherent
541.6548	0.073751547752181	18	diastole	18	A	510.0000000000003	coherent
541.9397	0.073751547752181	18	diastole	19	A	510.0000000000003	coherent
542.0873	0.073751547752181	18	diastole	20	B	500.0	coherent
542.2347	0.073751547752181	18	diastole	21	A	510.0000000000003	coherent
542.5398	0.073751547752181	18	diastole	22	A	510.0000000000003	coherent
542.6873	0.073751547752181	18	diastole	23	B	500.0	coherent
542.8348	0.073751547752181	18	diastole	24	A	510.0000000000003	coherent
543.1214	0.073751547752181	18	diastole	25	A	510.0000000000003	coherent
543.2689	0.073751547752181	18	diastole	26	B	500.0	coherent
543.4164	0.073751547752181	18	diastole	27	A	510.0000000000003	coherent
543.6938	0.073751547752181	18	diastole	28	A	510.0000000000003	coherent
543.8403	0.073751547752181	18	diastole	29	B	500.0	coherent
543.9867	0.073751547752181	18	diastole	30	A	510.0000000000003	coherent
544.2567	0.073751547752181	18	diastole	31	A	510.0000000000003	coherent
544.4019	0.073751547752181	18	diastole	32	B	500.0	coherent
544.5471	0.073751547752181	18	diastole	33	A	510.0000000000003	coherent
544.8255	0.073751547752181	18	diastole	34	A	510.0000000000003	coherent
544.9705	0.073751547752181	18	diastole	35	B	500.0	coherent
545.1155	0.073751547752181	18	diastole	36	A	510.0000000000003	coherent
545.3955	0.073751547752181	18	diastole	37	A	510.0000000000003	coherent
545.5405	0.073751547752181	18	diastole	38	B	500.0	coherent
545.6854	0.073751547752181	18	diastole	39	A	510.0000000000003	coherent
545.9955	0.073751547752181	18	diastole	40	A	510.0000000000003	coherent
546.1405	0.073751547752181	18	diastole	41	B	500.0	coherent
546.2854	0.073751547752181	18	diastole	42	A	510.0000000000003	coherent
546.6166	0.073751547752181	18	diastole	43	A	510.0000000000003	coherent
546.7619	0.073751547752181	18	diastole	44	B	500.0	coherent
546.907	0.073751547752181	18	diastole	45	A	510.0000000000003	coherent
547.2309	0.073751547752181	18	diastole	46	A	510.0000000000003	coherent
547.3786	0.073751547752181	18	diastole	47	B	500.0	coherent
547.5263	0.073751547752181	18	diastole	48	A	510.0000000000003	coherent
547.8309	0.073751547752181	18	diastole	49	A	510.0000000000003	coherent
547.9786	0.073751547752181	18	diastole	50	B	500.0	coherent
548.1263	0.073751547752181	18	diastole	51	A	510.0000000000003	coherent
550.5442	0.0750024688022676	19	systole	1	A	3457.353363503972	streaming
550.6941	0.0750024688022676	19	systole	2	B	500.0	streaming
550.8441	0.0750024688022676	19	systole	3	A	3457.353363503972	streaming
551.1196	0.0750024688022676	19	systole	4	A	3457.353363503972	streaming
551.2683	0.0750024688022676	19	systole	5	B	500.0	streaming
551.4171	0.0750024688022676	19	systole	6	A	3457.353363503972	streaming
551.6996	0.0750024688022676	19	systole	7	A	3457.353363503972	streaming
551.8483	0.0750024688022676	19	systole	8	B	500.0	streaming
551.9971	0.0750024688022676	19	systole	9	A	3457.353363503972	streaming
552.2797	0.0750024688022676	19	systole	10	A	3457.353363503972	streaming
552.4283	0.0750024688022676	19	systole	11	B	500.0	streaming
552.5772	0.0750024688022676	19	systole	12	A	3457.353363503972	streaming
552.8896	0.0750024688022676	19	systole	13	A	3457.353363503972	streaming
553.0383	0.0750024688022676	19	systole	14	B	500.0	streaming
553.1871	0.0750024688022676	19	systole	15	A	3457.353363503972	streaming
553.4996	0.0750024688022676	19	systole	16	A	3457.353363503972	streaming
553.6483	0.0750024688022676	19	systole	17	B	500.0	streaming
553.7972	0.0750024688022676	19	systole	18	A	3457.353363503972	streaming
554.1097	0.0750024688022676	19	systole	19	A	3457.353363503972	streaming
554.2584	0.0750024688022676	19	systole	20	B	500.0	streaming
554.4072	0.0750024688022676	19	systole	21	A	3457.353363503972	streaming
554.7295	0.0750024688022676	19	systole	22	A	3457.353363503972	streaming
554.8782	0.0750024688022676	19	systole	23	B	500.0	streaming
555.027	0.0750024688022676	19	systole	24	A	3457.353363503972	streaming
555.3493	0.0750024688022676	19	systole	25	A	3457.353363503972	streaming
555.498	0.0750024688022676	19	systole	26	B	500.0	streaming
555.6468	0.0750024688022676	19	systole	27	A	3457.353363503972	streaming
555.9639	0.0750024688022676	19	systole	28	A	3457.353363503972	streaming
556.1138	0.0750024688022676	19	systole	29	B	500.0	streaming
556.2639	0.0750024688022676	19	systole	30	A	3457.353363503972	streaming
556.583	0.0750024688022676	19	systole	31	A	3457.353363503972	streaming
556.7355	0.0750024688022676	19	systole	32	B	500.0	streaming
556.888	0.0750024688022676	19	systole	33	A	3457.353363503972	streaming
557.1931	0.0750024688022676	19	systole	34	A	3457.353363503972	streaming
557.3455	0.0750024688022676	19	systole	35	B	500.0	streaming
557.4981	0.0750024688022676	19	systole	36	A	3457.353363503972	streaming
557.7731	0.0750024688022676	19	systole	37	A	3457.353363503972	streaming
557.9255	0.0750024688022676	19	systole	38	B	500.0	streaming
558.0781	0.0750024688022676	19	systole	39	A	3457.353363503972	streaming
558.3531	0.0750024688022676	19	systole	40	A	3457.353363503972	streaming
558.5056	0.0750024688022676	19	systole	41	B	500.0	streaming
558.6581	0.0750024688022676	19	systole	42	A	3457.353363503972	streaming
558.9231	0.0750024688022676	19	systole	43	A	3457.353363503972	streaming
559.0755	0.0750024688022676	19	systole	44	B	500.0	streaming
559.2281	0.0750024688022676	19	systole	45	A	3457.353363503972	streaming
559.493	0.0750024688022676	19	systole	46	A	3457.353363503972	streaming
559.6454	0.0750024688022676	19	systole	47	B	500.0	streaming
559.798	0.0750024688022676	19	systole	48	A	3457.353363503972	streaming
560.0447	0.0750024688022676	19	systole	49	A	3457.353363503972	streaming
560.1921	0.0750024688022676	19	systole	50	B	500.0	streaming
560.3397	0.0750024688022676	19	systole	51	A	3457.353363503972	streaming
563.2944	0.071874661691254	20	diastole	1	A	510.0000000000003	coherent
563.4407	0.071874661691254	20	diastole	2	B	500.0	coherent
563.587	0.071874661691254	20	diastole	3	A	510.0000000000003	coherent
563.9062	0.071874661691254	20	diastole	4	A	510.0000000000003	coherent
564.0525	0.071874661691254	20	diastole	5	B	500.0	coherent
564.1987	0.071874661691254	20	diastole	6	A	510.0000000000003	coherent
564.518	0.071874661691254	20	diastole	7	A	510.0000000000003	coherent
564.6642	0.071874661691254	20	diastole	8	B	500.0	coherent
564.8105	0.071874661691254	20	diastole	9	A	510.0000000000003	coherent
565.148	0.071874661691254	20	diastole	10	A	510.0000000000003	coherent
565.2978	0.071874661691254	20	diastole	11	B	500.0	coherent
565.4476	0.071874661691254	20	diastole	12	A	510.0000000000003	coherent
565.7592	0.071874661691254	20	diastole	13	A	510.0000000000003	coherent
565.9092	0.071874661691254	20	diastole	14	B	500.0	coherent
566.0592	0.071874661691254	20	diastole	15	A	510.0000000000003	coherent
566.3663	0.071874661691254	20	diastole	16	A	510.0000000000003	coherent
566.5176	0.071874661691254	20	diastole	17	B	500.0	coherent
566.6688	0.071874661691254	20	diastole	18	A	510.0000000000003	coherent
566.9664	0.071874661691254	20	diastole	19	A	510.0000000000003	coherent
567.1176	0.071874661691254	20	diastole	20	B	500.0	coherent
567.2689	0.071874661691254	20	diastole	21	A	510.0000000000003	coherent
567.5664	0.071874661691254	20	diastole	22	A	510.0000000000003	coherent
567.7177	0.071874661691254	20	diastole	23	B	500.0	coherent
567.8689	0.071874661691254	20	diastole	24	A	510.0000000000003	coherent
568.1464	0.071874661691254	20	diastole	25	A	510.0000000000003	coherent
568.2977	0.071874661691254	20	diastole	26	B	500.0	coherent
568.4489	0.071874661691254	20	diastole	27	A	510.0000000000003	coherent
568.7093	0.071874661691254	20	diastole	28	A	510.0000000000003	coherent
568.8593	0.071874661691254	20	diastole	29	B	500.0	coherent
569.0093	0.071874661691254	20	diastole	30	A	510.0000000000003	coherent
569.2793	0.071874661691254	20	diastole	31	A	510.0000000000003	coherent
569.4293	0.071874661691254	20	diastole	32	B	500.0	coherent
569.5793	0.071874661691254	20	diastole	33	A	510.0000000000003	coherent
569.8581	0.071874661691254	20	diastole	34	A	510.0000000000003	coherent
570.008	0.071874661691254	20	diastole	35	B	500.0	coherent
570.1577	0.071874661691254	20	diastole	36	A	510.0000000000003	coherent
570.4136	0.071874661691254	20	diastole	37	A	510.0000000000003	coherent
570.5609	0.071874661691254	20	diastole	38	B	500.0	coherent
570.7082	0.071874661691254	20	diastole	39	A	510.0000000000003	coherent
570.9813	0.071874661691254	20	diastole	40	A	510.0000000000003	coherent
571.1264	0.071874661691254	20	diastole	41	B	500.0	coherent
571.2714	0.071874661691254	20	diastole	42	A	510.0000000000003	coherent
571.5617	0.071874661691254	20	diastole	43	A	510.0000000000003	coherent
571.7068	0.071874661691254	20	diastole	44	B	500.0	coherent
571.8518	0.071874661691254	20	diastole	45	A	510.0000000000003	coherent
572.1414	0.071874661691254	20	diastole	46	A	510.0000000000003	coherent
572.2865	0.071874661691254	20	diastole	47	B	500.0	coherent
572.4314	0.071874661691254	20	diastole	48	A	510.0000000000003	coherent
575.4697	0.0743737062439322	21	systole	1	A	1812.791509567848	streaming
575.6182	0.0743737062439322	21	systole	2	B	500.0	streaming
575.7672	0.0743737062439322	21	systole	3	A	1812.791509567848	streaming
576.0396	0.0743737062439322	21	systole	4	A	1812.791509567848	streaming
576.1883	0.0743737062439322	21	systole	5	B	500.0	streaming
576.3371	0.0743737062439322	21	systole	6	A	1812.791509567848	streaming
576.6097	0.0743737062439322	21	systole	7	A	1812.791509567848	streaming
576.7583	0.0743737062439322	21	systole	8	B	500.0	streaming
576.9072	0.0743737062439322	21	systole	9	A	1812.791509567848	streaming
577.1797	0.0743737062439322	21	systole	10	A	1812.791509567848	streaming
577.3283	0.0743737062439322	21	systole	11	B	500.0	streaming
577.4772	0.0743737062439322	21	systole	12	A	1812.791509567848	streaming
577.7497	0.0743737062439322	21	systole	13	A	1812.791509567848	streaming
577.8983	0.0743737062439322	21	systole	14	B	500.0	streaming
578.0472	0.0743737062439322	21	systole	15	A	1812.791509567848	streaming
578.3152	0.0743737062439322	21	systole	16	A	1812.791509567848	streaming
578.4625	0.0743737062439322	21	systole	17	B	500.0	streaming
578.6101	0.0743737062439322	21	systole	18	A	1812.791509567848	streaming
578.8715	0.0743737062439322	21	systole	19	A	1812.791509567848	streaming
579.0151	0.0743737062439322	21	systole	20	B	500.0	streaming
579.1589	0.0743737062439322	21	systole	21	A	1812.791509567848	streaming
579.4415	0.0743737062439322	21	systole	22	A	1812.791509567848	streaming
579.5851	0.0743737062439322	21	systole	23	B	500.0	streaming
579.729	0.0743737062439322	21	systole	24	A	1812.791509567848	streaming
580.0116	0.0743737062439322	21	systole	25	A	1812.791509567848	streaming
580.1551	0.0743737062439322	21	systole	26	B	500.0	streaming
580.2991	0.0743737062439322	21	systole	27	A	1812.791509567848	streaming
580.5916	0.0743737062439322	21	systole	28	A	1812.791509567848	streaming
580.7352	0.0743737062439322	21	systole	29	B	500.0	streaming
580.8791	0.0743737062439322	21	systole	30	A	1812.791509567848	streaming
581.1769	0.0743737062439322	21	systole	31	A	1812.791509567848	streaming
581.3193	0.0743737062439322	21	systole	32	B	500.0	streaming
581.462	0.0743737062439322	21	systole	33	A	1812.791509567848	streaming
581.7669	0.0743737062439322	21	systole	34	A	1812.791509567848	streaming
581.9092	0.0743737062439322	21	systole	35	B	500.0	streaming
582.0519	0.0743737062439322	21	systole	36	A	1812.791509567848	streaming
582.3631	0.0743737062439322	21	systole	37	A	1812.791509567848	streaming
582.5067	0.0743737062439322	21	systole	38	B	500.0	streaming
582.6506	0.0743737062439322	21	systole	39	A	1812.791509567848	streaming
582.966	0.0743737062439322	21	systole	40	A	1812.791509567848	streaming
583.1108	0.0743737062439322	21	systole	41	B	500.0	streaming
583.256	0.0743737062439322	21	systole	42	A	1812.791509567848	streaming
583.5622	0.0743737062439322	21	systole	43	A	1812.791509567848	streaming
583.7083	0.0743737062439322	21	systole	44	B	500.0	streaming
583.8547	0.0743737062439322	21	systole	45	A	1812.791509567848	streaming
584.1538	0.0743737062439322	21	systole	46	A	1812.791509567848	streaming
584.2999	0.0743737062439322	21	systole	47	B	500.0	streaming
584.4463	0.0743737062439322	21	systole	48	A	1812.791509567848	streaming
586.4498	0.0730199505051132	22	systole	1	A	1116.994218377779	streaming
586.5957	0.0730199505051132	22	systole	2	B	500.0	streaming
586.7419	0.0730199505051132	22	systole	3	A	1116.994218377779	streaming
587.0006	0.0730199505051132	22	systole	4	A	1116.994218377779	streaming
587.144	0.0730199505051132	22	systole	5	B	500.0	streaming
587.2877	0.0730199505051132	22	systole	6	A	1116.994218377779	streaming
587.5605	0.0730199505051132	22	systole	7	A	1116.994218377779	streaming
587.7039	0.0730199505051132	22	systole	8	B	500.0	streaming
587.8476	0.0730199505051132	22	systole	9	A	1116.994218377779	streaming
588.1065	0.0730199505051132	22	systole	10	A	1116.994218377779	streaming
588.2489	0.0730199505051132	22	systole	11	B	500.0	streaming
588.3915	0.0730199505051132	22	systole	12	A	1116.994218377779	streaming
588.6683	0.0730199505051132	22	systole	13	A	1116.994218377779	streaming
588.8106	0.0730199505051132	22	systole	14	B	500.0	streaming
588.9533	0.0730199505051132	22	systole	15	A	1116.994218377779	streaming
589.2583	0.0730199505051132	22	systole	16	A	1116.994218377779	streaming
589.4006	0.0730199505051132	22	systole	17	B	500.0	streaming
589.5433	0.0730199505051132	22	systole	18	A	1116.994218377779	streaming
589.8483	0.0730199505051132	22	systole	19	A	1116.994218377779	streaming
589.9906	0.0730199505051132	22	systole	20	B	500.0	streaming
590.1333	0.0730199505051132	22	systole	21	A	1116.994218377779	streaming
590.4383	0.0730199505051132	22	systole	22	A	1116.994218377779	streaming
590.5806	0.0730199505051132	22	systole	23	B	500.0	streaming
590.7233	0.0730199505051132	22	systole	24	A	1116.994218377779	streaming
591.0287	0.0730199505051132	22	systole	25	A	1116.994218377779	streaming
591.1711	0.0730199505051132	22	systole	26	B	500.0	streaming
591.3137	0.0730199505051132	22	systole	27	A	1116.994218377779	streaming
591.6387	0.0730199505051132	22	systole	28	A	1116.994218377779	streaming
591.781	0.0730199505051132	22	systole	29	B	500.0	streaming
591.9237	0.0730199505051132	22	systole	30	A	1116.994218377779	streaming
592.2486	0.0730199505051132	22	systole	31	A	1116.994218377779	streaming
592.3909	0.0730199505051132	22	systole	32	B	500.0	streaming
592.5336	0.0730199505051132	22	systole	33	A	1116.994218377779	streaming
592.8574	0.0730199505051132	22	systole	34	A	1116.994218377779	streaming
593.0022	0.0730199505051132	22	systole	35	B	500.0	streaming
593.1474	0.0730199505051132	22	systole	36	A	1116.994218377779	streaming
593.457	0.0730199505051132	22	systole	37	A	1116.994218377779	streaming
593.6019	0.0730199505051132	22	systole	38	B	500.0	streaming
593.747	0.0730199505051132	22	systole	39	A	1116.994218377779	streaming
594.0562	0.0730199505051132	22	systole	40	A	1116.994218377779	streaming
594.2036	0.0730199505051132	22	systole	41	B	500.0	streaming
594.3513	0.0730199505051132	22	systole	42	A	1116.994218377779	streaming
594.6465	0.0730199505051132	22	systole	43	A	1116.994218377779	streaming
594.7938	0.0730199505051132	22	systole	44	B	500.0	streaming
594.9415	0.0730199505051132	22	systole	45	A	1116.994218377779	streaming
595.2164	0.0730199505051132	22	systole	46	A	1116.994218377779	streaming
595.3638	0.0730199505051132	22	systole	47	B	500.0	streaming
595.5115	0.0730199505051132	22	systole	48	A	1116.994218377779	streaming
595.7864	0.0730199505051132	22	systole	49	A	1116.994218377779	streaming
595.9338	0.0730199505051132	22	systole	50	B	500.0	streaming
596.0814	0.0730199505051132	22	systole	51	A	1116.994218377779	streaming
596.3564	0.0730199505051132	22	systole	52	A	1116.994218377779	streaming
596.5038	0.0730199505051132	22	systole	53	B	500.0	streaming
596.6514	0.0730199505051132	22	systole	54	A	1116.994218377779	streaming
598.6207	0.0724856563028879	23	systole	1	A	704.316936075347	coherent
598.7646	0.0724856563028879	23	systole	2	B	500.0	coherent
598.9081	0.0724856563028879	23	systole	3	A	704.316936075347	coherent
599.2056	0.0724856563028879	23	systole	4	A	704.316936075347	coherent
599.3507	0.0724856563028879	23	systole	5	B	500.0	coherent
599.4955	0.0724856563028879	23	systole	6	A	704.316936075347	coherent
599.7857	0.0724856563028879	23	systole	7	A	704.316936075347	coherent
599.9309	0.0724856563028879	23	systole	8	B	500.0	coherent
600.0757	0.0724856563028879	23	systole	9	A	704.316936075347	coherent
600.3557	0.0724856563028879	23	systole	10	A	704.316936075347	coherent
600.5009	0.0724856563028879	23	systole	11	B	500.0	coherent
600.6457	0.0724856563028879	23	systole	12	A	704.316936075347	coherent
600.9253	0.0724856563028879	23	systole	13	A	704.316936075347	coherent
601.0705	0.0724856563028879	23	systole	14	B	500.0	coherent
601.2153	0.0724856563028879	23	systole	15	A	704.316936075347	coherent
601.4949	0.0724856563028879	23	systole	16	A	704.316936075347	coherent
601.6401	0.0724856563028879	23	systole	17	B	500.0	coherent
601.7849	0.0724856563028879	23	systole	18	A	704.316936075347	coherent
602.0563	0.0724856563028879	23	systole	19	A	704.316936075347	coherent
602.199	0.0724856563028879	23	systole	20	B	500.0	coherent
602.3414	0.0724856563028879	23	systole	21	A	704.316936075347	coherent
602.6263	0.0724856563028879	23	systole	22	A	704.316936075347	coherent
602.769	0.0724856563028879	23	systole	23	B	500.0	coherent
602.9114	0.0724856563028879	23	systole	24	A	704.316936075347	coherent
603.1962	0.0724856563028879	23	systole	25	A	704.316936075347	coherent
603.339	0.0724856563028879	23	systole	26	B	500.0	coherent
603.4814	0.0724856563028879	23	systole	27	A	704.316936075347	coherent
603.7557	0.0724856563028879	23	systole	28	A	704.316936075347	coherent
603.8984	0.0724856563028879	23	systole	29	B	500.0	coherent
604.0407	0.0724856563028879	23	systole	30	A	704.316936075347	coherent
604.3257	0.0724856563028879	23	systole	31	A	704.316936075347	coherent
604.4684	0.0724856563028879	23	systole	32	B	500.0	coherent
604.6107	0.0724856563028879	23	systole	33	A	704.316936075347	coherent
604.8957	0.0724856563028879	23	systole	34	A	704.316936075347	coherent
605.0384	0.0724856563028879	23	systole	35	B	500.0	coherent
605.1807	0.0724856563028879	23	systole	36	A	704.316936075347	coherent
605.4559	0.0724856563028879	23	systole	37	A	704.316936075347	coherent
605.5985	0.0724856563028879	23	systole	38	B	500.0	coherent
605.7409	0.0724856563028879	23	systole	39	A	704.316936075347	coherent
606.0258	0.0724856563028879	23	systole	40	A	704.316936075347	coherent
606.1685	0.0724856563028879	23	systole	41	B	500.0	coherent
606.3108	0.0724856563028879	23	systole	42	A	704.316936075347	coherent
606.5959	0.0724856563028879	23	systole	43	A	704.316936075347	coherent
606.7386	0.0724856563028879	23	systole	44	B	500.0	coherent
606.8809	0.0724856563028879	23	systole	45	A	704.316936075347	coherent
607.156	0.0724856563028879	23	systole	46	A	704.316936075347	coherent
607.2986	0.0724856563028879	23	systole	47	B	500.0	coherent
607.4409	0.0724856563028879	23	systole	48	A	704.316936075347	coherent
607.7259	0.0724856563028879	23	systole	49	A	704.316936075347	coherent
607.8686	0.0724856563028879	23	systole	50	B	500.0	coherent
608.0109	0.0724856563028879	23	systole	51	A	704.316936075347	coherent
608.2959	0.0724856563028879	23	systole	52	A	704.316936075347	coherent
608.4386	0.0724856563028879	23	systole	53	B	500.0	coherent
608.5809	0.0724856563028879	23	systole	54	A	704.316936075347	coherent
610.9216	0.0712489513971377	24	diastole	1	A	3301.531841080714	streaming
611.0643	0.0712489513971377	24	diastole	2	B	500.0	streaming
611.2067	0.0712489513971377	24	diastole	3	A	3301.531841080714	streaming
611.512	0.0712489513971377	24	diastole	4	A	3301.531841080714	streaming
611.6547	0.0712489513971377	24	diastole	5	B	500.0	streaming
611.797	0.0712489513971377	24	diastole	6	A	3301.531841080714	streaming
612.0984	0.0712489513971377	24	diastole	7	A	3301.531841080714	streaming
612.2423	0.0712489513971377	24	diastole	8	B	500.0	streaming
612.3858	0.0712489513971377	24	diastole	9	A	3301.531841080714	streaming
612.6753	0.0712489513971377	24	diastole	10	A	3301.531841080714	streaming
612.8204	0.0712489513971377	24	diastole	11	B	500.0	streaming
612.9652	0.0712489513971377	24	diastole	12	A	3301.531841080714	streaming
613.2453	0.0712489513971377	24	diastole	13	A	3301.531841080714	streaming
613.3903	0.0712489513971377	24	diastole	14	B	500.0	streaming
613.5351	0.0712489513971377	24	diastole	15	A	3301.531841080714	streaming
613.8153	0.0712489513971377	24	diastole	16	A	3301.531841080714	streaming
613.9604	0.0712489513971377	24	diastole	17	B	500.0	streaming
614.1051	0.0712489513971377	24	diastole	18	A	3301.531841080714	streaming
614.3657	0.0712489513971377	24	diastole	19	A	3301.531841080714	streaming
614.5108	0.0712489513971377	24	diastole	20	B	500.0	streaming
614.6555	0.0712489513971377	24	diastole	21	A	3301.531841080714	streaming
614.9253	0.0712489513971377	24	diastole	22	A	3301.531841080714	streaming
615.0704	0.0712489513971377	24	diastole	23	B	500.0	streaming
615.2152	0.0712489513971377	24	diastole	24	A	3301.531841080714	streaming
615.4587	0.0712489513971377	24	diastole	25	A	3301.531841080714	streaming
615.6025	0.0712489513971377	24	diastole	26	B	500.0	streaming
615.7461	0.0712489513971377	24	diastole	27	A	3301.531841080714	streaming
615.9846	0.0712489513971377	24	diastole	28	A	3301.531841080714	streaming
616.1259	0.0712489513971377	24	diastole	29	B	500.0	streaming
616.267	0.0712489513971377	24	diastole	30	A	3301.531841080714	streaming
616.5539	0.0712489513971377	24	diastole	31	A	3301.531841080714	streaming
616.6952	0.0712489513971377	24	diastole	32	B	500.0	streaming
616.8362	0.0712489513971377	24	diastole	33	A	3301.531841080714	streaming
617.1235	0.0712489513971377	24	diastole	34	A	3301.531841080714	streaming
617.2648	0.0712489513971377	24	diastole	35	B	500.0	streaming
617.4058	0.0712489513971377	24	diastole	36	A	3301.531841080714	streaming
617.7035	0.0712489513971377	24	diastole	37	A	3301.531841080714	streaming
617.8448	0.0712489513971377	24	diastole	38	B	500.0	streaming
617.9858	0.0712489513971377	24	diastole	39	A	3301.531841080714	streaming
618.3334	0.0712489513971377	24	diastole	40	A	3301.531841080714	streaming
618.4747	0.0712489513971377	24	diastole	41	B	500.0	streaming
618.6157	0.0712489513971377	24	diastole	42	A	3301.531841080714	streaming
618.9839	0.0712489513971377	24	diastole	43	A	3301.531841080714	streaming
619.1251	0.0712489513971377	24	diastole	44	B	500.0	streaming
619.2662	0.0712489513971377	24	diastole	45	A	3301.531841080714	streaming
619.6537	0.0712489513971377	24	diastole	46	A	3301.531841080714	streaming
619.795	0.0712489513971377	24	diastole	47	B	500.0	streaming
619.936	0.0712489513971377	24	diastole	48	A	3301.531841080714	streaming
620.3509	0.0712489513971377	24	diastole	49	A	3301.531841080714	streaming
620.5022	0.0712489513971377	24	diastole	50	B	500.0	streaming
620.6533	0.0712489513971377	24	diastole	51	A	3301.531841080714	streaming
626.387	0.0762504312733654	25	diastole	1	A	510.0000000000003	coherent
626.5358	0.0762504312733654	25	diastole	2	B	500.0	coherent
626.6845	0.0762504312733654	25	diastole	3	A	510.0000000000003	coherent
626.957	0.0762504312733654	25	diastole	4	A	510.0000000000003	coherent
627.1058	0.0762504312733654	25	diastole	5	B	500.0	coherent
627.2546	0.0762504312733654	25	diastole	6	A	510.0000000000003	coherent
627.5271	0.0762504312733654	25	diastole	7	A	510.0000000000003	coherent
627.6759	0.0762504312733654	25	diastole	8	B	500.0	coherent
627.8246	0.0762504312733654	25	diastole	9	A	510.0000000000003	coherent
628.08	0.0762504312733654	25	diastole	10	A	510.0000000000003	coherent
628.2275	0.0762504312733654	25	diastole	11	B	500.0	coherent
628.375	0.0762504312733654	25	diastole	12	A	510.0000000000003	coherent
628.6087	0.0762504312733654	25	diastole	13	A	510.0000000000003	coherent
628.7525	0.0762504312733654	25	diastole	14	B	500.0	coherent
628.8963	0.0762504312733654	25	diastole	15	A	510.0000000000003	coherent
629.1587	0.0762504312733654	25	diastole	16	A	510.0000000000003	coherent
629.3024	0.0762504312733654	25	diastole	17	B	500.0	coherent
629.4462	0.0762504312733654	25	diastole	18	A	510.0000000000003	coherent
629.7016	0.0762504312733654	25	diastole	19	A	510.0000000000003	coherent
629.8441	0.0762504312733654	25	diastole	20	B	500.0	coherent
629.9866	0.0762504312733654	25	diastole	21	A	510.0000000000003	coherent
630.2745	0.0762504312733654	25	diastole	22	A	510.0000000000003	coherent
630.4157	0.0762504312733654	25	diastole	23	B	500.0	coherent
630.557	0.0762504312733654	25	diastole	24	A	510.0000000000003	coherent
630.8844	0.0762504312733654	25	diastole	25	A	510.0000000000003	coherent
631.0257	0.0762504312733654	25	diastole	26	B	500.0	coherent
631.1669	0.0762504312733654	25	diastole	27	A	510.0000000000003	coherent
631.5244	0.0762504312733654	25	diastole	28	A	510.0000000000003	coherent
631.6657	0.0762504312733654	25	diastole	29	B	500.0	coherent
631.8069	0.0762504312733654	25	diastole	30	A	510.0000000000003	coherent
632.1815	0.0762504312733654	25	diastole	31	A	510.0000000000003	coherent
632.324	0.0762504312733654	25	diastole	32	B	500.0	coherent
632.4665	0.0762504312733654	25	diastole	33	A	510.0000000000003	coherent
632.8568	0.0762504312733654	25	diastole	34	A	510.0000000000003	coherent
633.0055	0.0762504312733654	25	diastole	35	B	500.0	coherent
633.1543	0.0762504312733654	25	diastole	36	A	510.0000000000003	coherent
633.4967	0.0762504312733654	25	diastole	37	A	510.0000000000003	coherent
633.6455	0.0762504312733654	25	diastole	38	B	500.0	coherent
633.7942	0.0762504312733654	25	diastole	39	A	510.0000000000003	coherent
634.1791	0.0762504312733654	25	diastole	40	A	510.0000000000003	coherent
634.3353	0.0762504312733654	25	diastole	41	B	500.0	coherent
634.4916	0.0762504312733654	25	diastole	42	A	510.0000000000003	coherent
634.8504	0.0762504312733654	25	diastole	43	A	510.0000000000003	coherent
635.0104	0.0762504312733654	25	diastole	44	B	500.0	coherent
635.1704	0.0762504312733654	25	diastole	45	A	510.0000000000003	coherent
635.5004	0.0762504312733654	25	diastole	46	A	510.0000000000003	coherent
635.6604	0.0762504312733654	25	diastole	47	B	500.0	coherent
635.8204	0.0762504312733654	25	diastole	48	A	510.0000000000003	coherent
638.4823	0.079372924985364	26	diastole	1	A	510.0000000000003	coherent
638.6374	0.079372924985364	26	diastole	2	B	500.0	coherent
638.7924	0.079372924985364	26	diastole	3	A	510.0000000000003	coherent
639.0621	0.079372924985364	26	diastole	4	A	510.0000000000003	coherent
639.2171	0.079372924985364	26	diastole	5	B	500.0	coherent
639.3721	0.079372924985364	26	diastole	6	A	510.0000000000003	coherent
639.6176	0.079372924985364	26	diastole	7	A	510.0000000000003	coherent
639.7701	0.079372924985364	26	diastole	8	B	500.0	coherent
639.9226	0.079372924985364	26	diastole	9	A	510.0000000000003	coherent
640.1595	0.079372924985364	26	diastole	10	A	510.0000000000003	coherent
640.307	0.079372924985364	26	diastole	11	B	500.0	coherent
640.4545	0.079372924985364	26	diastole	12	A	510.0000000000003	coherent
640.7294	0.079372924985364	26	diastole	13	A	510.0000000000003	coherent
640.877	0.079372924985364	26	diastole	14	B	500.0	coherent
641.0245	0.079372924985364	26	diastole	15	A	510.0000000000003	coherent
641.2779	0.079372924985364	26	diastole	16	A	510.0000000000003	coherent
641.4217	0.079372924985364	26	diastole	17	B	500.0	coherent
641.5654	0.079372924985364	26	diastole	18	A	510.0000000000003	coherent
641.831	0.079372924985364	26	diastole	19	A	510.0000000000003	coherent
641.9735	0.079372924985364	26	diastole	20	B	500.0	coherent
642.116	0.079372924985364	26	diastole	21	A	510.0000000000003	coherent
642.391	0.079372924985364	26	diastole	22	A	510.0000000000003	coherent
642.5336	0.079372924985364	26	diastole	23	B	500.0	coherent
642.676	0.079372924985364	26	diastole	24	A	510.0000000000003	coherent
642.944	0.079372924985364	26	diastole	25	A	510.0000000000003	coherent
643.0853	0.079372924985364	26	diastole	26	B	500.0	coherent
643.2265	0.079372924985364	26	diastole	27	A	510.0000000000003	coherent
643.5041	0.079372924985364	26	diastole	28	A	510.0000000000003	coherent
643.6453	0.079372924985364	26	diastole	29	B	500.0	coherent
643.7866	0.079372924985364	26	diastole	30	A	510.0000000000003	coherent
644.0571	0.079372924985364	26	diastole	31	A	510.0000000000003	coherent
644.1971	0.079372924985364	26	diastole	32	B	500.0	coherent
644.3371	0.079372924985364	26	diastole	33	A	510.0000000000003	coherent
644.6271	0.079372924985364	26	diastole	34	A	510.0000000000003	coherent
644.7671	0.079372924985364	26	diastole	35	B	500.0	coherent
644.9071	0.079372924985364	26	diastole	36	A	510.0000000000003	coherent
645.1971	0.079372924985364	26	diastole	37	A	510.0000000000003	coherent
645.3371	0.079372924985364	26	diastole	38	B	500.0	coherent
645.4772	0.079372924985364	26	diastole	39	A	510.0000000000003	coherent
645.7671	0.079372924985364	26	diastole	40	A	510.0000000000003	coherent
645.9071	0.079372924985364	26	diastole	41	B	500.0	coherent
646.0471	0.079372924985364	26	diastole	42	A	510.0000000000003	coherent
646.3441	0.079372924985364	26	diastole	43	A	510.0000000000003	coherent
646.4854	0.079372924985364	26	diastole	44	B	500.0	coherent
646.6267	0.079372924985364	26	diastole	45	A	510.0000000000003	coherent
646.9142	0.079372924985364	26	diastole	46	A	510.0000000000003	coherent
647.0554	0.079372924985364	26	diastole	47	B	500.0	coherent
647.1966	0.079372924985364	26	diastole	48	A	510.0000000000003	coherent
647.4942	0.079372924985364	26	diastole	49	A	510.0000000000003	coherent
647.6354	0.079372924985364	26	diastole	50	B	500.0	coherent
647.7767	0.079372924985364	26	diastole	51	A	510.0000000000003	coherent
649.937	0.0706246499321423	27	systole	1	A	720.7460505647621	coherent
650.0773	0.0706246499321423	27	systole	2	B	500.0	coherent
650.2171	0.0706246499321423	27	systole	3	A	720.7460505647621	coherent
650.4871	0.0706246499321423	27	systole	4	A	720.7460505647621	coherent
650.6273	0.0706246499321423	27	systole	5	B	500.0	coherent
650.7671	0.0706246499321423	27	systole	6	A	720.7460505647621	coherent
651.0225	0.0706246499321423	27	systole	7	A	720.7460505647621	coherent
651.1614	0.0706246499321423	27	systole	8	B	500.0	coherent
651.2999	0.0706246499321423	27	systole	9	A	720.7460505647621	coherent
651.5679	0.0706246499321423	27	systole	10	A	720.7460505647621	coherent
651.7056	0.0706246499321423	27	systole	11	B	500.0	coherent
651.8429	0.0706246499321423	27	systole	12	A	720.7460505647621	coherent
652.1179	0.0706246499321423	27	systole	13	A	720.7460505647621	coherent
652.2556	0.0706246499321423	27	systole	14	B	500.0	coherent
652.3929	0.0706246499321423	27	systole	15	A	720.7460505647621	coherent
652.6779	0.0706246499321423	27	systole	16	A	720.7460505647621	coherent
652.8156	0.0706246499321423	27	systole	17	B	500.0	coherent
652.9529	0.0706246499321423	27	systole	18	A	720.7460505647621	coherent
653.2779	0.0706246499321423	27	systole	19	A	720.7460505647621	coherent
653.4157	0.0706246499321423	27	systole	20	B	500.0	coherent
653.553	0.0706246499321423	27	systole	21	A	720.7460505647621	coherent
653.878	0.0706246499321423	27	systole	22	A	720.7460505647621	coherent
654.0157	0.0706246499321423	27	systole	23	B	500.0	coherent
654.153	0.0706246499321423	27	systole	24	A	720.7460505647621	coherent
654.4925	0.0706246499321423	27	systole	25	A	720.7460505647621	coherent
654.6314	0.0706246499321423	27	systole	26	B	500.0	coherent
654.77	0.0706246499321423	27	systole	27	A	720.7460505647621	coherent
655.1308	0.0706246499321423	27	systole	28	A	720.7460505647621	coherent
655.2748	0.0706246499321423	27	systole	29	B	500.0	coherent
655.4183	0.0706246499321423	27	systole	30	A	720.7460505647621	coherent
655.7692	0.0706246499321423	27	systole	31	A	720.7460505647621	coherent
655.9181	0.0706246499321423	27	systole	32	B	500.0	coherent
656.0667	0.0706246499321423	27	systole	33	A	720.7460505647621	coherent
656.3883	0.0706246499321423	27	systole	34	A	720.7460505647621	coherent
656.5397	0.0706246499321423	27	systole	35	B	500.0	coherent
656.6908	0.0706246499321423	27	systole	36	A	720.7460505647621	coherent
657.0229	0.0706246499321423	27	systole	37	A	720.7460505647621	coherent
657.1756	0.0706246499321423	27	systole	38	B	500.0	coherent
657.3279	0.0706246499321423	27	systole	39	A	720.7460505647621	coherent
657.6475	0.0706246499321423	27	systole	40	A	720.7460505647621	coherent
657.8014	0.0706246499321423	27	systole	41	B	500.0	coherent
657.955	0.0706246499321423	27	systole	42	A	720.7460505647621	coherent
658.2721	0.0706246499321423	27	systole	43	A	720.7460505647621	coherent
658.4273	0.0706246499321423	27	systole	44	B	500.0	coherent
658.5821	0.0706246499321423	27	systole	45	A	720.7460505647621	coherent
658.8921	0.0706246499321423	27	systole	46	A	720.7460505647621	coherent
659.0473	0.0706246499321423	27	systole	47	B	500.0	coherent
659.2021	0.0706246499321423	27	systole	48	A	720.7460505647621	coherent
659.4922	0.0706246499321423	27	systole	49	A	720.7460505647621	coherent
659.6474	0.0706246499321423	27	systole	50	B	500.0	coherent
659.8022	0.0706246499321423	27	systole	51	A	720.7460505647621	coherent
661.8776	0.0756253213621676	28	systole	1	A	754.7629107028698	coherent
662.0271	0.0756253213621676	28	systole	2	B	500.0	coherent
662.1781	0.0756253213621676	28	systole	3	A	754.7629107028698	coherent
662.4796	0.0756253213621676	28	systole	4	A	754.7629107028698	coherent
662.6291	0.0756253213621676	28	systole	5	B	500.0	coherent
662.7801	0.0756253213621676	28	systole	6	A	754.7629107028698	coherent
663.0876	0.0756253213621676	28	systole	7	A	754.7629107028698	coherent
663.2371	0.0756253213621676	28	systole	8	B	500.0	coherent
663.3881	0.0756253213621676	28	systole	9	A	754.7629107028698	coherent
663.6867	0.0756253213621676	28	systole	10	A	754.7629107028698	coherent
663.8359	0.0756253213621676	28	systole	11	B	500.0	coherent
663.9867	0.0756253213621676	28	systole	12	A	754.7629107028698	coherent
664.2967	0.0756253213621676	28	systole	13	A	754.7629107028698	coherent
664.4459	0.0756253213621676	28	systole	14	B	500.0	coherent
664.5967	0.0756253213621676	28	systole	15	A	754.7629107028698	coherent
664.9067	0.0756253213621676	28	systole	16	A	754.7629107028698	coherent
665.0559	0.0756253213621676	28	systole	17	B	500.0	coherent
665.2067	0.0756253213621676	28	systole	18	A	754.7629107028698	coherent
665.5167	0.0756253213621676	28	systole	19	A	754.7629107028698	coherent
665.6659	0.0756253213621676	28	systole	20	B	500.0	coherent
665.8167	0.0756253213621676	28	systole	21	A	754.7629107028698	coherent
666.1312	0.0756253213621676	28	systole	22	A	754.7629107028698	coherent
666.2817	0.0756253213621676	28	systole	23	B	500.0	coherent
666.4337	0.0756253213621676	28	systole	24	A	754.7629107028698	coherent
666.7458	0.0756253213621676	28	systole	25	A	754.7629107028698	coherent
666.8975	0.0756253213621676	28	systole	26	B	500.0	coherent
667.0508	0.0756253213621676	28	systole	27	A	754.7629107028698	coherent
667.3559	0.0756253213621676	28	systole	28	A	754.7629107028698	coherent
667.5076	0.0756253213621676	28	systole	29	B	500.0	coherent
667.6609	0.0756253213621676	28	systole	30	A	754.7629107028698	coherent
667.966	0.0756253213621676	28	systole	31	A	754.7629107028698	coherent
668.1177	0.0756253213621676	28	systole	32	B	500.0	coherent
668.2709	0.0756253213621676	28	systole	33	A	754.7629107028698	coherent
668.5559	0.0756253213621676	28	systole	34	A	754.7629107028698	coherent
668.7076	0.0756253213621676	28	systole	35	B	500.0	coherent
668.8609	0.0756253213621676	28	systole	36	A	754.7629107028698	coherent
669.1342	0.0756253213621676	28	systole	37	A	754.7629107028698	coherent
669.286	0.0756253213621676	28	systole	38	B	500.0	coherent
669.4392	0.0756253213621676	28	systole	39	A	754.7629107028698	coherent
669.7142	0.0756253213621676	28	systole	40	A	754.7629107028698	coherent
669.866	0.0756253213621676	28	systole	41	B	500.0	coherent
670.0193	0.0756253213621676	28	systole	42	A	754.7629107028698	coherent
670.2943	0.0756253213621676	28	systole	43	A	754.7629107028698	coherent
670.446	0.0756253213621676	28	systole	44	B	500.0	coherent
670.5993	0.0756253213621676	28	systole	45	A	754.7629107028698	coherent
670.8468	0.0756253213621676	28	systole	46	A	754.7629107028698	coherent
670.9937	0.0756253213621676	28	systole	47	B	500.0	coherent
671.1422	0.0756253213621676	28	systole	48	A	754.7629107028698	coherent
671.4214	0.0756253213621676	28	systole	49	A	754.7629107028698	coherent
671.5669	0.0756253213621676	28	systole	50	B	500.0	coherent
671.7139	0.0756253213621676	28	systole	51	A	754.7629107028698	coherent
671.9992	0.0756253213621676	28	systole	52	A	754.7629107028698	coherent
672.1436	0.0756253213621676	28	systole	53	B	500.0	coherent
672.2896	0.0756253213621676	28	systole	54	A	754.7629107028698	coherent
675.6592	0.0738534750707913	29	systole	1	A	4774.652015515508	streaming
675.808	0.0738534750707913	29	systole	2	B	500.0	streaming
675.9567	0.0738534750707913	29	systole	3	A	4774.652015515508	streaming
676.249	0.0738534750707913	29	systole	4	A	4774.652015515508	streaming
676.3978	0.0738534750707913	29	systole	5	B	500.0	streaming
676.5465	0.0738534750707913	29	systole	6	A	4774.652015515508	streaming
676.8388	0.0738534750707913	29	systole	7	A	4774.652015515508	streaming
676.9877	0.0738534750707913	29	systole	8	B	500.0	streaming
677.1363	0.0738534750707913	29	systole	9	A	4774.652015515508	streaming
677.4189	0.0738534750707913	29	systole	10	A	4774.652015515508	streaming
677.5678	0.0738534750707913	29	systole	11	B	500.0	streaming
677.7164	0.0738534750707913	29	systole	12	A	4774.652015515508	streaming
677.999	0.0738534750707913	29	systole	13	A	4774.652015515508	streaming
678.1478	0.0738534750707913	29	systole	14	B	500.0	streaming
678.2965	0.0738534750707913	29	systole	15	A	4774.652015515508	streaming
678.5643	0.0738534750707913	29	systole	16	A	4774.652015515508	streaming
678.7118	0.0738534750707913	29	systole	17	B	500.0	streaming
678.8592	0.0738534750707913	29	systole	18	A	4774.652015515508	streaming
679.1397	0.0738534750707913	29	systole	19	A	4774.652015515508	streaming
679.286	0.0738534750707913	29	systole	20	B	500.0	streaming
679.4322	0.0738534750707913	29	systole	21	A	4774.652015515508	streaming
679.7196	0.0738534750707913	29	systole	22	A	4774.652015515508	streaming
679.866	0.0738534750707913	29	systole	23	B	500.0	streaming
680.0121	0.0738534750707913	29	systole	24	A	4774.652015515508	streaming
680.2852	0.0738534750707913	29	systole	25	A	4774.652015515508	streaming
680.4303	0.0738534750707913	29	systole	26	B	500.0	streaming
680.5752	0.0738534750707913	29	systole	27	A	4774.652015515508	streaming
680.8551	0.0738534750707913	29	systole	28	A	4774.652015515508	streaming
681.0002	0.0738534750707913	29	systole	29	B	500.0	streaming
681.1451	0.0738534750707913	29	systole	30	A	4774.652015515508	streaming
681.4251	0.0738534750707913	29	systole	31	A	4774.652015515508	streaming
681.5702	0.0738534750707913	29	systole	32	B	500.0	streaming
681.7151	0.0738534750707913	29	systole	33	A	4774.652015515508	streaming
682.0151	0.0738534750707913	29	systole	34	A	4774.652015515508	streaming
682.1602	0.0738534750707913	29	systole	35	B	500.0	streaming
682.3051	0.0738534750707913	29	systole	36	A	4774.652015515508	streaming
682.6251	0.0738534750707913	29	systole	37	A	4774.652015515508	streaming
682.7701	0.0738534750707913	29	systole	38	B	500.0	streaming
682.915	0.0738534750707913	29	systole	39	A	4774.652015515508	streaming
683.2351	0.0738534750707913	29	systole	40	A	4774.652015515508	streaming
683.3802	0.0738534750707913	29	systole	41	B	500.0	streaming
683.5251	0.0738534750707913	29	systole	42	A	4774.652015515508	streaming
683.8451	0.0738534750707913	29	systole	43	A	4774.652015515508	streaming
683.9902	0.0738534750707913	29	systole	44	B	500.0	streaming
684.1351	0.0738534750707913	29	systole	45	A	4774.652015515508	streaming
684.4551	0.0738534750707913	29	systole	46	A	4774.652015515508	streaming
684.6002	0.0738534750707913	29	systole	47	B	500.0	streaming
684.7451	0.0738534750707913	29	systole	48	A	4774.652015515508	streaming
685.0696	0.0738534750707913	29	systole	49	A	4774.652015515508	streaming
685.216	0.0738534750707913	29	systole	50	B	500.0	streaming
685.3621	0.0738534750707913	29	systole	51	A	4774.652015515508	streaming
687.7239	0.075004637503298	30	diastole	1	A	3152.7331318609326	streaming
687.874	0.075004637503298	30	diastole	2	B	500.0	streaming
688.0239	0.075004637503298	30	diastole	3	A	3152.7331318609326	streaming
688.2868	0.075004637503298	30	diastole	4	A	3152.7331318609326	streaming
688.4357	0.075004637503298	30	diastole	5	B	500.0	streaming
688.5844	0.075004637503298	30	diastole	6	A	3152.7331318609326	streaming
688.8568	0.075004637503298	30	diastole	7	A	3152.7331318609326	streaming
689.0057	0.075004637503298	30	diastole	8	B	500.0	streaming
689.1543	0.075004637503298	30	diastole	9	A	3152.7331318609326	streaming
689.4097	0.075004637503298	30	diastole	10	A	3152.7331318609326	streaming
689.5573	0.075004637503298	30	diastole	11	B	500.0	streaming
689.7047	0.075004637503298	30	diastole	12	A	3152.7331318609326	streaming
689.9697	0.075004637503298	30	diastole	13	A	3152.7331318609326	streaming
690.1173	0.075004637503298	30	diastole	14	B	500.0	streaming
690.2647	0.075004637503298	30	diastole	15	A	3152.7331318609326	streaming
690.5128	0.075004637503298	30	diastole	16	A	3152.7331318609326	streaming
690.6591	0.075004637503298	30	diastole	17	B	500.0	streaming
690.8053	0.075004637503298	30	diastole	18	A	3152.7331318609326	streaming
691.0486	0.075004637503298	30	diastole	19	A	3152.7331318609326	streaming
691.1924	0.075004637503298	30	diastole	20	B	500.0	streaming
691.336	0.075004637503298	30	diastole	21	A	3152.7331318609326	streaming
691.5986	0.075004637503298	30	diastole	22	A	3152.7331318609326	streaming
691.7424	0.075004637503298	30	diastole	23	B	500.0	streaming
691.8861	0.075004637503298	30	diastole	24	A	3152.7331318609326	streaming
692.1661	0.075004637503298	30	diastole	25	A	3152.7331318609326	streaming
692.3075	0.075004637503298	30	diastole	26	B	500.0	streaming
692.4486	0.075004637503298	30	diastole	27	A	3152.7331318609326	streaming
692.7477	0.075004637503298	30	diastole	28	A	3152.7331318609326	streaming
692.889	0.075004637503298	30	diastole	29	B	500.0	streaming
693.0302	0.075004637503298	30	diastole	30	A	3152.7331318609326	streaming
693.3776	0.075004637503298	30	diastole	31	A	3152.7331318609326	streaming
693.519	0.075004637503298	30	diastole	32	B	500.0	streaming
693.6602	0.075004637503298	30	diastole	33	A	3152.7331318609326	streaming
694.0077	0.075004637503298	30	diastole	34	A	3152.7331318609326	streaming
