onset	duration	trial_num	trial_type	tone_num	tone_type	frequency	response
48.5933	0.1144976445066277	1	diastole	1	B	500	diastole
49.453700000000026	0.1144976445066277	1	diastole	2	B	500	diastole
50.188699999999926	0.1144976445066277	1	diastole	3	B	500	diastole
50.95869999999991	0.1144976445066277	1	diastole	4	B	500	diastole
52.0003999999999	0.1144976445066277	1	diastole	5	B	500	diastole
52.990600000000086	0.1144976445066277	1	diastole	6	B	500	diastole
53.85050000000001	0.1144976445066277	1	diastole	7	B	500	diastole
54.68049999999994	0.1144976445066277	1	diastole	8	B	500	diastole
55.531799999999976	0.1144976445066277	1	diastole	9	B	500	diastole
56.45180000000005	0.1144976445066277	1	diastole	10	B	500	diastole
57.44139999999993	0.1144976445066277	1	diastole	11	B	500	diastole
65.27620000000002	0.1093744033714756	2	diastole	1	B	500	systole
66.00800000000004	0.1093744033714756	2	diastole	2	B	500	systole
66.79770000000008	0.1093744033714756	2	diastole	3	B	500	systole
67.58729999999991	0.1093744033714756	2	diastole	4	B	500	systole
68.49389999999994	0.1093744033714756	2	diastole	5	B	500	systole
69.4643000000001	0.1093744033714756	2	diastole	6	B	500	systole
70.4342999999999	0.1093744033714756	2	diastole	7	B	500	systole
71.44260000000008	0.1093744033714756	2	diastole	8	B	500	systole
72.39249999999993	0.1093744033714756	2	diastole	9	B	500	systole
73.3406	0.1093744033714756	2	diastole	10	B	500	systole
74.0326	0.1093744033714756	2	diastole	11	B	500	systole
77.82099999999991	0.1180927014502231	3	diastole	1	B	500	systole
78.61110000000008	0.1180927014502231	3	diastole	2	B	500	systole
79.45100000000002	0.1180927014502231	3	diastole	3	B	500	systole
80.19949999999994	0.1180927014502231	3	diastole	4	B	500	systole
81.15460000000007	0.1180927014502231	3	diastole	5	B	500	systole
82.08459999999991	0.1180927014502231	3	diastole	6	B	500	systole
83.11959999999999	0.1180927014502231	3	diastole	7	B	500	systole
83.9996000000001	0.1180927014502231	3	diastole	8	B	500	systole
84.81960000000004	0.1180927014502231	3	diastole	9	B	500	systole
85.63959999999997	0.1180927014502231	3	diastole	10	B	500	systole
86.44789999999989	0.1180927014502231	3	diastole	11	B	500	systole
90.51870000000008	0.1100015999691095	4	systole	1	B	500	diastole
91.38869999999997	0.1100015999691095	4	systole	2	B	500	diastole
92.16290000000004	0.1100015999691095	4	systole	3	B	500	diastole
92.9529	0.1100015999691095	4	systole	4	B	500	diastole
93.74279999999999	0.1100015999691095	4	systole	5	B	500	diastole
94.67000000000007	0.1100015999691095	4	systole	6	B	500	diastole
95.6099999999999	0.1100015999691095	4	systole	7	B	500	diastole
96.47689999999989	0.1100015999691095	4	systole	8	B	500	diastole
97.33680000000004	0.1100015999691095	4	systole	9	B	500	diastole
98.22869999999989	0.1100015999691095	4	systole	10	B	500	diastole
99.12699999999995	0.1100015999691095	4	systole	11	B	500	diastole
104.00949999999989	0.1118858461850322	5	diastole	1	B	500	systole
104.93949999999995	0.1118858461850322	5	diastole	2	B	500	systole
105.75900000000001	0.1118858461850322	5	diastole	3	B	500	systole
106.6090999999999	0.1118858461850322	5	diastole	4	B	500	systole
107.61570000000006	0.1118858461850322	5	diastole	5	B	500	systole
108.61570000000006	0.1118858461850322	5	diastole	6	B	500	systole
109.61570000000006	0.1118858461850322	5	diastole	7	B	500	systole
110.57439999999997	0.1118858461850322	5	diastole	8	B	500	systole
111.4043999999999	0.1118858461850322	5	diastole	9	B	500	systole
112.23440000000005	0.1118858461850322	5	diastole	10	B	500	systole
116.7170000000001	0.1112523702322505	6	systole	1	B	500	diastole
117.54700000000003	0.1112523702322505	6	systole	2	B	500	diastole
118.30700000000002	0.1112523702322505	6	systole	3	B	500	diastole
119.10699999999997	0.1112523702322505	6	systole	4	B	500	diastole
119.90699999999993	0.1112523702322505	6	systole	5	B	500	diastole
120.84609999999998	0.1112523702322505	6	systole	6	B	500	diastole
121.78359999999998	0.1112523702322505	6	systole	7	B	500	diastole
122.70370000000003	0.1112523702322505	6	systole	8	B	500	diastole
123.4362000000001	0.1112523702322505	6	systole	9	B	500	diastole
124.25620000000004	0.1112523702322505	6	systole	10	B	500	diastole
125.11650000000009	0.1112523702322505	6	systole	11	B	500	diastole
126.04420000000005	0.1112523702322505	6	systole	12	B	500	diastole
129.83490000000006	0.1062768127012532	7	diastole	1	B	500	diastole
130.70489999999995	0.1062768127012532	7	diastole	2	B	500	diastole
131.5096000000001	0.1062768127012532	7	diastole	3	B	500	diastole
132.4598000000001	0.1062768127012532	7	diastole	4	B	500	diastole
133.35979999999995	0.1062768127012532	7	diastole	5	B	500	diastole
134.2376999999999	0.1062768127012532	7	diastole	6	B	500	diastole
135.10770000000002	0.1062768127012532	7	diastole	7	B	500	diastole
135.9777999999999	0.1062768127012532	7	diastole	8	B	500	diastole
136.8478	0.1062768127012532	7	diastole	9	B	500	diastole
137.6078	0.1062768127012532	7	diastole	10	B	500	diastole
138.3677	0.1062768127012532	7	diastole	11	B	500	diastole
144.52469999999994	0.1024955239845439	8	systole	1	B	500	diastole
145.3046999999999	0.1024955239845439	8	systole	2	B	500	diastole
146.0847000000001	0.1024955239845439	8	systole	3	B	500	diastole
146.79729999999995	0.1024955239845439	8	systole	4	B	500	diastole
147.48980000000006	0.1024955239845439	8	systole	5	B	500	diastole
148.23389999999995	0.1024955239845439	8	systole	6	B	500	diastole
148.98389999999995	0.1024955239845439	8	systole	7	B	500	diastole
149.9139	0.1024955239845439	8	systole	8	B	500	diastole
150.73389999999995	0.1024955239845439	8	systole	9	B	500	diastole
151.55389999999989	0.1024955239845439	8	systole	10	B	500	diastole
152.4296999999999	0.1024955239845439	8	systole	11	B	500	diastole
153.2998	0.1024955239845439	8	systole	12	B	500	diastole
156.92129999999997	0.1018766317865811	9	systole	1	B	500	diastole
157.59120000000007	0.1018766317865811	9	systole	2	B	500	diastole
158.2288000000001	0.1018766317865811	9	systole	3	B	500	diastole
158.8762999999999	0.1018766317865811	9	systole	4	B	500	diastole
159.6162999999999	0.1018766317865811	9	systole	5	B	500	diastole
160.37619999999993	0.1018766317865811	9	systole	6	B	500	diastole
161.1463000000001	0.1018766317865811	9	systole	7	B	500	diastole
161.9163000000001	0.1018766317865811	9	systole	8	B	500	diastole
162.6880000000001	0.1018766317865811	9	systole	9	B	500	diastole
163.50710000000004	0.1018766317865811	9	systole	10	B	500	diastole
164.2971	0.1018766317865811	9	systole	11	B	500	diastole
165.2147	0.1018766317865811	9	systole	12	B	500	diastole
166.17049999999995	0.1018766317865811	9	systole	13	B	500	diastole
172.24970000000008	0.105620630813064	10	diastole	1	B	500	diastole
173.26970000000006	0.105620630813064	10	diastole	2	B	500	diastole
174.19309999999996	0.105620630813064	10	diastole	3	B	500	diastole
174.91930000000002	0.105620630813064	10	diastole	4	B	500	diastole
175.82619999999997	0.105620630813064	10	diastole	5	B	500	diastole
176.81600000000003	0.105620630813064	10	diastole	6	B	500	diastole
177.88789999999995	0.105620630813064	10	diastole	7	B	500	diastole
179.04410000000007	0.105620630813064	10	diastole	8	B	500	diastole
179.9523999999999	0.105620630813064	10	diastole	9	B	500	diastole
180.8524	0.105620630813064	10	diastole	10	B	500	diastole
181.75240000000008	0.105620630813064	10	diastole	11	B	500	diastole
185.4438	0.1056304687226656	11	systole	1	B	500	diastole
186.25019999999995	0.1056304687226656	11	systole	2	B	500	diastole
187.07999999999993	0.1056304687226656	11	systole	3	B	500	diastole
187.8391999999999	0.1056304687226656	11	systole	4	B	500	diastole
188.63930000000005	0.1056304687226656	11	systole	5	B	500	diastole
189.5875000000001	0.1056304687226656	11	systole	6	B	500	diastole
190.48090000000002	0.1056304687226656	11	systole	7	B	500	diastole
191.35079999999994	0.1056304687226656	11	systole	8	B	500	diastole
192.17090000000007	0.1056304687226656	11	systole	9	B	500	diastole
193.01739999999995	0.1056304687226656	11	systole	10	B	500	diastole
193.8873000000001	0.1056304687226656	11	systole	11	B	500	diastole
194.7573	0.1056304687226656	11	systole	12	B	500	diastole
198.21530000000007	0.1068734624423086	12	systole	1	B	500	diastole
199.10519999999997	0.1068734624423086	12	systole	2	B	500	diastole
199.99520000000007	0.1068734624423086	12	systole	3	B	500	diastole
200.8052	0.1068734624423086	12	systole	4	B	500	diastole
201.6117999999999	0.1068734624423086	12	systole	5	B	500	diastole
202.5417	0.1068734624423086	12	systole	6	B	500	diastole
203.40190000000007	0.1068734624423086	12	systole	7	B	500	diastole
204.18180000000007	0.1068734624423086	12	systole	8	B	500	diastole
204.99170000000004	0.1068734624423086	12	systole	9	B	500	diastole
205.8936000000001	0.1068734624423086	12	systole	10	B	500	diastole
206.85339999999997	0.1068734624423086	12	systole	11	B	500	diastole
211.31870000000004	0.1093888771429192	13	systole	1	B	500	systole
212.2264	0.1093888771429192	13	systole	2	B	500	systole
213.00639999999999	0.1093888771429192	13	systole	3	B	500	systole
213.81600000000003	0.1093888771429192	13	systole	4	B	500	systole
214.77610000000004	0.1093888771429192	13	systole	5	B	500	systole
215.73620000000005	0.1093888771429192	13	systole	6	B	500	systole
216.7261000000001	0.1093888771429192	13	systole	7	B	500	systole
217.7159999999999	0.1093888771429192	13	systole	8	B	500	systole
218.5657000000001	0.1093888771429192	13	systole	9	B	500	systole
219.47209999999995	0.1093888771429192	13	systole	10	B	500	systole
223.34629999999993	0.1131468136445619	14	diastole	1	B	500	diastole
224.1264000000001	0.1131468136445619	14	diastole	2	B	500	diastole
224.87529999999992	0.1131468136445619	14	diastole	3	B	500	diastole
225.66570000000002	0.1131468136445619	14	diastole	4	B	500	diastole
226.52179999999998	0.1131468136445619	14	diastole	5	B	500	diastole
227.32169999999996	0.1131468136445619	14	diastole	6	B	500	diastole
228.1018999999999	0.1131468136445619	14	diastole	7	B	500	diastole
228.93190000000004	0.1131468136445619	14	diastole	8	B	500	diastole
229.67360000000008	0.1131468136445619	14	diastole	9	B	500	diastole
230.4235000000001	0.1131468136445619	14	diastole	10	B	500	diastole
231.1486	0.1131468136445619	14	diastole	11	B	500	diastole
231.94849999999997	0.1131468136445619	14	diastole	12	B	500	diastole
234.98119999999994	0.1000107645231764	15	systole	1	B	500	diastole
235.8209999999999	0.1000107645231764	15	systole	2	B	500	diastole
236.7609	0.1000107645231764	15	systole	3	B	500	diastole
237.68419999999992	0.1000107645231764	15	systole	4	B	500	diastole
238.5842	0.1000107645231764	15	systole	5	B	500	diastole
239.4842000000001	0.1000107645231764	15	systole	6	B	500	diastole
240.2242000000001	0.1000107645231764	15	systole	7	B	500	diastole
240.94090000000006	0.1000107645231764	15	systole	8	B	500	diastole
241.6808000000001	0.1000107645231764	15	systole	9	B	500	diastole
242.4149	0.1000107645231764	15	systole	10	B	500	diastole
243.1549	0.1000107645231764	15	systole	11	B	500	diastole
243.83989999999994	0.1000107645231764	15	systole	12	B	500	diastole
244.6005	0.1000107645231764	15	systole	13	B	500	diastole
251.02790000000005	0.1018906043900642	16	systole	1	B	500	systole
251.88799999999992	0.1018906043900642	16	systole	2	B	500	systole
252.81860000000006	0.1018906043900642	16	systole	3	B	500	systole
253.59040000000005	0.1018906043900642	16	systole	4	B	500	systole
254.36210000000005	0.1018906043900642	16	systole	5	B	500	systole
255.11040000000003	0.1018906043900642	16	systole	6	B	500	systole
255.9396999999999	0.1018906043900642	16	systole	7	B	500	systole
256.8097	0.1018906043900642	16	systole	8	B	500	systole
257.82130000000006	0.1018906043900642	16	systole	9	B	500	systole
258.8303000000001	0.1018906043900642	16	systole	10	B	500	systole
259.8103000000001	0.1018906043900642	16	systole	11	B	500	systole
260.7902999999999	0.1018906043900642	16	systole	12	B	500	systole
266.3293000000001	0.1087553740362636	17	diastole	1	B	500	diastole
267.07269999999994	0.1087553740362636	17	diastole	2	B	500	diastole
267.83269999999993	0.1087553740362636	17	diastole	3	B	500	diastole
268.53739999999993	0.1087553740362636	17	diastole	4	B	500	diastole
269.2673	0.1087553740362636	17	diastole	5	B	500	diastole
269.9972	0.1087553740362636	17	diastole	6	B	500	diastole
270.682	0.1087553740362636	17	diastole	7	B	500	diastole
271.3209999999999	0.1087553740362636	17	diastole	8	B	500	diastole
271.9592	0.1087553740362636	17	diastole	9	B	500	diastole
272.6389999999999	0.1087553740362636	17	diastole	10	B	500	diastole
273.36889999999994	0.1087553740362636	17	diastole	11	B	500	diastole
274.29870000000005	0.1087553740362636	17	diastole	12	B	500	diastole
275.22849999999994	0.1087553740362636	17	diastole	13	B	500	diastole
281.4387999999999	0.0975076632748823	18	systole	1	B	500	systole
282.08899999999994	0.0975076632748823	18	systole	2	B	500	systole
282.9154000000001	0.0975076632748823	18	systole	3	B	500	systole
283.7653	0.0975076632748823	18	systole	4	B	500	systole
284.8553999999999	0.0975076632748823	18	systole	5	B	500	systole
285.94550000000004	0.0975076632748823	18	systole	6	B	500	systole
286.9656	0.0975076632748823	18	systole	7	B	500	systole
287.94550000000004	0.0975076632748823	18	systole	8	B	500	systole
289.1044999999999	0.0975076632748823	18	systole	9	B	500	systole
290.06500000000005	0.0975076632748823	18	systole	10	B	500	systole
291.09490000000005	0.0975076632748823	18	systole	11	B	500	systole
296.36709999999994	0.1175029551086481	19	systole	1	B	500	diastole
297.1887999999999	0.1175029551086481	19	systole	2	B	500	diastole
297.97299999999996	0.1175029551086481	19	systole	3	B	500	diastole
298.6959999999999	0.1175029551086481	19	systole	4	B	500	diastole
299.47350000000006	0.1175029551086481	19	systole	5	B	500	diastole
300.30359999999996	0.1175029551086481	19	systole	6	B	500	diastole
301.20399999999995	0.1175029551086481	19	systole	7	B	500	diastole
302.1255000000001	0.1175029551086481	19	systole	8	B	500	diastole
302.8943999999999	0.1175029551086481	19	systole	9	B	500	diastole
303.6739	0.1175029551086481	19	systole	10	B	500	diastole
304.3906999999999	0.1175029551086481	19	systole	11	B	500	diastole
305.09619999999995	0.1175029551086481	19	systole	12	B	500	diastole
309.64740000000006	0.0931613125721924	20	systole	1	B	500	diastole
310.43730000000005	0.0931613125721924	20	systole	2	B	500	diastole
311.1569999999999	0.0931613125721924	20	systole	3	B	500	diastole
311.8375000000001	0.0931613125721924	20	systole	4	B	500	diastole
312.50749999999994	0.0931613125721924	20	systole	5	B	500	diastole
313.17740000000003	0.0931613125721924	20	systole	6	B	500	diastole
313.83539999999994	0.0931613125721924	20	systole	7	B	500	diastole
314.53909999999996	0.0931613125721924	20	systole	8	B	500	diastole
315.16409999999996	0.0931613125721924	20	systole	9	B	500	diastole
315.79690000000005	0.0931613125721924	20	systole	10	B	500	diastole
316.44679999999994	0.0931613125721924	20	systole	11	B	500	diastole
317.0652	0.0931613125721924	20	systole	12	B	500	diastole
317.67910000000006	0.0931613125721924	20	systole	13	B	500	diastole
318.2617	0.0931613125721924	20	systole	14	B	500	diastole
318.8444999999999	0.0931613125721924	20	systole	15	B	500	diastole
319.42689999999993	0.0931613125721924	20	systole	16	B	500	diastole
323.42409999999995	0.078118996869307	21	systole	1	B	500	systole
324.12390000000005	0.078118996869307	21	systole	2	B	500	systole
324.875	0.078118996869307	21	systole	3	B	500	systole
325.6423	0.078118996869307	21	systole	4	B	500	systole
326.3921	0.078118996869307	21	systole	5	B	500	systole
327.2143000000001	0.078118996869307	21	systole	6	B	500	systole
328.02009999999996	0.078118996869307	21	systole	7	B	500	systole
328.81999999999994	0.078118996869307	21	systole	8	B	500	systole
329.62889999999993	0.078118996869307	21	systole	9	B	500	systole
330.4088999999999	0.078118996869307	21	systole	10	B	500	systole
331.2259999999999	0.078118996869307	21	systole	11	B	500	systole
331.99620000000004	0.078118996869307	21	systole	12	B	500	systole
332.7664	0.078118996869307	21	systole	13	B	500	systole
336.88470000000007	0.0999912625120487	22	diastole	1	B	500	systole
337.7249999999999	0.0999912625120487	22	diastole	2	B	500	systole
338.4849999999999	0.0999912625120487	22	diastole	3	B	500	systole
339.2654	0.0999912625120487	22	diastole	4	B	500	systole
340.0458000000001	0.0999912625120487	22	diastole	5	B	500	systole
340.83539999999994	0.0999912625120487	22	diastole	6	B	500	systole
341.7548999999999	0.0999912625120487	22	diastole	7	B	500	systole
342.6744000000001	0.0999912625120487	22	diastole	8	B	500	systole
343.46000000000004	0.0999912625120487	22	diastole	9	B	500	systole
344.2696000000001	0.0999912625120487	22	diastole	10	B	500	systole
345.04060000000004	0.0999912625120487	22	diastole	11	B	500	systole
349.4106999999999	0.0988433096208609	23	diastole	1	B	500	diastole
350.1908000000001	0.0988433096208609	23	diastole	2	B	500	diastole
350.97090000000003	0.0988433096208609	23	diastole	3	B	500	diastole
351.67599999999993	0.0988433096208609	23	diastole	4	B	500	diastole
352.3861999999999	0.0988433096208609	23	diastole	5	B	500	diastole
353.14609999999993	0.0988433096208609	23	diastole	6	B	500	diastole
353.8595	0.0988433096208609	23	diastole	7	B	500	diastole
354.5896	0.0988433096208609	23	diastole	8	B	500	diastole
355.2646	0.0988433096208609	23	diastole	9	B	500	diastole
355.90319999999997	0.0988433096208609	23	diastole	10	B	500	diastole
356.69630000000006	0.0988433096208609	23	diastole	11	B	500	diastole
357.45630000000006	0.0988433096208609	23	diastole	12	B	500	diastole
358.2164	0.0988433096208609	23	diastole	13	B	500	diastole
363.3296	0.0931272499728947	24	diastole	1	B	500	systole
363.95589999999993	0.0931272499728947	24	diastole	2	B	500	systole
364.61570000000006	0.0931272499728947	24	diastole	3	B	500	systole
365.2427	0.0931272499728947	24	diastole	4	B	500	systole
365.9267	0.0931272499728947	24	diastole	5	B	500	systole
366.9565	0.0931272499728947	24	diastole	6	B	500	systole
367.9863	0.0931272499728947	24	diastole	7	B	500	systole
368.9882	0.0931272499728947	24	diastole	8	B	500	systole
369.8615	0.0931272499728947	24	diastole	9	B	500	systole
370.70759999999996	0.0931272499728947	24	diastole	10	B	500	systole
371.50700000000006	0.0931272499728947	24	diastole	11	B	500	systole
375.78340000000003	0.0987888100498821	25	systole	1	B	500	systole
376.46209999999996	0.0987888100498821	25	systole	2	B	500	systole
377.1524999999999	0.0987888100498821	25	systole	3	B	500	systole
377.8088	0.0987888100498821	25	systole	4	B	500	systole
378.1041	0.0987888100498821	25	systole	5	B	500	systole
378.2216000000001	0.0987888100498821	25	systole	6	B	500	systole
378.65190000000007	0.0987888100498821	25	systole	7	B	500	systole
379.28189999999995	0.0987888100498821	25	systole	8	B	500	systole
379.93039999999996	0.0987888100498821	25	systole	9	B	500	systole
380.69039999999995	0.0987888100498821	25	systole	10	B	500	systole
381.60030000000006	0.0987888100498821	25	systole	11	B	500	systole
382.49080000000004	0.0987888100498821	25	systole	12	B	500	systole
383.3814	0.0987888100498821	25	systole	13	B	500	systole
384.2367999999999	0.0987888100498821	25	systole	14	B	500	systole
385.0164	0.0987888100498821	25	systole	15	B	500	systole
389.7261000000001	0.0956124057411216	26	diastole	1	B	500	systole
390.49610000000007	0.0956124057411216	26	diastole	2	B	500	systole
391.2777000000001	0.0956124057411216	26	diastole	3	B	500	systole
392.0594000000001	0.0956124057411216	26	diastole	4	B	500	systole
392.9244000000001	0.0956124057411216	26	diastole	5	B	500	systole
393.86249999999995	0.0956124057411216	26	diastole	6	B	500	systole
394.8325	0.0956124057411216	26	diastole	7	B	500	systole
395.70399999999995	0.0956124057411216	26	diastole	8	B	500	systole
396.55600000000004	0.0956124057411216	26	diastole	9	B	500	systole
397.4299000000001	0.0956124057411216	26	diastole	10	B	500	systole
398.30410000000006	0.0956124057411216	26	diastole	11	B	500	systole
403.1978999999999	0.1025014879996888	27	diastole	1	B	500	systole
403.92779999999993	0.1025014879996888	27	diastole	2	B	500	systole
404.6577	0.1025014879996888	27	diastole	3	B	500	systole
405.3497	0.1025014879996888	27	diastole	4	B	500	systole
406.058	0.1025014879996888	27	diastole	5	B	500	systole
406.808	0.1025014879996888	27	diastole	6	B	500	systole
407.6379999999999	0.1025014879996888	27	diastole	7	B	500	systole
408.5223000000001	0.1025014879996888	27	diastole	8	B	500	systole
409.3818000000001	0.1025014879996888	27	diastole	9	B	500	systole
410.22389999999996	0.1025014879996888	27	diastole	10	B	500	systole
411.0238999999999	0.1025014879996888	27	diastole	11	B	500	systole
411.8905	0.1025014879996888	27	diastole	12	B	500	systole
416.7327	0.1068585267930757	28	diastole	1	B	500	diastole
417.53739999999993	0.1068585267930757	28	diastole	2	B	500	diastole
418.36699999999996	0.1068585267930757	28	diastole	3	B	500	diastole
419.17740000000003	0.1068585267930757	28	diastole	4	B	500	diastole
420.0254	0.1068585267930757	28	diastole	5	B	500	diastole
420.865	0.1068585267930757	28	diastole	6	B	500	diastole
421.5912000000001	0.1068585267930757	28	diastole	7	B	500	diastole
422.34709999999995	0.1068585267930757	28	diastole	8	B	500	diastole
423.1268	0.1068585267930757	28	diastole	9	B	500	diastole
423.9752000000001	0.1068585267930757	28	diastole	10	B	500	diastole
424.8212000000001	0.1068585267930757	28	diastole	11	B	500	diastole
425.6512	0.1068585267930757	28	diastole	12	B	500	diastole
431.02109999999993	0.100498444517143	29	diastole	1	B	500	systole
431.7713000000001	0.100498444517143	29	diastole	2	B	500	systole
432.4179999999999	0.100498444517143	29	diastole	3	B	500	systole
433.1479999999999	0.100498444517143	29	diastole	4	B	500	systole
433.9079999999999	0.100498444517143	29	diastole	5	B	500	systole
434.7179000000001	0.100498444517143	29	diastole	6	B	500	systole
435.4879000000001	0.100498444517143	29	diastole	7	B	500	systole
436.28649999999993	0.100498444517143	29	diastole	8	B	500	systole
437.163	0.100498444517143	29	diastole	9	B	500	systole
438.0229999999999	0.100498444517143	29	diastole	10	B	500	systole
438.9381000000001	0.100498444517143	29	diastole	11	B	500	systole
439.82079999999996	0.100498444517143	29	diastole	12	B	500	systole
442.75	0.1031155723612755	30	systole	1	B	500	systole
443.5298	0.1031155723612755	30	systole	2	B	500	systole
444.3559	0.1031155723612755	30	systole	3	B	500	systole
445.1760999999999	0.1031155723612755	30	systole	4	B	500	systole
446.01610000000005	0.1031155723612755	30	systole	5	B	500	systole
446.90599999999995	0.1031155723612755	30	systole	6	B	500	systole
447.61889999999994	0.1031155723612755	30	systole	7	B	500	systole
448.3526999999999	0.1031155723612755	30	systole	8	B	500	systole
449.0924	0.1031155723612755	30	systole	9	B	500	systole
449.84899999999993	0.1031155723612755	30	systole	10	B	500	systole
450.6289999999999	0.1031155723612755	30	systole	11	B	500	systole
451.4293	0.1031155723612755	30	systole	12	B	500	systole
452.2134000000001	0.1031155723612755	30	systole	13	B	500	systole
456.9396999999999	0.0993893559789285	31	diastole	1	B	500	systole
457.86940000000004	0.0993893559789285	31	diastole	2	B	500	systole
458.79909999999995	0.0993893559789285	31	diastole	3	B	500	systole
459.7049999999999	0.0993893559789285	31	diastole	4	B	500	systole
460.5449000000001	0.0993893559789285	31	diastole	5	B	500	systole
461.41509999999994	0.0993893559789285	31	diastole	6	B	500	systole
462.3233	0.0993893559789285	31	diastole	7	B	500	systole
463.0818999999999	0.0993893559789285	31	diastole	8	B	500	systole
463.8819000000001	0.0993893559789285	31	diastole	9	B	500	systole
464.682	0.0993893559789285	31	diastole	10	B	500	systole
465.63329999999996	0.0993893559789285	31	diastole	11	B	500	systole
468.9308000000001	0.1018700524291489	32	systole	1	B	500	systole
469.68049999999994	0.1018700524291489	32	systole	2	B	500	systole
470.4508000000001	0.1018700524291489	32	systole	3	B	500	systole
471.2192	0.1018700524291489	32	systole	4	B	500	systole
471.9891	0.1018700524291489	32	systole	5	B	500	systole
472.77070000000003	0.1018700524291489	32	systole	6	B	500	systole
473.63249999999994	0.1018700524291489	32	systole	7	B	500	systole
474.5309	0.1018700524291489	32	systole	8	B	500	systole
475.4293	0.1018700524291489	32	systole	9	B	500	systole
476.1989000000001	0.1018700524291489	32	systole	10	B	500	systole
476.9389000000001	0.1018700524291489	32	systole	11	B	500	systole
477.6687999999999	0.1018700524291489	32	systole	12	B	500	systole
479.8737000000001	0.0968870876240544	33	systole	1	B	500	systole
480.54279999999994	0.0968870876240544	33	systole	2	B	500	systole
481.2228	0.0968870876240544	33	systole	3	B	500	systole
481.90689999999995	0.0968870876240544	33	systole	4	B	500	systole
482.7354	0.0968870876240544	33	systole	5	B	500	systole
483.6552999999999	0.0968870876240544	33	systole	6	B	500	systole
484.5752	0.0968870876240544	33	systole	7	B	500	systole
485.4425000000001	0.0968870876240544	33	systole	8	B	500	systole
486.3690999999999	0.0968870876240544	33	systole	9	B	500	systole
487.24890000000005	0.0968870876240544	33	systole	10	B	500	systole
488.17319999999995	0.0968870876240544	33	systole	11	B	500	systole
488.98350000000005	0.0968870876240544	33	systole	12	B	500	systole
492.57079999999996	0.1049868545378558	34	diastole	1	B	500	systole
493.34439999999995	0.1049868545378558	34	diastole	2	B	500	systole
494.13429999999994	0.1049868545378558	34	diastole	3	B	500	systole
495.1243999999999	0.1049868545378558	34	diastole	4	B	500	systole
496.0444	0.1049868545378558	34	diastole	5	B	500	systole
496.85619999999994	0.1049868545378558	34	diastole	6	B	500	systole
497.6762000000001	0.1049868545378558	34	diastole	7	B	500	systole
498.4963	0.1049868545378558	34	diastole	8	B	500	systole
499.31629999999996	0.1049868545378558	34	diastole	9	B	500	systole
500.1626000000001	0.1049868545378558	34	diastole	10	B	500	systole
500.9842000000001	0.1049868545378558	34	diastole	11	B	500	systole
504.69280000000003	0.1062420954694971	35	diastole	1	B	500	systole
505.51279999999997	0.1062420954694971	35	diastole	2	B	500	systole
506.3509999999999	0.1062420954694971	35	diastole	3	B	500	systole
507.25430000000006	0.1062420954694971	35	diastole	4	B	500	systole
507.9544000000001	0.1062420954694971	35	diastole	5	B	500	systole
508.70450000000005	0.1062420954694971	35	diastole	6	B	500	systole
509.4546	0.1062420954694971	35	diastole	7	B	500	systole
510.2345	0.1062420954694971	35	diastole	8	B	500	systole
511.0162	0.1062420954694971	35	diastole	9	B	500	systole
511.80629999999996	0.1062420954694971	35	diastole	10	B	500	systole
512.5364	0.1062420954694971	35	diastole	11	B	500	systole
513.3764000000001	0.1062420954694971	35	diastole	12	B	500	systole
518.6368	0.1006273302482441	36	systole	1	B	500	systole
519.3868	0.1006273302482441	36	systole	2	B	500	systole
520.2769000000001	0.1006273302482441	36	systole	3	B	500	systole
521.1668	0.1006273302482441	36	systole	4	B	500	systole
522.037	0.1006273302482441	36	systole	5	B	500	systole
522.9070999999999	0.1006273302482441	36	systole	6	B	500	systole
523.8445999999999	0.1006273302482441	36	systole	7	B	500	systole
524.7730999999999	0.1006273302482441	36	systole	8	B	500	systole
525.6331	0.1006273302482441	36	systole	9	B	500	systole
526.4931999999999	0.1006273302482441	36	systole	10	B	500	systole
527.3631	0.1006273302482441	36	systole	11	B	500	systole
533.1776	0.1068881832179613	37	systole	1	B	500	systole
533.9241999999999	0.1068881832179613	37	systole	2	B	500	systole
534.6941999999999	0.1068881832179613	37	systole	3	B	500	systole
535.4511	0.1068881832179613	37	systole	4	B	500	systole
536.2312	0.1068881832179613	37	systole	5	B	500	systole
536.952	0.1068881832179613	37	systole	6	B	500	systole
537.7221	0.1068881832179613	37	systole	7	B	500	systole
538.5419999999999	0.1068881832179613	37	systole	8	B	500	systole
539.4721	0.1068881832179613	37	systole	9	B	500	systole
540.3021000000001	0.1068881832179613	37	systole	10	B	500	systole
541.1321	0.1068881832179613	37	systole	11	B	500	systole
541.9911999999999	0.1068881832179613	37	systole	12	B	500	systole
545.8594	0.1037522291007917	38	diastole	1	B	500	diastole
546.6593	0.1037522291007917	38	diastole	2	B	500	diastole
547.4593	0.1037522291007917	38	diastole	3	B	500	diastole
548.1811	0.1037522291007917	38	diastole	4	B	500	diastole
548.8793000000001	0.1037522291007917	38	diastole	5	B	500	diastole
549.6189999999999	0.1037522291007917	38	diastole	6	B	500	diastole
550.4422	0.1037522291007917	38	diastole	7	B	500	diastole
551.2822000000001	0.1037522291007917	38	diastole	8	B	500	diastole
552.0923	0.1037522291007917	38	diastole	9	B	500	diastole
553.0188	0.1037522291007917	38	diastole	10	B	500	diastole
553.9286	0.1037522291007917	38	diastole	11	B	500	diastole
554.8091	0.1037522291007917	38	diastole	12	B	500	diastole
560.0009	0.1012537749193143	39	diastole	1	B	500	diastole
560.6809000000001	0.1012537749193143	39	diastole	2	B	500	diastole
561.271	0.1012537749193143	39	diastole	3	B	500	diastole
561.9611	0.1012537749193143	39	diastole	4	B	500	diastole
562.6111000000001	0.1012537749193143	39	diastole	5	B	500	diastole
563.3913	0.1012537749193143	39	diastole	6	B	500	diastole
564.1715999999999	0.1012537749193143	39	diastole	7	B	500	diastole
565.0615	0.1012537749193143	39	diastole	8	B	500	diastole
566.0199	0.1012537749193143	39	diastole	9	B	500	diastole
567.0252	0.1012537749193143	39	diastole	10	B	500	diastole
567.9637	0.1012537749193143	39	diastole	11	B	500	diastole
568.9735000000001	0.1012537749193143	39	diastole	12	B	500	diastole
574.2174	0.0974995332944672	40	diastole	1	B	500	systole
574.9291000000001	0.0974995332944672	40	diastole	2	B	500	systole
575.6489999999999	0.0974995332944672	40	diastole	3	B	500	systole
576.3742	0.0974995332944672	40	diastole	4	B	500	systole
577.0975000000001	0.0974995332944672	40	diastole	5	B	500	systole
577.7891	0.0974995332944672	40	diastole	6	B	500	systole
578.4892	0.0974995332944672	40	diastole	7	B	500	systole
579.1257	0.0974995332944672	40	diastole	8	B	500	systole
579.751	0.0974995332944672	40	diastole	9	B	500	systole
580.3495	0.0974995332944672	40	diastole	10	B	500	systole
580.9896000000001	0.0974995332944672	40	diastole	11	B	500	systole
581.2652	0.0974995332944672	40	diastole	12	B	500	systole
581.796	0.0974995332944672	40	diastole	13	B	500	systole
582.7860000000001	0.0974995332944672	40	diastole	14	B	500	systole
583.7460000000001	0.0974995332944672	40	diastole	15	B	500	systole
586.0759	0.0831146685814019	41	systole	1	B	500	systole
586.9459999999999	0.0831146685814019	41	systole	2	B	500	systole
587.8533	0.0831146685814019	41	systole	3	B	500	systole
588.6334999999999	0.0831146685814019	41	systole	4	B	500	systole
589.4333999999999	0.0831146685814019	41	systole	5	B	500	systole
590.2854	0.0831146685814019	41	systole	6	B	500	systole
591.175	0.0831146685814019	41	systole	7	B	500	systole
592.0951	0.0831146685814019	41	systole	8	B	500	systole
593.0469	0.0831146685814019	41	systole	9	B	500	systole
593.9848999999999	0.0831146685814019	41	systole	10	B	500	systole
594.923	0.0831146685814019	41	systole	11	B	500	systole
595.8094000000001	0.0831146685814019	41	systole	12	B	500	systole
598.6410999999998	0.1130960589507594	42	systole	1	B	500	diastole
599.6118000000001	0.1130960589507594	42	systole	2	B	500	diastole
600.6098999999999	0.1130960589507594	42	systole	3	B	500	diastole
601.5515999999998	0.1130960589507594	42	systole	4	B	500	diastole
602.4919	0.1130960589507594	42	systole	5	B	500	diastole
602.8476	0.1130960589507594	42	systole	6	B	500	diastole
603.2532999999999	0.1130960589507594	42	systole	7	B	500	diastole
603.8533000000002	0.1130960589507594	42	systole	8	B	500	diastole
604.4427999999998	0.1130960589507594	42	systole	9	B	500	diastole
605.1583	0.1130960589507594	42	systole	10	B	500	diastole
605.9380000000001	0.1130960589507594	42	systole	11	B	500	diastole
606.8281999999999	0.1130960589507594	42	systole	12	B	500	diastole
607.7080000000001	0.1130960589507594	42	systole	13	B	500	diastole
611.5926	0.1037278892763424	43	diastole	1	B	500	systole
612.5293000000001	0.1037278892763424	43	diastole	2	B	500	systole
613.4492	0.1037278892763424	43	diastole	3	B	500	systole
614.2293	0.1037278892763424	43	diastole	4	B	500	systole
615.0093000000002	0.1037278892763424	43	diastole	5	B	500	systole
615.8091	0.1037278892763424	43	diastole	6	B	500	systole
616.5423999999998	0.1037278892763424	43	diastole	7	B	500	systole
617.2377999999999	0.1037278892763424	43	diastole	8	B	500	systole
618.0801999999999	0.1037278892763424	43	diastole	9	B	500	systole
619.0023000000001	0.1037278892763424	43	diastole	10	B	500	systole
619.8444	0.1037278892763424	43	diastole	11	B	500	systole
623.116	0.1048772504145745	44	diastole	1	B	500	diastole
623.9059000000002	0.1048772504145745	44	diastole	2	B	500	diastole
624.6759999999999	0.1048772504145745	44	diastole	3	B	500	diastole
625.4359	0.1048772504145745	44	diastole	4	B	500	diastole
626.2026000000001	0.1048772504145745	44	diastole	5	B	500	diastole
626.9391999999998	0.1048772504145745	44	diastole	6	B	500	diastole
627.6676000000002	0.1048772504145745	44	diastole	7	B	500	diastole
628.3908999999999	0.1048772504145745	44	diastole	8	B	500	diastole
629.1309000000001	0.1048772504145745	44	diastole	9	B	500	diastole
629.8526000000002	0.1048772504145745	44	diastole	10	B	500	diastole
630.6041	0.1048772504145745	44	diastole	11	B	500	diastole
631.4940000000001	0.1048772504145745	44	diastole	12	B	500	diastole
632.3939999999998	0.1048772504145745	44	diastole	13	B	500	diastole
637.2489999999998	0.0931249562418088	45	diastole	1	B	500	diastole
637.7746999999999	0.0931249562418088	45	diastole	2	B	500	diastole
638.3181	0.0931249562418088	45	diastole	3	B	500	diastole
638.9108000000001	0.0931249562418088	45	diastole	4	B	500	diastole
639.5203000000001	0.0931249562418088	45	diastole	5	B	500	diastole
640.1320999999998	0.0931249562418088	45	diastole	6	B	500	diastole
640.8020999999999	0.0931249562418088	45	diastole	7	B	500	diastole
641.5088999999998	0.0931249562418088	45	diastole	8	B	500	diastole
642.1772999999998	0.0931249562418088	45	diastole	9	B	500	diastole
642.8373999999999	0.0931249562418088	45	diastole	10	B	500	diastole
643.5322999999999	0.0931249562418088	45	diastole	11	B	500	diastole
644.3337999999999	0.0931249562418088	45	diastole	12	B	500	diastole
645.0938000000001	0.0931249562418088	45	diastole	13	B	500	diastole
645.9605000000001	0.0931249562418088	45	diastole	14	B	500	diastole
649.6610000000001	0.0975030311965383	46	diastole	1	B	500	diastole
650.431	0.0975030311965383	46	diastole	2	B	500	diastole
651.201	0.0975030311965383	46	diastole	3	B	500	diastole
651.991	0.0975030311965383	46	diastole	4	B	500	diastole
652.7910000000002	0.0975030311965383	46	diastole	5	B	500	diastole
653.5909000000001	0.0975030311965383	46	diastole	6	B	500	diastole
654.3908999999999	0.0975030311965383	46	diastole	7	B	500	diastole
655.1907000000001	0.0975030311965383	46	diastole	8	B	500	diastole
655.9906999999998	0.0975030311965383	46	diastole	9	B	500	diastole
656.8206	0.0975030311965383	46	diastole	10	B	500	diastole
657.5807	0.0975030311965383	46	diastole	11	B	500	diastole
658.3606	0.0975030311965383	46	diastole	12	B	500	diastole
661.1968999999999	0.0999978873005602	47	systole	1	B	500	diastole
661.9452000000001	0.0999978873005602	47	systole	2	B	500	diastole
662.6533	0.0999978873005602	47	systole	3	B	500	diastole
663.373	0.0999978873005602	47	systole	4	B	500	diastole
664.0855999999999	0.0999978873005602	47	systole	5	B	500	diastole
664.7321000000002	0.0999978873005602	47	systole	6	B	500	diastole
665.4095000000002	0.0999978873005602	47	systole	7	B	500	diastole
666.0997000000002	0.0999978873005602	47	systole	8	B	500	diastole
666.8188	0.0999978873005602	47	systole	9	B	500	diastole
667.5329999999999	0.0999978873005602	47	systole	10	B	500	diastole
668.2071000000001	0.0999978873005602	47	systole	11	B	500	diastole
668.8870999999999	0.0999978873005602	47	systole	12	B	500	diastole
669.6071999999999	0.0999978873005602	47	systole	13	B	500	diastole
670.27	0.0999978873005602	47	systole	14	B	500	diastole
673.2510000000002	0.0875019385130144	48	diastole	1	B	500	diastole
673.8543	0.0875019385130144	48	diastole	2	B	500	diastole
674.4476	0.0875019385130144	48	diastole	3	B	500	diastole
675.0576999999998	0.0875019385130144	48	diastole	4	B	500	diastole
675.6592999999998	0.0875019385130144	48	diastole	5	B	500	diastole
676.2692999999999	0.0875019385130144	48	diastole	6	B	500	diastole
676.8710000000001	0.0875019385130144	48	diastole	7	B	500	diastole
677.4459000000002	0.0875019385130144	48	diastole	8	B	500	diastole
677.9944	0.0875019385130144	48	diastole	9	B	500	diastole
678.5844999999999	0.0875019385130144	48	diastole	10	B	500	diastole
679.1745000000001	0.0875019385130144	48	diastole	11	B	500	diastole
679.7944000000002	0.0875019385130144	48	diastole	12	B	500	diastole
680.4243999999999	0.0875019385130144	48	diastole	13	B	500	diastole
681.0844999999999	0.0875019385130144	48	diastole	14	B	500	diastole
681.7844	0.0875019385130144	48	diastole	15	B	500	diastole
682.5527000000002	0.0875019385130144	48	diastole	16	B	500	diastole
686.4676	0.0937640884367283	49	diastole	1	B	500	diastole
687.2442000000001	0.0937640884367283	49	diastole	2	B	500	diastole
688.1624999999999	0.0937640884367283	49	diastole	3	B	500	diastole
689.0225999999998	0.0937640884367283	49	diastole	4	B	500	diastole
689.8789999999999	0.0937640884367283	49	diastole	5	B	500	diastole
690.6907000000001	0.0937640884367283	49	diastole	6	B	500	diastole
691.5605999999998	0.0937640884367283	49	diastole	7	B	500	diastole
692.4607000000001	0.0937640884367283	49	diastole	8	B	500	diastole
693.3607999999999	0.0937640884367283	49	diastole	9	B	500	diastole
694.2609000000002	0.0937640884367283	49	diastole	10	B	500	diastole
695.0644000000002	0.0937640884367283	49	diastole	11	B	500	diastole
699.8971999999999	0.0956235750054474	50	diastole	1	B	500	diastole
700.5707000000002	0.0956235750054474	50	diastole	2	B	500	diastole
701.2606999999998	0.0956235750054474	50	diastole	3	B	500	diastole
701.9506999999999	0.0956235750054474	50	diastole	4	B	500	diastole
702.5889999999999	0.0956235750054474	50	diastole	5	B	500	diastole
703.2323999999999	0.0956235750054474	50	diastole	6	B	500	diastole
703.8924999999999	0.0956235750054474	50	diastole	7	B	500	diastole
704.4692	0.0956235750054474	50	diastole	8	B	500	diastole
705.0542999999998	0.0956235750054474	50	diastole	9	B	500	diastole
705.6376	0.0956235750054474	50	diastole	10	B	500	diastole
706.2375000000002	0.0956235750054474	50	diastole	11	B	500	diastole
706.8539999999998	0.0956235750054474	50	diastole	12	B	500	diastole
707.5039999999999	0.0956235750054474	50	diastole	13	B	500	diastole
708.2339999999999	0.0956235750054474	50	diastole	14	B	500	diastole
708.9339	0.0956235750054474	50	diastole	15	B	500	diastole
713.2015000000001	0.0906233505520504	51	systole	1	B	500	diastole
713.7114000000001	0.0906233505520504	51	systole	2	B	500	diastole
714.3697999999999	0.0906233505520504	51	systole	3	B	500	diastole
715.0398	0.0906233505520504	51	systole	4	B	500	diastole
715.7098000000001	0.0906233505520504	51	systole	5	B	500	diastole
716.3798000000002	0.0906233505520504	51	systole	6	B	500	diastole
717.1181999999999	0.0906233505520504	51	systole	7	B	500	diastole
717.848	0.0906233505520504	51	systole	8	B	500	diastole
718.7381	0.0906233505520504	51	systole	9	B	500	diastole
719.8681000000001	0.0906233505520504	51	systole	10	B	500	diastole
720.8906000000002	0.0906233505520504	51	systole	11	B	500	diastole
721.8607000000002	0.0906233505520504	51	systole	12	B	500	diastole
722.7516	0.0906233505520504	51	systole	13	B	500	diastole
726.2689999999998	0.1050161501043476	52	systole	1	B	500	systole
726.9931000000001	0.1050161501043476	52	systole	2	B	500	systole
727.6914000000002	0.1050161501043476	52	systole	3	B	500	systole
728.3525	0.1050161501043476	52	systole	4	B	500	systole
729.0428000000002	0.1050161501043476	52	systole	5	B	500	systole
729.7330000000002	0.1050161501043476	52	systole	6	B	500	systole
730.4184	0.1050161501043476	52	systole	7	B	500	systole
731.3733000000002	0.1050161501043476	52	systole	8	B	500	systole
732.3647999999998	0.1050161501043476	52	systole	9	B	500	systole
733.3447999999999	0.1050161501043476	52	systole	10	B	500	systole
734.2725	0.1050161501043476	52	systole	11	B	500	systole
735.1826000000001	0.1050161501043476	52	systole	12	B	500	systole
739.6441	0.1081324487167876	53	diastole	1	B	500	systole
740.4441000000002	0.1081324487167876	53	diastole	2	B	500	systole
741.2941999999998	0.1081324487167876	53	diastole	3	B	500	systole
742.1641	0.1081324487167876	53	diastole	4	B	500	systole
742.9407000000001	0.1081324487167876	53	diastole	5	B	500	systole
743.6307999999999	0.1081324487167876	53	diastole	6	B	500	systole
744.2892999999999	0.1081324487167876	53	diastole	7	B	500	systole
745.0392000000002	0.1081324487167876	53	diastole	8	B	500	systole
746.0774999999999	0.1081324487167876	53	diastole	9	B	500	systole
747.1341000000002	0.1081324487167876	53	diastole	10	B	500	systole
748.0740999999998	0.1081324487167876	53	diastole	11	B	500	systole
752.0162999999998	0.1169078896928113	54	diastole	1	B	500	systole
752.7963	0.1169078896928113	54	diastole	2	B	500	systole
753.5763000000002	0.1169078896928113	54	diastole	3	B	500	systole
754.4663	0.1169078896928113	54	diastole	4	B	500	systole
755.4362999999998	0.1169078896928113	54	diastole	5	B	500	systole
756.1909999999998	0.1169078896928113	54	diastole	6	B	500	systole
757.1010000000001	0.1169078896928113	54	diastole	7	B	500	systole
758.0711000000001	0.1169078896928113	54	diastole	8	B	500	systole
759.0410999999999	0.1169078896928113	54	diastole	9	B	500	systole
759.8078	0.1169078896928113	54	diastole	10	B	500	systole
760.6077	0.1169078896928113	54	diastole	11	B	500	systole
765.3051	0.1087511874793563	55	systole	1	B	500	systole
766.0475000000001	0.1087511874793563	55	systole	2	B	500	systole
766.8117000000002	0.1087511874793563	55	systole	3	B	500	systole
767.5817999999999	0.1087511874793563	55	systole	4	B	500	systole
768.4018999999998	0.1087511874793563	55	systole	5	B	500	systole
769.2220000000002	0.1087511874793563	55	systole	6	B	500	systole
770.0518999999999	0.1087511874793563	55	systole	7	B	500	systole
770.8560000000002	0.1087511874793563	55	systole	8	B	500	systole
771.6102000000001	0.1087511874793563	55	systole	9	B	500	systole
772.3485999999998	0.1087511874793563	55	systole	10	B	500	systole
773.2211000000002	0.1087511874793563	55	systole	11	B	500	systole
774.1109999999999	0.1087511874793563	55	systole	12	B	500	systole
780.2883000000002	0.1093716874311212	56	systole	1	B	500	systole
781.0882000000001	0.1093716874311212	56	systole	2	B	500	systole
781.7683000000002	0.1093716874311212	56	systole	3	B	500	systole
782.5182	0.1093716874311212	56	systole	4	B	500	systole
783.3181	0.1093716874311212	56	systole	5	B	500	systole
784.4013	0.1093716874311212	56	systole	6	B	500	systole
785.4614000000001	0.1093716874311212	56	systole	7	B	500	systole
786.3613999999998	0.1093716874311212	56	systole	8	B	500	systole
787.2613999999999	0.1093716874311212	56	systole	9	B	500	systole
788.1846999999998	0.1093716874311212	56	systole	10	B	500	systole
789.0846999999999	0.1093716874311212	56	systole	11	B	500	systole
789.8955999999998	0.1093716874311212	56	systole	12	B	500	systole
818.8242	0.1137483876373153	57	diastole	1	B	500	systole
819.6242000000002	0.1137483876373153	57	diastole	2	B	500	systole
820.6574999999998	0.1137483876373153	57	diastole	3	B	500	systole
821.6876000000002	0.1137483876373153	57	diastole	4	B	500	systole
822.6677	0.1137483876373153	57	diastole	5	B	500	systole
823.4377	0.1137483876373153	57	diastole	6	B	500	systole
824.3076999999998	0.1137483876373153	57	diastole	7	B	500	systole
825.1228000000001	0.1137483876373153	57	diastole	8	B	500	systole
825.9629	0.1137483876373153	57	diastole	9	B	500	systole
826.7008000000001	0.1137483876373153	57	diastole	10	B	500	systole
827.4859000000001	0.1137483876373153	57	diastole	11	B	500	systole
830.6406999999999	0.1037522313126828	58	diastole	1	B	500	systole
831.5207	0.1037522313126828	58	diastole	2	B	500	systole
832.2858000000001	0.1037522313126828	58	diastole	3	B	500	systole
833.0758000000001	0.1037522313126828	58	diastole	4	B	500	systole
833.9724000000001	0.1037522313126828	58	diastole	5	B	500	systole
834.8525	0.1037522313126828	58	diastole	6	B	500	systole
835.8191000000002	0.1037522313126828	58	diastole	7	B	500	systole
836.6408999999999	0.1037522313126828	58	diastole	8	B	500	systole
837.6374999999998	0.1037522313126828	58	diastole	9	B	500	systole
838.5675000000001	0.1037522313126828	58	diastole	10	B	500	systole
839.4845	0.1037522313126828	58	diastole	11	B	500	systole
843.0156999999999	0.1174989272840321	59	systole	1	B	500	systole
843.8753000000002	0.1174989272840321	59	systole	2	B	500	systole
844.7638999999999	0.1174989272840321	59	systole	3	B	500	systole
845.7428	0.1174989272840321	59	systole	4	B	500	systole
846.7197999999999	0.1174989272840321	59	systole	5	B	500	systole
847.5454	0.1174989272840321	59	systole	6	B	500	systole
848.4056999999998	0.1174989272840321	59	systole	7	B	500	systole
849.3215	0.1174989272840321	59	systole	8	B	500	systole
850.3415	0.1174989272840321	59	systole	9	B	500	systole
851.2914999999998	0.1174989272840321	59	systole	10	B	500	systole
852.1363999999999	0.1174989272840321	59	systole	11	B	500	systole
856.0691999999999	0.111883162491722	60	diastole	1	B	500	diastole
856.8989000000001	0.111883162491722	60	diastole	2	B	500	diastole
857.7791000000002	0.111883162491722	60	diastole	3	B	500	diastole
858.6592999999998	0.111883162491722	60	diastole	4	B	500	diastole
859.4645	0.111883162491722	60	diastole	5	B	500	diastole
860.3440999999998	0.111883162491722	60	diastole	6	B	500	diastole
861.1741000000002	0.111883162491722	60	diastole	7	B	500	diastole
862.0043000000001	0.111883162491722	60	diastole	8	B	500	diastole
862.7698	0.111883162491722	60	diastole	9	B	500	diastole
863.6098999999999	0.111883162491722	60	diastole	10	B	500	diastole
864.4708999999998	0.111883162491722	60	diastole	11	B	500	diastole
868.2026000000001	0.1081499280990101	61	diastole	1	B	500	systole
869.0623999999998	0.1081499280990101	61	diastole	2	B	500	systole
869.886	0.1081499280990101	61	diastole	3	B	500	systole
870.7260999999999	0.1081499280990101	61	diastole	4	B	500	systole
871.5843	0.1081499280990101	61	diastole	5	B	500	systole
872.3456999999999	0.1081499280990101	61	diastole	6	B	500	systole
873.1156999999998	0.1081499280990101	61	diastole	7	B	500	systole
873.8454999999999	0.1081499280990101	61	diastole	8	B	500	systole
874.5753	0.1081499280990101	61	diastole	9	B	500	systole
875.3218999999999	0.1081499280990101	61	diastole	10	B	500	systole
876.0886999999998	0.1081499280990101	61	diastole	11	B	500	systole
876.8256000000001	0.1081499280990101	61	diastole	12	B	500	systole
880.5646000000002	0.1017703811521641	62	diastole	1	B	500	systole
881.3343	0.1017703811521641	62	diastole	2	B	500	systole
882.1039000000001	0.1017703811521641	62	diastole	3	B	500	systole
882.8742000000002	0.1017703811521641	62	diastole	4	B	500	systole
883.6457	0.1017703811521641	62	diastole	5	B	500	systole
884.4540000000002	0.1017703811521641	62	diastole	6	B	500	systole
885.2489	0.1017703811521641	62	diastole	7	B	500	systole
886.0589	0.1017703811521641	62	diastole	8	B	500	systole
886.8245999999999	0.1017703811521641	62	diastole	9	B	500	systole
887.6151	0.1017703811521641	62	diastole	10	B	500	systole
888.5333	0.1017703811521641	62	diastole	11	B	500	systole
889.4432999999999	0.1017703811521641	62	diastole	12	B	500	systole
892.8782999999999	0.1062556150136515	63	systole	1	B	500	systole
893.6583	0.1062556150136515	63	systole	2	B	500	systole
894.4382999999998	0.1062556150136515	63	systole	3	B	500	systole
895.1983	0.1062556150136515	63	systole	4	B	500	systole
895.9582999999998	0.1062556150136515	63	systole	5	B	500	systole
896.844	0.1062556150136515	63	systole	6	B	500	systole
897.7642000000001	0.1062556150136515	63	systole	7	B	500	systole
898.8218000000002	0.1062556150136515	63	systole	8	B	500	systole
899.8517999999999	0.1062556150136515	63	systole	9	B	500	systole
900.8818000000001	0.1062556150136515	63	systole	10	B	500	systole
901.8317000000002	0.1062556150136515	63	systole	11	B	500	systole
902.8883999999998	0.1062556150136515	63	systole	12	B	500	systole
907.0908	0.1168759567080996	64	systole	1	B	500	diastole
907.8609000000001	0.1168759567080996	64	systole	2	B	500	diastole
908.5945999999999	0.1168759567080996	64	systole	3	B	500	diastole
909.4146999999998	0.1168759567080996	64	systole	4	B	500	diastole
910.3445999999999	0.1168759567080996	64	systole	5	B	500	diastole
911.2946000000002	0.1168759567080996	64	systole	6	B	500	diastole
912.2446	0.1168759567080996	64	systole	7	B	500	diastole
913.2206000000001	0.1168759567080996	64	systole	8	B	500	diastole
914.2276999999999	0.1168759567080996	64	systole	9	B	500	diastole
915.1774999999998	0.1168759567080996	64	systole	10	B	500	diastole
927.2276000000002	0.1093926063913386	65	diastole	1	B	500	diastole
928.0374999999999	0.1093926063913386	65	diastole	2	B	500	diastole
929.0457999999999	0.1093926063913386	65	diastole	3	B	500	diastole
930.0457999999999	0.1093926063913386	65	diastole	4	B	500	diastole
931.0556999999999	0.1093926063913386	65	diastole	5	B	500	diastole
931.9958000000001	0.1093926063913386	65	diastole	6	B	500	diastole
932.9922999999999	0.1093926063913386	65	diastole	7	B	500	diastole
933.7923000000001	0.1093926063913386	65	diastole	8	B	500	diastole
934.5704999999998	0.1093926063913386	65	diastole	9	B	500	diastole
935.3903999999998	0.1093926063913386	65	diastole	10	B	500	diastole
938.3764999999999	0.1081206679809838	66	systole	1	B	500	systole
939.2865000000002	0.1081206679809838	66	systole	2	B	500	systole
940.1966000000002	0.1081206679809838	66	systole	3	B	500	systole
940.9917999999998	0.1081206679809838	66	systole	4	B	500	systole
941.8218000000002	0.1081206679809838	66	systole	5	B	500	systole
942.6916999999999	0.1081206679809838	66	systole	6	B	500	systole
943.6125999999999	0.1081206679809838	66	systole	7	B	500	systole
944.4924999999998	0.1081206679809838	66	systole	8	B	500	systole
945.299	0.1081206679809838	66	systole	9	B	500	systole
946.1289999999999	0.1081206679809838	66	systole	10	B	500	systole
947.0064000000002	0.1081206679809838	66	systole	11	B	500	systole
947.8483000000001	0.1081206679809838	66	systole	12	B	500	systole
950.1026999999999	0.1044926376489456	67	systole	1	B	500	diastole
950.8481000000002	0.1044926376489456	67	systole	2	B	500	diastole
951.6181000000001	0.1044926376489456	67	systole	3	B	500	diastole
952.3971000000001	0.1044926376489456	67	systole	4	B	500	diastole
953.1772999999998	0.1044926376489456	67	systole	5	B	500	diastole
954.0113999999999	0.1044926376489456	67	systole	6	B	500	diastole
954.8515000000002	0.1044926376489456	67	systole	7	B	500	diastole
955.6842999999999	0.1044926376489456	67	systole	8	B	500	diastole
956.5464000000002	0.1044926376489456	67	systole	9	B	500	diastole
957.4663	0.1044926376489456	67	systole	10	B	500	diastole
958.3063000000002	0.1044926376489456	67	systole	11	B	500	diastole
959.1678000000002	0.1044926376489456	67	systole	12	B	500	diastole
961.8292000000001	0.1056202118052169	68	systole	1	B	500	systole
962.6291999999999	0.1056202118052169	68	systole	2	B	500	systole
963.4292	0.1056202118052169	68	systole	3	B	500	systole
964.2689999999998	0.1056202118052169	68	systole	4	B	500	systole
965.1451000000002	0.1056202118052169	68	systole	5	B	500	systole
966.0151999999998	0.1056202118052169	68	systole	6	B	500	systole
966.781	0.1056202118052169	68	systole	7	B	500	systole
967.5527000000002	0.1056202118052169	68	systole	8	B	500	systole
968.3267999999998	0.1056202118052169	68	systole	9	B	500	systole
969.1068	0.1056202118052169	68	systole	10	B	500	systole
969.9738000000002	0.1056202118052169	68	systole	11	B	500	systole
970.8238000000001	0.1056202118052169	68	systole	12	B	500	systole
973.6777999999999	0.1075121371541172	69	systole	1	B	500	diastole
974.5077999999999	0.1075121371541172	69	systole	2	B	500	diastole
975.2559000000001	0.1075121371541172	69	systole	3	B	500	diastole
975.9960999999998	0.1075121371541172	69	systole	4	B	500	diastole
976.6862000000001	0.1075121371541172	69	systole	5	B	500	diastole
977.3762999999999	0.1075121371541172	69	systole	6	B	500	diastole
978.0664000000002	0.1075121371541172	69	systole	7	B	500	diastole
978.6246999999998	0.1075121371541172	69	systole	8	B	500	diastole
978.9299000000001	0.1075121371541172	69	systole	9	B	500	diastole
979.0749000000001	0.1075121371541172	69	systole	10	B	500	diastole
979.2923999999998	0.1075121371541172	69	systole	11	B	500	diastole
979.4549000000002	0.1075121371541172	69	systole	12	B	500	diastole
979.5699	0.1075121371541172	69	systole	13	B	500	diastole
979.7372999999998	0.1075121371541172	69	systole	14	B	500	diastole
980.0232000000001	0.1075121371541172	69	systole	15	B	500	diastole
980.3031999999998	0.1075121371541172	69	systole	16	B	500	diastole
981.0364	0.1075121371541172	69	systole	17	B	500	diastole
981.7473	0.1075121371541172	69	systole	18	B	500	diastole
982.4571999999998	0.1075121371541172	69	systole	19	B	500	diastole
983.1671999999999	0.1075121371541172	69	systole	20	B	500	diastole
985.7905999999998	0.0374996874597854	70	systole	1	B	500	systole
986.4506999999999	0.0374996874597854	70	systole	2	B	500	systole
987.1107000000002	0.0374996874597854	70	systole	3	B	500	systole
987.7707999999998	0.0374996874597854	70	systole	4	B	500	systole
988.4883	0.0374996874597854	70	systole	5	B	500	systole
989.2557999999999	0.0374996874597854	70	systole	6	B	500	systole
990.0717	0.0374996874597854	70	systole	7	B	500	systole
990.7793000000001	0.0374996874597854	70	systole	8	B	500	systole
991.5531999999998	0.0374996874597854	70	systole	9	B	500	systole
992.3211999999999	0.0374996874597854	70	systole	10	B	500	systole
993.1628999999998	0.0374996874597854	70	systole	11	B	500	systole
994.0259999999998	0.0374996874597854	70	systole	12	B	500	systole
994.8764000000001	0.0374996874597854	70	systole	13	B	500	systole
995.7768000000001	0.0374996874597854	70	systole	14	B	500	systole
999.6347000000001	0.1062914499780163	71	systole	1	B	500	systole
1000.7615000000001	0.1062914499780163	71	systole	2	B	500	systole
1001.8991999999998	0.1062914499780163	71	systole	3	B	500	systole
1002.8391000000001	0.1062914499780163	71	systole	4	B	500	systole
1003.7292000000002	0.1062914499780163	71	systole	5	B	500	systole
1004.7397999999998	0.1062914499780163	71	systole	6	B	500	systole
1005.6397000000002	0.1062914499780163	71	systole	7	B	500	systole
1006.5396999999998	0.1062914499780163	71	systole	8	B	500	systole
1007.299	0.1062914499780163	71	systole	9	B	500	systole
1008.0990999999999	0.1062914499780163	71	systole	10	B	500	systole
1012.1044000000002	0.1175002246745862	72	systole	1	B	500	diastole
1012.9359	0.1175002246745862	72	systole	2	B	500	diastole
1013.7910000000002	0.1175002246745862	72	systole	3	B	500	diastole
1014.6693	0.1175002246745862	72	systole	4	B	500	diastole
1015.5477000000001	0.1175002246745862	72	systole	5	B	500	diastole
1016.3161	0.1175002246745862	72	systole	6	B	500	diastole
1017.0659999999998	0.1175002246745862	72	systole	7	B	500	diastole
1017.7802000000001	0.1175002246745862	72	systole	8	B	500	diastole
1018.5432999999998	0.1175002246745862	72	systole	9	B	500	diastole
1019.3647000000001	0.1175002246745862	72	systole	10	B	500	diastole
1020.1444999999999	0.1175002246745862	72	systole	11	B	500	diastole
1020.9643999999998	0.1175002246745862	72	systole	12	B	500	diastole
1024.1889999999999	0.1025823999661952	73	diastole	1	B	500	diastole
1025.0591	0.1025823999661952	73	diastole	2	B	500	diastole
1025.8815	0.1025823999661952	73	diastole	3	B	500	diastole
1026.6718	0.1025823999661952	73	diastole	4	B	500	diastole
1027.4621000000002	0.1025823999661952	73	diastole	5	B	500	diastole
1028.2523999999999	0.1025823999661952	73	diastole	6	B	500	diastole
1028.9823000000001	0.1025823999661952	73	diastole	7	B	500	diastole
1029.7123000000001	0.1025823999661952	73	diastole	8	B	500	diastole
1030.4283999999998	0.1025823999661952	73	diastole	9	B	500	diastole
1031.4703	0.1025823999661952	73	diastole	10	B	500	diastole
1032.3598000000002	0.1025823999661952	73	diastole	11	B	500	diastole
1033.2493	0.1025823999661952	73	diastole	12	B	500	diastole
1040.8296999999998	0.116989862464834	74	diastole	1	B	500	diastole
1041.2543999999998	0.116989862464834	74	diastole	2	B	500	diastole
1041.7041	0.116989862464834	74	diastole	3	B	500	diastole
1042.4342000000001	0.116989862464834	74	diastole	4	B	500	diastole
1043.5459999999998	0.116989862464834	74	diastole	5	B	500	diastole
1044.7664	0.116989862464834	74	diastole	6	B	500	diastole
1045.9063	0.116989862464834	74	diastole	7	B	500	diastole
1046.8764	0.116989862464834	74	diastole	8	B	500	diastole
1047.8464	0.116989862464834	74	diastole	9	B	500	diastole
1048.8778000000002	0.116989862464834	74	diastole	10	B	500	diastole
1049.8564000000001	0.116989862464834	74	diastole	11	B	500	diastole
1053.6634	0.1125022324267774	75	systole	1	B	500	diastole
1054.5333999999998	0.1125022324267774	75	systole	2	B	500	diastole
1055.3058	0.1125022324267774	75	systole	3	B	500	diastole
1056.0742	0.1125022324267774	75	systole	4	B	500	diastole
1056.8543	0.1125022324267774	75	systole	5	B	500	diastole
1057.8235	0.1125022324267774	75	systole	6	B	500	diastole
1058.7393000000002	0.1125022324267774	75	systole	7	B	500	diastole
1059.6493	0.1125022324267774	75	systole	8	B	500	diastole
1060.4618	0.1125022324267774	75	systole	9	B	500	diastole
1061.3593	0.1125022324267774	75	systole	10	B	500	diastole
1062.2394	0.1125022324267774	75	systole	11	B	500	diastole
1063.1469000000002	0.1125022324267774	75	systole	12	B	500	diastole
1068.9904999999999	0.1018707155890297	76	diastole	1	B	500	systole
1069.8604999999998	0.1018707155890297	76	diastole	2	B	500	systole
1070.8004	0.1018707155890297	76	diastole	3	B	500	systole
1071.7403	0.1018707155890297	76	diastole	4	B	500	systole
1072.6505000000002	0.1018707155890297	76	diastole	5	B	500	systole
1073.5157	0.1018707155890297	76	diastole	6	B	500	systole
1074.3557999999998	0.1018707155890297	76	diastole	7	B	500	systole
1075.2541999999999	0.1018707155890297	76	diastole	8	B	500	systole
1076.1541000000002	0.1018707155890297	76	diastole	9	B	500	systole
1077.054	0.1018707155890297	76	diastole	10	B	500	systole
1077.9123	0.1018707155890297	76	diastole	11	B	500	systole
1081.7426	0.1087561323365662	77	systole	1	B	500	systole
1082.6326	0.1087561323365662	77	systole	2	B	500	systole
1083.5826000000002	0.1087561323365662	77	systole	3	B	500	systole
1084.5585	0.1087561323365662	77	systole	4	B	500	systole
1085.5285	0.1087561323365662	77	systole	5	B	500	systole
1086.4845	0.1087561323365662	77	systole	6	B	500	systole
1087.4043000000001	0.1087561323365662	77	systole	7	B	500	systole
1088.2343	0.1087561323365662	77	systole	8	B	500	systole
1089.0544	0.1087561323365662	77	systole	9	B	500	systole
1089.9717999999998	0.1087561323365662	77	systole	10	B	500	systole
1093.9388	0.106883584143361	78	systole	1	B	500	systole
1094.6887000000002	0.106883584143361	78	systole	2	B	500	systole
1095.4070000000002	0.106883584143361	78	systole	3	B	500	systole
1096.1371	0.106883584143361	78	systole	4	B	500	systole
1096.9569999999999	0.106883584143361	78	systole	5	B	500	systole
1097.7768999999998	0.106883584143361	78	systole	6	B	500	systole
1098.6970000000001	0.106883584143361	78	systole	7	B	500	systole
1099.5790000000002	0.106883584143361	78	systole	8	B	500	systole
1100.5093000000002	0.106883584143361	78	systole	9	B	500	systole
1101.455	0.106883584143361	78	systole	10	B	500	systole
1102.3948999999998	0.106883584143361	78	systole	11	B	500	systole
1106.0992999999999	0.0975062250508926	79	diastole	1	B	500	systole
1106.8892999999998	0.0975062250508926	79	diastole	2	B	500	systole
1107.6792	0.0975062250508926	79	diastole	3	B	500	systole
1108.6194	0.0975062250508926	79	diastole	4	B	500	systole
1109.4793	0.0975062250508926	79	diastole	5	B	500	systole
1110.3739	0.0975062250508926	79	diastole	6	B	500	systole
1111.2435999999998	0.0975062250508926	79	diastole	7	B	500	systole
1112.2622000000001	0.0975062250508926	79	diastole	8	B	500	systole
1113.2386999999999	0.0975062250508926	79	diastole	9	B	500	systole
1113.9987	0.0975062250508926	79	diastole	10	B	500	systole
1114.7586999999999	0.0975062250508926	79	diastole	11	B	500	systole
1118.2278000000001	0.1050026997108943	80	diastole	1	B	500	diastole
1119.0661	0.1050026997108943	80	diastole	2	B	500	diastole
1120.0061	0.1050026997108943	80	diastole	3	B	500	diastole
1120.9461999999999	0.1050026997108943	80	diastole	4	B	500	diastole
1121.9263	0.1050026997108943	80	diastole	5	B	500	diastole
1122.9063	0.1050026997108943	80	diastole	6	B	500	diastole
1123.6945999999998	0.1050026997108943	80	diastole	7	B	500	diastole
1124.5047	0.1050026997108943	80	diastole	8	B	500	diastole
1125.1941000000002	0.1050026997108943	80	diastole	9	B	500	diastole
1125.9141	0.1050026997108943	80	diastole	10	B	500	diastole
1126.6144	0.1050026997108943	80	diastole	11	B	500	diastole
1130.4993	0.0974013437516987	81	diastole	1	B	500	diastole
1131.2793000000001	0.0974013437516987	81	diastole	2	B	500	diastole
1132.0593	0.0974013437516987	81	diastole	3	B	500	diastole
1132.871	0.0974013437516987	81	diastole	4	B	500	diastole
1133.7226999999998	0.0974013437516987	81	diastole	5	B	500	diastole
1134.5327000000002	0.0974013437516987	81	diastole	6	B	500	diastole
1135.3127	0.0974013437516987	81	diastole	7	B	500	diastole
1136.0926	0.0974013437516987	81	diastole	8	B	500	diastole
1136.8676999999998	0.0974013437516987	81	diastole	9	B	500	diastole
1137.6677	0.0974013437516987	81	diastole	10	B	500	diastole
1138.4877999999999	0.0974013437516987	81	diastole	11	B	500	diastole
1142.2957000000001	0.0968815562664531	82	diastole	1	B	500	systole
1143.1407	0.0968815562664531	82	diastole	2	B	500	systole
1143.9908	0.0968815562664531	82	diastole	3	B	500	systole
1144.8290000000002	0.0968815562664531	82	diastole	4	B	500	systole
1145.6590999999999	0.0968815562664531	82	diastole	5	B	500	systole
1146.4211	0.0968815562664531	82	diastole	6	B	500	systole
1147.1914000000002	0.0968815562664531	82	diastole	7	B	500	systole
1147.9614000000001	0.0968815562664531	82	diastole	8	B	500	systole
1148.7214	0.0968815562664531	82	diastole	9	B	500	systole
1149.5695999999998	0.0968815562664531	82	diastole	10	B	500	systole
1150.4663	0.0968815562664531	82	diastole	11	B	500	systole
1151.3647	0.0968815562664531	82	diastole	12	B	500	systole
1154.8006	0.1025080088002141	83	diastole	1	B	500	diastole
1155.6206000000002	0.1025080088002141	83	diastole	2	B	500	diastole
1156.4956000000002	0.1025080088002141	83	diastole	3	B	500	diastole
1157.3573999999999	0.1025080088002141	83	diastole	4	B	500	diastole
1158.2093	0.1025080088002141	83	diastole	5	B	500	diastole
1159.0187999999998	0.1025080088002141	83	diastole	6	B	500	diastole
1159.8889	0.1025080088002141	83	diastole	7	B	500	diastole
1160.7693	0.1025080088002141	83	diastole	8	B	500	diastole
1161.6497	0.1025080088002141	83	diastole	9	B	500	diastole
1162.4987999999998	0.1025080088002141	83	diastole	10	B	500	diastole
1163.239	0.1025080088002141	83	diastole	11	B	500	diastole
1165.8961	0.1018481177743524	84	systole	1	B	500	diastole
1166.7357000000002	0.1018481177743524	84	systole	2	B	500	diastole
1167.5025	0.1018481177743524	84	systole	3	B	500	diastole
1168.3067	0.1018481177743524	84	systole	4	B	500	diastole
1169.1167	0.1018481177743524	84	systole	5	B	500	diastole
1169.9367000000002	0.1018481177743524	84	systole	6	B	500	diastole
1170.8084	0.1018481177743524	84	systole	7	B	500	diastole
1171.5483	0.1018481177743524	84	systole	8	B	500	diastole
1172.2584000000002	0.1018481177743524	84	systole	9	B	500	diastole
1172.9609999999998	0.1018481177743524	84	systole	10	B	500	diastole
1173.6417000000001	0.1018481177743524	84	systole	11	B	500	diastole
1174.3515000000002	0.1018481177743524	84	systole	12	B	500	diastole
1175.0781000000002	0.1018481177743524	84	systole	13	B	500	diastole
1175.8582000000001	0.1018481177743524	84	systole	14	B	500	diastole
1179.3274000000001	0.093749556253897	85	diastole	1	B	500	systole
1180.0774000000001	0.093749556253897	85	diastole	2	B	500	systole
1180.8458999999998	0.093749556253897	85	diastole	3	B	500	systole
1181.5857999999998	0.093749556253897	85	diastole	4	B	500	systole
1182.3541	0.093749556253897	85	diastole	5	B	500	systole
1183.1743000000001	0.093749556253897	85	diastole	6	B	500	systole
1183.9944	0.093749556253897	85	diastole	7	B	500	systole
1184.8944000000001	0.093749556253897	85	diastole	8	B	500	systole
1185.7125999999998	0.093749556253897	85	diastole	9	B	500	systole
1186.5456	0.093749556253897	85	diastole	10	B	500	systole
1187.3455	0.093749556253897	85	diastole	11	B	500	systole
1188.2274000000002	0.093749556253897	85	diastole	12	B	500	systole
1191.9267	0.1006242447474505	86	systole	1	B	500	systole
1192.8067	0.1006242447474505	86	systole	2	B	500	systole
1193.6867000000002	0.1006242447474505	86	systole	3	B	500	systole
1194.4609999999998	0.1006242447474505	86	systole	4	B	500	systole
1195.2067000000002	0.1006242447474505	86	systole	5	B	500	systole
1195.9580999999998	0.1006242447474505	86	systole	6	B	500	systole
1196.685	0.1006242447474505	86	systole	7	B	500	systole
1197.4134	0.1006242447474505	86	systole	8	B	500	systole
1198.1109000000001	0.1006242447474505	86	systole	9	B	500	systole
1198.8392	0.1006242447474505	86	systole	10	B	500	systole
1199.5791	0.1006242447474505	86	systole	11	B	500	systole
1200.319	0.1006242447474505	86	systole	12	B	500	systole
1201.0589	0.1006242447474505	86	systole	13	B	500	systole
1203.3865999999998	0.0931321062380448	87	systole	1	B	500	systole
1204.0866	0.0931321062380448	87	systole	2	B	500	systole
1204.7766000000001	0.0931321062380448	87	systole	3	B	500	systole
1205.4049	0.0931321062380448	87	systole	4	B	500	systole
1206.0448999999999	0.0931321062380448	87	systole	5	B	500	systole
1206.6356	0.0931321062380448	87	systole	6	B	500	systole
1207.2554	0.0931321062380448	87	systole	7	B	500	systole
1207.8663999999999	0.0931321062380448	87	systole	8	B	500	systole
1208.5064000000002	0.0931321062380448	87	systole	9	B	500	systole
1209.2060999999999	0.0931321062380448	87	systole	10	B	500	systole
1209.9765000000002	0.0931321062380448	87	systole	11	B	500	systole
1210.7468	0.0931321062380448	87	systole	12	B	500	systole
1211.4768	0.0931321062380448	87	systole	13	B	500	systole
1212.1822000000002	0.0931321062380448	87	systole	14	B	500	systole
1212.9256	0.0931321062380448	87	systole	15	B	500	systole
1217.4128999999998	0.0913667749846354	88	diastole	1	B	500	systole
1218.1633000000002	0.0913667749846354	88	diastole	2	B	500	systole
1218.9283999999998	0.0913667749846354	88	diastole	3	B	500	systole
1219.7547	0.0913667749846354	88	diastole	4	B	500	systole
1220.5643	0.0913667749846354	88	diastole	5	B	500	systole
1221.3690000000001	0.0913667749846354	88	diastole	6	B	500	systole
1222.1489000000001	0.0913667749846354	88	diastole	7	B	500	systole
1222.8444	0.0913667749846354	88	diastole	8	B	500	systole
1223.5648	0.0913667749846354	88	diastole	9	B	500	systole
1224.4265	0.0913667749846354	88	diastole	10	B	500	systole
1225.366	0.0913667749846354	88	diastole	11	B	500	systole
1226.248	0.0913667749846354	88	diastole	12	B	500	systole
1230.5452	0.1071096769883297	89	diastole	1	B	500	systole
1231.3673	0.1071096769883297	89	diastole	2	B	500	systole
1232.1894000000002	0.1071096769883297	89	diastole	3	B	500	systole
1233.0115	0.1071096769883297	89	diastole	4	B	500	systole
1233.7069000000001	0.1071096769883297	89	diastole	5	B	500	systole
1234.44	0.1071096769883297	89	diastole	6	B	500	systole
1235.2983	0.1071096769883297	89	diastole	7	B	500	systole
1236.0731999999998	0.1071096769883297	89	diastole	8	B	500	systole
1236.8449	0.1071096769883297	89	diastole	9	B	500	systole
1237.5731999999998	0.1071096769883297	89	diastole	10	B	500	systole
1238.2031000000002	0.1071096769883297	89	diastole	11	B	500	systole
1238.9045999999998	0.1071096769883297	89	diastole	12	B	500	systole
1241.7864	0.085627993918024	90	systole	1	B	500	diastole
1242.5767	0.085627993918024	90	systole	2	B	500	diastole
1243.3968	0.085627993918024	90	systole	3	B	500	diastole
1244.2169	0.085627993918024	90	systole	4	B	500	diastole
1245.0079	0.085627993918024	90	systole	5	B	500	diastole
1245.8571000000002	0.085627993918024	90	systole	6	B	500	diastole
1246.6768000000002	0.085627993918024	90	systole	7	B	500	diastole
1247.5945000000002	0.085627993918024	90	systole	8	B	500	diastole
1248.4949000000001	0.085627993918024	90	systole	9	B	500	diastole
1249.2803	0.085627993918024	90	systole	10	B	500	diastole
1250.1113	0.085627993918024	90	systole	11	B	500	diastole
1251.0571	0.085627993918024	90	systole	12	B	500	diastole
1251.9849	0.085627993918024	90	systole	13	B	500	diastole
1256.5801999999999	0.1083292776020243	91	systole	1	B	500	systole
1257.3802	0.1083292776020243	91	systole	2	B	500	systole
1258.1803	0.1083292776020243	91	systole	3	B	500	systole
1258.8861000000002	0.1083292776020243	91	systole	4	B	500	systole
1259.6127000000001	0.1083292776020243	91	systole	5	B	500	systole
1260.3811	0.1083292776020243	91	systole	6	B	500	systole
1261.2444	0.1083292776020243	91	systole	7	B	500	systole
1262.2145999999998	0.1083292776020243	91	systole	8	B	500	systole
1263.0944	0.1083292776020243	91	systole	9	B	500	systole
1263.8786	0.1083292776020243	91	systole	10	B	500	systole
1264.6686	0.1083292776020243	91	systole	11	B	500	systole
1269.7901000000002	0.0962712184991687	92	systole	1	B	500	systole
1270.5695999999998	0.0962712184991687	92	systole	2	B	500	systole
1271.3085999999998	0.0962712184991687	92	systole	3	B	500	systole
1272.0591	0.0962712184991687	92	systole	4	B	500	systole
1272.7572	0.0962712184991687	92	systole	5	B	500	systole
1273.4670999999998	0.0962712184991687	92	systole	6	B	500	systole
1274.1770000000001	0.0962712184991687	92	systole	7	B	500	systole
1274.8636000000001	0.0962712184991687	92	systole	8	B	500	systole
1275.5357	0.0962712184991687	92	systole	9	B	500	systole
1276.2157000000002	0.0962712184991687	92	systole	10	B	500	systole
1276.8955999999998	0.0962712184991687	92	systole	11	B	500	systole
1277.576	0.0962712184991687	92	systole	12	B	500	systole
1278.246	0.0962712184991687	92	systole	13	B	500	systole
1281.9274	0.0886178435757756	93	systole	1	B	500	systole
1282.6473999999998	0.0886178435757756	93	systole	2	B	500	systole
1283.3775999999998	0.0886178435757756	93	systole	3	B	500	systole
1284.1234	0.0886178435757756	93	systole	4	B	500	systole
1284.8890000000001	0.0886178435757756	93	systole	5	B	500	systole
1285.7049000000002	0.0886178435757756	93	systole	6	B	500	systole
1286.5306999999998	0.0886178435757756	93	systole	7	B	500	systole
1287.2766000000001	0.0886178435757756	93	systole	8	B	500	systole
1288.0167000000001	0.0886178435757756	93	systole	9	B	500	systole
1288.7408	0.0886178435757756	93	systole	10	B	500	systole
1289.4407999999999	0.0886178435757756	93	systole	11	B	500	systole
1290.1408000000001	0.0886178435757756	93	systole	12	B	500	systole
1290.7907	0.0886178435757756	93	systole	13	B	500	systole
1291.4407	0.0886178435757756	93	systole	14	B	500	systole
1295.4906	0.0887502462719567	94	diastole	1	B	500	diastole
1296.2104	0.0887502462719567	94	diastole	2	B	500	diastole
1296.9303	0.0887502462719567	94	diastole	3	B	500	diastole
1297.6019999999999	0.0887502462719567	94	diastole	4	B	500	diastole
1298.2819	0.0887502462719567	94	diastole	5	B	500	diastole
1298.9422	0.0887502462719567	94	diastole	6	B	500	diastole
1299.6221999999998	0.0887502462719567	94	diastole	7	B	500	diastole
1300.3022	0.0887502462719567	94	diastole	8	B	500	diastole
1300.9822	0.0887502462719567	94	diastole	9	B	500	diastole
1301.6622000000002	0.0887502462719567	94	diastole	10	B	500	diastole
1302.4254	0.0887502462719567	94	diastole	11	B	500	diastole
1303.1553	0.0887502462719567	94	diastole	12	B	500	diastole
1303.8289	0.0887502462719567	94	diastole	13	B	500	diastole
1304.484	0.0887502462719567	94	diastole	14	B	500	diastole
1307.2564000000002	0.0868802336626686	95	systole	1	B	500	diastole
1307.5225999999998	0.0868802336626686	95	systole	2	B	500	diastole
1307.7550999999999	0.0868802336626686	95	systole	3	B	500	diastole
1308.1091000000001	0.0868802336626686	95	systole	4	B	500	diastole
1308.4991	0.0868802336626686	95	systole	5	B	500	diastole
1309.1316000000002	0.0868802336626686	95	systole	6	B	500	diastole
1309.7815999999998	0.0868802336626686	95	systole	7	B	500	diastole
1310.4261999999999	0.0868802336626686	95	systole	8	B	500	diastole
1311.0803	0.0868802336626686	95	systole	9	B	500	diastole
1311.7519000000002	0.0868802336626686	95	systole	10	B	500	diastole
1312.4234999999999	0.0868802336626686	95	systole	11	B	500	diastole
1313.0951	0.0868802336626686	95	systole	12	B	500	diastole
1313.781	0.0868802336626686	95	systole	13	B	500	diastole
1314.4959	0.0868802336626686	95	systole	14	B	500	diastole
1315.2058000000002	0.0868802336626686	95	systole	15	B	500	diastole
1315.9159	0.0868802336626686	95	systole	16	B	500	diastole
1316.6336000000001	0.0868802336626686	95	systole	17	B	500	diastole
1318.783	0.0855157810437958	96	systole	1	B	500	systole
1319.493	0.0855157810437958	96	systole	2	B	500	systole
1320.1698999999999	0.0855157810437958	96	systole	3	B	500	systole
1320.8399	0.0855157810437958	96	systole	4	B	500	systole
1321.4798999999998	0.0855157810437958	96	systole	5	B	500	systole
1322.1071000000002	0.0855157810437958	96	systole	6	B	500	systole
1322.7253999999998	0.0855157810437958	96	systole	7	B	500	systole
1323.3647999999998	0.0855157810437958	96	systole	8	B	500	systole
1324.0448000000001	0.0855157810437958	96	systole	9	B	500	systole
1324.7448	0.0855157810437958	96	systole	10	B	500	systole
1325.4448000000002	0.0855157810437958	96	systole	11	B	500	systole
1326.1448999999998	0.0855157810437958	96	systole	12	B	500	systole
1326.8465	0.0855157810437958	96	systole	13	B	500	systole
1327.5365000000002	0.0855157810437958	96	systole	14	B	500	systole
1328.2622999999999	0.0855157810437958	96	systole	15	B	500	systole
1330.5772000000002	0.0887462274113204	97	systole	1	B	500	systole
1331.4573	0.0887462274113204	97	systole	2	B	500	systole
1332.4272999999998	0.0887462274113204	97	systole	3	B	500	systole
1333.3973	0.0887462274113204	97	systole	4	B	500	systole
1334.3924000000002	0.0887462274113204	97	systole	5	B	500	systole
1335.3899999999999	0.0887462274113204	97	systole	6	B	500	systole
1336.3002000000001	0.0887462274113204	97	systole	7	B	500	systole
1337.1311	0.0887462274113204	97	systole	8	B	500	systole
1337.9211	0.0887462274113204	97	systole	9	B	500	systole
1338.6911	0.0887462274113204	97	systole	10	B	500	systole
1339.4108999999999	0.0887462274113204	97	systole	11	B	500	systole
1342.6523000000002	0.0956175250175874	98	diastole	1	B	500	systole
1343.5522999999998	0.0956175250175874	98	diastole	2	B	500	systole
1344.4023000000002	0.0956175250175874	98	diastole	3	B	500	systole
1345.2523	0.0956175250175874	98	diastole	4	B	500	systole
1346.1023	0.0956175250175874	98	diastole	5	B	500	systole
1347.0589	0.0956175250175874	98	diastole	6	B	500	systole
1347.9488000000001	0.0956175250175874	98	diastole	7	B	500	systole
1348.8337999999999	0.0956175250175874	98	diastole	8	B	500	systole
1349.5639	0.0956175250175874	98	diastole	9	B	500	systole
1350.2839	0.0956175250175874	98	diastole	10	B	500	systole
1351.0038	0.0956175250175874	98	diastole	11	B	500	systole
1354.7131	0.0906267375685274	99	systole	1	B	500	systole
1355.4732	0.0906267375685274	99	systole	2	B	500	systole
1356.2332000000001	0.0906267375685274	99	systole	3	B	500	systole
1356.9932	0.0906267375685274	99	systole	4	B	500	systole
1357.7449000000001	0.0906267375685274	99	systole	5	B	500	systole
1358.4865	0.0906267375685274	99	systole	6	B	500	systole
1359.2165	0.0906267375685274	99	systole	7	B	500	systole
1359.9465	0.0906267375685274	99	systole	8	B	500	systole
1360.6464	0.0906267375685274	99	systole	9	B	500	systole
1361.3463000000002	0.0906267375685274	99	systole	10	B	500	systole
1362.1961999999999	0.0906267375685274	99	systole	11	B	500	systole
1363.0461	0.0906267375685274	99	systole	12	B	500	systole
1364.0461999999998	0.0906267375685274	99	systole	13	B	500	systole
1368.0122999999999	0.09937594801886	100	diastole	1	B	500	systole
1368.8389000000002	0.09937594801886	100	diastole	2	B	500	systole
1369.6089000000002	0.09937594801886	100	diastole	3	B	500	systole
1370.4009999999998	0.09937594801886	100	diastole	4	B	500	systole
1371.2609000000002	0.09937594801886	100	diastole	5	B	500	systole
1372.2109	0.09937594801886	100	diastole	6	B	500	systole
1373.1012	0.09937594801886	100	diastole	7	B	500	systole
1373.9915999999998	0.09937594801886	100	diastole	8	B	500	systole
1375.0095999999999	0.09937594801886	100	diastole	9	B	500	systole
1375.9696	0.09937594801886	100	diastole	10	B	500	systole
