onset	duration	trial_num	trial_type	tone_num	tone_type	frequency	response
52.66059999999993	0.0831296460237354	1	systole	1	B	500	systole
53.39229999999998	0.0831296460237354	1	systole	2	B	500	systole
54.119699999999966	0.0831296460237354	1	systole	3	B	500	systole
54.8297	0.0831296460237354	1	systole	4	B	500	systole
55.525499999999965	0.0831296460237354	1	systole	5	B	500	systole
56.23720000000003	0.0831296460237354	1	systole	6	B	500	systole
56.937200000000075	0.0831296460237354	1	systole	7	B	500	systole
57.637300000000096	0.0831296460237354	1	systole	8	B	500	systole
58.32730000000015	0.0831296460237354	1	systole	9	B	500	systole
59.00150000000008	0.0831296460237354	1	systole	10	B	500	systole
59.65990000000011	0.0831296460237354	1	systole	11	B	500	systole
60.34400000000005	0.0831296460237354	1	systole	12	B	500	systole
61.034000000000106	0.0831296460237354	1	systole	13	B	500	systole
61.71399999999994	0.0831296460237354	1	systole	14	B	500	systole
66.01400000000012	0.0862518126377835	2	systole	1	B	500	diastole
66.67399999999998	0.0862518126377835	2	systole	2	B	500	diastole
67.33400000000006	0.0862518126377835	2	systole	3	B	500	diastole
67.95820000000003	0.0862518126377835	2	systole	4	B	500	diastole
68.58820000000014	0.0862518126377835	2	systole	5	B	500	diastole
69.19650000000001	0.0862518126377835	2	systole	6	B	500	diastole
69.81650000000013	0.0862518126377835	2	systole	7	B	500	diastole
70.43650000000002	0.0862518126377835	2	systole	8	B	500	diastole
71.11069999999995	0.0862518126377835	2	systole	9	B	500	diastole
71.90070000000014	0.0862518126377835	2	systole	10	B	500	diastole
72.67060000000015	0.0862518126377835	2	systole	11	B	500	diastole
73.44060000000013	0.0862518126377835	2	systole	12	B	500	diastole
74.21060000000011	0.0862518126377835	2	systole	13	B	500	diastole
75.01250000000005	0.0862518126377835	2	systole	14	B	500	diastole
78.02649999999994	0.0931203396758064	3	systole	1	B	500	diastole
78.64890000000014	0.0931203396758064	3	systole	2	B	500	diastole
79.28890000000001	0.0931203396758064	3	systole	3	B	500	diastole
79.9072000000001	0.0931203396758064	3	systole	4	B	500	diastole
80.50710000000004	0.0931203396758064	3	systole	5	B	500	diastole
81.09580000000005	0.0931203396758064	3	systole	6	B	500	diastole
81.66470000000004	0.0931203396758064	3	systole	7	B	500	diastole
82.43470000000002	0.0931203396758064	3	systole	8	B	500	diastole
83.75459999999998	0.0931203396758064	3	systole	9	B	500	diastole
85.07460000000015	0.0931203396758064	3	systole	10	B	500	diastole
86.00459999999998	0.0931203396758064	3	systole	11	B	500	diastole
86.99119999999994	0.0931203396758064	3	systole	12	B	500	diastole
87.93119999999999	0.0931203396758064	3	systole	13	B	500	diastole
91.79040000000009	0.1106271124444902	4	systole	1	B	500	systole
92.46710000000007	0.1106271124444902	4	systole	2	B	500	systole
93.16710000000012	0.1106271124444902	4	systole	3	B	500	systole
93.76250000000005	0.1106271124444902	4	systole	4	B	500	systole
94.39260000000013	0.1106271124444902	4	systole	5	B	500	systole
94.98739999999998	0.1106271124444902	4	systole	6	B	500	systole
95.58619999999996	0.1106271124444902	4	systole	7	B	500	systole
96.15149999999994	0.1106271124444902	4	systole	8	B	500	systole
96.7306000000001	0.1106271124444902	4	systole	9	B	500	systole
97.35059999999999	0.1106271124444902	4	systole	10	B	500	systole
97.93990000000008	0.1106271124444902	4	systole	11	B	500	systole
98.58989999999994	0.1106271124444902	4	systole	12	B	500	systole
99.25990000000002	0.1106271124444902	4	systole	13	B	500	systole
99.9199000000001	0.1106271124444902	4	systole	14	B	500	systole
100.60149999999999	0.1106271124444902	4	systole	15	B	500	systole
103.13499999999999	0.0819009625120088	5	systole	1	B	500	diastole
103.72730000000001	0.0819009625120088	5	systole	2	B	500	diastole
104.30140000000006	0.0819009625120088	5	systole	3	B	500	diastole
104.89300000000003	0.0819009625120088	5	systole	4	B	500	diastole
105.46929999999998	0.0819009625120088	5	systole	5	B	500	diastole
106.15080000000012	0.0819009625120088	5	systole	6	B	500	diastole
106.83220000000006	0.0819009625120088	5	systole	7	B	500	diastole
107.53070000000002	0.0819009625120088	5	systole	8	B	500	diastole
108.23669999999993	0.0819009625120088	5	systole	9	B	500	diastole
108.93720000000008	0.0819009625120088	5	systole	10	B	500	diastole
109.63750000000005	0.0819009625120088	5	systole	11	B	500	diastole
110.40769999999998	0.0819009625120088	5	systole	12	B	500	diastole
111.10339999999997	0.0819009625120088	5	systole	13	B	500	diastole
111.79780000000005	0.0819009625120088	5	systole	14	B	500	diastole
112.47810000000004	0.0819009625120088	5	systole	15	B	500	diastole
114.71029999999996	0.0856212336802855	6	diastole	1	B	500	systole
115.28780000000006	0.0856212336802855	6	diastole	2	B	500	systole
115.88990000000013	0.0856212336802855	6	diastole	3	B	500	systole
116.44100000000003	0.0856212336802855	6	diastole	4	B	500	systole
117.04120000000012	0.0856212336802855	6	diastole	5	B	500	systole
117.6413	0.0856212336802855	6	diastole	6	B	500	systole
118.22350000000006	0.0856212336802855	6	diastole	7	B	500	systole
118.82380000000012	0.0856212336802855	6	diastole	8	B	500	systole
119.38229999999999	0.0856212336802855	6	diastole	9	B	500	systole
119.98230000000012	0.0856212336802855	6	diastole	10	B	500	systole
120.59230000000002	0.0856212336802855	6	diastole	11	B	500	systole
121.2224000000001	0.0856212336802855	6	diastole	12	B	500	systole
121.89419999999996	0.0856212336802855	6	diastole	13	B	500	systole
122.60040000000004	0.0856212336802855	6	diastole	14	B	500	systole
123.29909999999995	0.0856212336802855	6	diastole	15	B	500	systole
124.01600000000008	0.0856212336802855	6	diastole	16	B	500	systole
126.64699999999993	0.0825018249452114	7	diastole	1	B	500	diastole
127.26700000000005	0.0825018249452114	7	diastole	2	B	500	diastole
127.8556000000001	0.0825018249452114	7	diastole	3	B	500	diastole
128.47759999999994	0.0825018249452114	7	diastole	4	B	500	diastole
129.11750000000006	0.0825018249452114	7	diastole	5	B	500	diastole
129.75739999999996	0.0825018249452114	7	diastole	6	B	500	diastole
130.41740000000004	0.0825018249452114	7	diastole	7	B	500	diastole
131.10310000000004	0.0825018249452114	7	diastole	8	B	500	diastole
131.81809999999996	0.0825018249452114	7	diastole	9	B	500	diastole
132.51800000000003	0.0825018249452114	7	diastole	10	B	500	diastole
133.27250000000004	0.0825018249452114	7	diastole	11	B	500	diastole
133.99250000000006	0.0825018249452114	7	diastole	12	B	500	diastole
134.7116000000001	0.0825018249452114	7	diastole	13	B	500	diastole
135.45479999999998	0.0825018249452114	7	diastole	14	B	500	diastole
138.7654	0.0874922289513051	8	diastole	1	B	500	diastole
139.3855000000001	0.0874922289513051	8	diastole	2	B	500	diastole
139.96890000000008	0.0874922289513051	8	diastole	3	B	500	diastole
140.61879999999996	0.0874922289513051	8	diastole	4	B	500	diastole
141.23399999999992	0.0874922289513051	8	diastole	5	B	500	diastole
141.87419999999997	0.0874922289513051	8	diastole	6	B	500	diastole
142.5241000000001	0.0874922289513051	8	diastole	7	B	500	diastole
143.18399999999997	0.0874922289513051	8	diastole	8	B	500	diastole
143.84390000000008	0.0874922289513051	8	diastole	9	B	500	diastole
144.50389999999993	0.0874922289513051	8	diastole	10	B	500	diastole
145.17399999999998	0.0874922289513051	8	diastole	11	B	500	diastole
145.86210000000005	0.0874922289513051	8	diastole	12	B	500	diastole
146.52390000000014	0.0874922289513051	8	diastole	13	B	500	diastole
147.19229999999993	0.0874922289513051	8	diastole	14	B	500	diastole
149.22410000000013	0.0805247178068384	9	systole	1	B	500	systole
149.81220000000008	0.0805247178068384	9	systole	2	B	500	systole
150.41190000000006	0.0805247178068384	9	systole	3	B	500	systole
151.00620000000004	0.0805247178068384	9	systole	4	B	500	systole
151.60630000000015	0.0805247178068384	9	systole	5	B	500	systole
152.18880000000013	0.0805247178068384	9	systole	6	B	500	systole
152.80880000000002	0.0805247178068384	9	systole	7	B	500	systole
153.4289000000001	0.0805247178068384	9	systole	8	B	500	systole
154.05899999999997	0.0805247178068384	9	systole	9	B	500	systole
154.7106000000001	0.0805247178068384	9	systole	10	B	500	systole
155.3505	0.0805247178068384	9	systole	11	B	500	systole
155.98610000000008	0.0805247178068384	9	systole	12	B	500	systole
156.63360000000011	0.0805247178068384	9	systole	13	B	500	systole
157.2636	0.0805247178068384	9	systole	14	B	500	systole
157.89350000000013	0.0805247178068384	9	systole	15	B	500	systole
158.51369999999997	0.0805247178068384	9	systole	16	B	500	systole
161.36900000000014	0.0787471875082701	10	diastole	1	B	500	diastole
162.02890000000002	0.0787471875082701	10	diastole	2	B	500	diastole
162.6889000000001	0.0787471875082701	10	diastole	3	B	500	diastole
163.34899999999993	0.0787471875082701	10	diastole	4	B	500	diastole
164.03729999999996	0.0787471875082701	10	diastole	5	B	500	diastole
164.75070000000005	0.0787471875082701	10	diastole	6	B	500	diastole
165.43900000000008	0.0787471875082701	10	diastole	7	B	500	diastole
166.11910000000012	0.0787471875082701	10	diastole	8	B	500	diastole
166.77710000000002	0.0787471875082701	10	diastole	9	B	500	diastole
167.42679999999996	0.0787471875082701	10	diastole	10	B	500	diastole
168.0766000000001	0.0787471875082701	10	diastole	11	B	500	diastole
168.72630000000004	0.0787471875082701	10	diastole	12	B	500	diastole
169.37599999999998	0.0787471875082701	10	diastole	13	B	500	diastole
170.0263	0.0787471875082701	10	diastole	14	B	500	diastole
173.12509999999997	0.0831168249715119	11	systole	1	B	500	diastole
173.7750000000001	0.0831168249715119	11	systole	2	B	500	diastole
174.42499999999995	0.0831168249715119	11	systole	3	B	500	diastole
175.07490000000007	0.0831168249715119	11	systole	4	B	500	diastole
175.70489999999995	0.0831168249715119	11	systole	5	B	500	diastole
176.33500000000004	0.0831168249715119	11	systole	6	B	500	diastole
176.95499999999993	0.0831168249715119	11	systole	7	B	500	diastole
177.54320000000007	0.0831168249715119	11	systole	8	B	500	diastole
178.12570000000005	0.0831168249715119	11	systole	9	B	500	diastole
178.72569999999996	0.0831168249715119	11	systole	10	B	500	diastole
179.29829999999993	0.0831168249715119	11	systole	11	B	500	diastole
179.88840000000005	0.0831168249715119	11	systole	12	B	500	diastole
180.4493	0.0831168249715119	11	systole	13	B	500	diastole
181.03930000000014	0.0831168249715119	11	systole	14	B	500	diastole
181.37879999999996	0.0831168249715119	11	systole	15	B	500	diastole
181.71849999999995	0.0831168249715119	11	systole	16	B	500	diastole
182.30909999999994	0.0831168249715119	11	systole	17	B	500	diastole
184.56870000000004	0.074991354253143	12	systole	1	B	500	systole
185.16859999999997	0.074991354253143	12	systole	2	B	500	systole
185.7587000000001	0.074991354253143	12	systole	3	B	500	systole
186.34879999999998	0.074991354253143	12	systole	4	B	500	systole
186.93880000000013	0.074991354253143	12	systole	5	B	500	systole
187.52880000000005	0.074991354253143	12	systole	6	B	500	systole
188.1132	0.074991354253143	12	systole	7	B	500	systole
188.6871000000001	0.074991354253143	12	systole	8	B	500	systole
189.26670000000013	0.074991354253143	12	systole	9	B	500	systole
189.83680000000004	0.074991354253143	12	systole	10	B	500	systole
190.41679999999997	0.074991354253143	12	systole	11	B	500	systole
190.9969000000001	0.074991354253143	12	systole	12	B	500	systole
191.56110000000012	0.074991354253143	12	systole	13	B	500	systole
192.14499999999998	0.074991354253143	12	systole	14	B	500	systole
192.76490000000013	0.074991354253143	12	systole	15	B	500	systole
193.38480000000004	0.074991354253143	12	systole	16	B	500	systole
194.07490000000007	0.074991354253143	12	systole	17	B	500	systole
196.67329999999993	0.0756154918344691	13	systole	1	B	500	diastole
197.48360000000002	0.0756154918344691	13	systole	2	B	500	diastole
198.29729999999995	0.0756154918344691	13	systole	3	B	500	diastole
199.0072	0.0756154918344691	13	systole	4	B	500	diastole
199.68740000000003	0.0756154918344691	13	systole	5	B	500	diastole
200.35699999999997	0.0756154918344691	13	systole	6	B	500	diastole
201.02670000000012	0.0756154918344691	13	systole	7	B	500	diastole
201.63329999999996	0.0756154918344691	13	systole	8	B	500	diastole
202.23990000000003	0.0756154918344691	13	systole	9	B	500	diastole
202.86979999999994	0.0756154918344691	13	systole	10	B	500	diastole
203.49389999999994	0.0756154918344691	13	systole	11	B	500	diastole
204.1332	0.0756154918344691	13	systole	12	B	500	diastole
204.77729999999997	0.0756154918344691	13	systole	13	B	500	diastole
205.41689999999994	0.0756154918344691	13	systole	14	B	500	diastole
207.66229999999996	0.081216013408266	14	diastole	1	B	500	diastole
208.3306	0.081216013408266	14	diastole	2	B	500	diastole
209.0109	0.081216013408266	14	diastole	3	B	500	diastole
209.68250000000012	0.081216013408266	14	diastole	4	B	500	diastole
210.33259999999996	0.081216013408266	14	diastole	5	B	500	diastole
210.98270000000002	0.081216013408266	14	diastole	6	B	500	diastole
211.6328000000001	0.081216013408266	14	diastole	7	B	500	diastole
212.29290000000015	0.081216013408266	14	diastole	8	B	500	diastole
212.93229999999994	0.081216013408266	14	diastole	9	B	500	diastole
213.57200000000012	0.081216013408266	14	diastole	10	B	500	diastole
214.2116000000001	0.081216013408266	14	diastole	11	B	500	diastole
214.82130000000006	0.081216013408266	14	diastole	12	B	500	diastole
215.4833000000001	0.081216013408266	14	diastole	13	B	500	diastole
216.17340000000013	0.081216013408266	14	diastole	14	B	500	diastole
216.8632	0.081216013408266	14	diastole	15	B	500	diastole
220.28870000000006	0.0862401186022907	15	diastole	1	B	500	diastole
220.9289000000001	0.0862401186022907	15	diastole	2	B	500	diastole
221.56920000000014	0.0862401186022907	15	diastole	3	B	500	diastole
222.20939999999996	0.0862401186022907	15	diastole	4	B	500	diastole
222.84940000000006	0.0862401186022907	15	diastole	5	B	500	diastole
223.45450000000005	0.0862401186022907	15	diastole	6	B	500	diastole
224.06310000000008	0.0862401186022907	15	diastole	7	B	500	diastole
224.72270000000003	0.0862401186022907	15	diastole	8	B	500	diastole
225.3822	0.0862401186022907	15	diastole	9	B	500	diastole
225.6382000000001	0.0862401186022907	15	diastole	10	B	500	diastole
225.84820000000013	0.0862401186022907	15	diastole	11	B	500	diastole
226.25549999999998	0.0862401186022907	15	diastole	12	B	500	diastole
226.94350000000009	0.0862401186022907	15	diastole	13	B	500	diastole
227.64210000000003	0.0862401186022907	15	diastole	14	B	500	diastole
228.33220000000006	0.0862401186022907	15	diastole	15	B	500	diastole
229.02009999999996	0.0862401186022907	15	diastole	16	B	500	diastole
231.42859999999996	0.0831438316963613	16	diastole	1	B	500	diastole
232.0688	0.0831438316963613	16	diastole	2	B	500	diastole
232.70870000000014	0.0831438316963613	16	diastole	3	B	500	diastole
233.32010000000014	0.0831438316963613	16	diastole	4	B	500	diastole
233.93970000000013	0.0831438316963613	16	diastole	5	B	500	diastole
234.5145	0.0831438316963613	16	diastole	6	B	500	diastole
235.12619999999993	0.0831438316963613	16	diastole	7	B	500	diastole
235.72000000000003	0.0831438316963613	16	diastole	8	B	500	diastole
236.34899999999993	0.0831438316963613	16	diastole	9	B	500	diastole
236.97870000000012	0.0831438316963613	16	diastole	10	B	500	diastole
237.61860000000001	0.0831438316963613	16	diastole	11	B	500	diastole
238.2786000000001	0.0831438316963613	16	diastole	12	B	500	diastole
238.93859999999995	0.0831438316963613	16	diastole	13	B	500	diastole
239.6187	0.0831438316963613	16	diastole	14	B	500	diastole
240.3007	0.0831438316963613	16	diastole	15	B	500	diastole
245.11540000000014	0.0842565002385526	17	diastole	1	B	500	systole
245.76569999999992	0.0842565002385526	17	diastole	2	B	500	systole
246.41599999999994	0.0842565002385526	17	diastole	3	B	500	systole
247.06770000000006	0.0842565002385526	17	diastole	4	B	500	systole
247.72770000000014	0.0842565002385526	17	diastole	5	B	500	systole
248.37930000000006	0.0842565002385526	17	diastole	6	B	500	systole
249.03940000000011	0.0842565002385526	17	diastole	7	B	500	systole
249.69970000000012	0.0842565002385526	17	diastole	8	B	500	systole
250.36000000000013	0.0842565002385526	17	diastole	9	B	500	systole
251.00970000000007	0.0842565002385526	17	diastole	10	B	500	systole
251.6522	0.0842565002385526	17	diastole	11	B	500	systole
252.30169999999998	0.0842565002385526	17	diastole	12	B	500	systole
252.9416000000001	0.0842565002385526	17	diastole	13	B	500	systole
253.57200000000012	0.0842565002385526	17	diastole	14	B	500	systole
254.2034000000001	0.0842565002385526	17	diastole	15	B	500	systole
257.75569999999993	0.0805964374449104	18	systole	1	B	500	systole
258.39599999999996	0.0805964374449104	18	systole	2	B	500	systole
259.02570000000014	0.0805964374449104	18	systole	3	B	500	systole
259.6557	0.0805964374449104	18	systole	4	B	500	systole
260.28559999999993	0.0805964374449104	18	systole	5	B	500	systole
260.87979999999993	0.0805964374449104	18	systole	6	B	500	systole
261.47990000000004	0.0805964374449104	18	systole	7	B	500	systole
262.0799999999999	0.0805964374449104	18	systole	8	B	500	systole
262.66820000000007	0.0805964374449104	18	systole	9	B	500	systole
263.2682	0.0805964374449104	18	systole	10	B	500	systole
263.8682000000001	0.0805964374449104	18	systole	11	B	500	systole
264.4682	0.0805964374449104	18	systole	12	B	500	systole
265.0525	0.0805964374449104	18	systole	13	B	500	systole
265.64059999999995	0.0805964374449104	18	systole	14	B	500	systole
266.2406000000001	0.0805964374449104	18	systole	15	B	500	systole
269.17859999999996	0.0787404810544103	19	diastole	1	B	500	systole
269.7986000000001	0.0787404810544103	19	diastole	2	B	500	systole
270.41859999999997	0.0787404810544103	19	diastole	3	B	500	systole
271.0386000000001	0.0787404810544103	19	diastole	4	B	500	systole
271.6387	0.0787404810544103	19	diastole	5	B	500	systole
272.2486000000001	0.0787404810544103	19	diastole	6	B	500	systole
272.84030000000007	0.0787404810544103	19	diastole	7	B	500	systole
273.43229999999994	0.0787404810544103	19	diastole	8	B	500	systole
274.03390000000013	0.0787404810544103	19	diastole	9	B	500	systole
274.6255000000001	0.0787404810544103	19	diastole	10	B	500	systole
275.2128	0.0787404810544103	19	diastole	11	B	500	systole
275.8097	0.0787404810544103	19	diastole	12	B	500	systole
276.43309999999997	0.0787404810544103	19	diastole	13	B	500	systole
277.0549000000001	0.0787404810544103	19	diastole	14	B	500	systole
277.6829	0.0787404810544103	19	diastole	15	B	500	systole
278.3030000000001	0.0787404810544103	19	diastole	16	B	500	systole
281.0412000000001	0.07737253815867	20	systole	1	B	500	diastole
281.6508000000001	0.07737253815867	20	systole	2	B	500	diastole
282.26030000000014	0.07737253815867	20	systole	3	B	500	diastole
282.86529999999993	0.07737253815867	20	systole	4	B	500	diastole
283.47080000000005	0.07737253815867	20	systole	5	B	500	diastole
284.0807	0.07737253815867	20	systole	6	B	500	diastole
284.6908000000001	0.07737253815867	20	systole	7	B	500	diastole
285.32050000000004	0.07737253815867	20	systole	8	B	500	diastole
285.95000000000005	0.07737253815867	20	systole	9	B	500	diastole
286.5920000000001	0.07737253815867	20	systole	10	B	500	diastole
287.2478000000001	0.07737253815867	20	systole	11	B	500	diastole
287.9071000000001	0.07737253815867	20	systole	12	B	500	diastole
288.5553	0.07737253815867	20	systole	13	B	500	diastole
289.2341000000001	0.07737253815867	20	systole	14	B	500	diastole
289.8890000000001	0.07737253815867	20	systole	15	B	500	diastole
292.1223	0.0806350357597693	21	diastole	1	B	500	systole
292.75220000000013	0.0806350357597693	21	diastole	2	B	500	systole
293.38210000000004	0.0806350357597693	21	diastole	3	B	500	systole
293.9685999999999	0.0806350357597693	21	diastole	4	B	500	systole
294.5702000000001	0.0806350357597693	21	diastole	5	B	500	systole
295.16370000000006	0.0806350357597693	21	diastole	6	B	500	systole
295.74520000000007	0.0806350357597693	21	diastole	7	B	500	systole
296.3352	0.0806350357597693	21	diastole	8	B	500	systole
296.92509999999993	0.0806350357597693	21	diastole	9	B	500	systole
297.50530000000003	0.0806350357597693	21	diastole	10	B	500	systole
298.08539999999994	0.0806350357597693	21	diastole	11	B	500	systole
298.63210000000004	0.0806350357597693	21	diastole	12	B	500	systole
299.2037	0.0806350357597693	21	diastole	13	B	500	systole
299.7654	0.0806350357597693	21	diastole	14	B	500	systole
300.33539999999994	0.0806350357597693	21	diastole	15	B	500	systole
300.9072000000001	0.0806350357597693	21	diastole	16	B	500	systole
301.47710000000006	0.0806350357597693	21	diastole	17	B	500	systole
304.37699999999995	0.0724036458414048	22	diastole	1	B	500	systole
304.9671000000001	0.0724036458414048	22	diastole	2	B	500	systole
305.55719999999997	0.0724036458414048	22	diastole	3	B	500	systole
306.1472000000001	0.0724036458414048	22	diastole	4	B	500	systole
306.75850000000014	0.0724036458414048	22	diastole	5	B	500	systole
307.36850000000004	0.0724036458414048	22	diastole	6	B	500	systole
307.98109999999997	0.0724036458414048	22	diastole	7	B	500	systole
308.58100000000013	0.0724036458414048	22	diastole	8	B	500	systole
309.17229999999995	0.0724036458414048	22	diastole	9	B	500	systole
309.7623000000001	0.0724036458414048	22	diastole	10	B	500	systole
310.3624	0.0724036458414048	22	diastole	11	B	500	systole
310.9425000000001	0.0724036458414048	22	diastole	12	B	500	systole
311.53240000000005	0.0724036458414048	22	diastole	13	B	500	systole
312.1222	0.0724036458414048	22	diastole	14	B	500	systole
312.7021	0.0724036458414048	22	diastole	15	B	500	systole
315.53690000000006	0.0726382628781721	23	diastole	1	B	500	systole
316.1068	0.0726382628781721	23	diastole	2	B	500	systole
316.67509999999993	0.0726382628781721	23	diastole	3	B	500	systole
317.2451000000001	0.0726382628781721	23	diastole	4	B	500	systole
317.80539999999996	0.0726382628781721	23	diastole	5	B	500	systole
318.35630000000015	0.0726382628781721	23	diastole	6	B	500	systole
318.9221	0.0726382628781721	23	diastole	7	B	500	systole
319.47890000000007	0.0726382628781721	23	diastole	8	B	500	systole
320.03690000000006	0.0726382628781721	23	diastole	9	B	500	systole
320.61720000000014	0.0726382628781721	23	diastole	10	B	500	systole
321.2173	0.0726382628781721	23	diastole	11	B	500	systole
321.83730000000014	0.0726382628781721	23	diastole	12	B	500	systole
322.44690000000014	0.0726382628781721	23	diastole	13	B	500	systole
323.09069999999997	0.0726382628781721	23	diastole	14	B	500	systole
323.70720000000006	0.0726382628781721	23	diastole	15	B	500	systole
324.30729999999994	0.0726382628781721	23	diastole	16	B	500	systole
324.91730000000007	0.0726382628781721	23	diastole	17	B	500	systole
327.3206	0.0750084717292338	24	diastole	1	B	500	diastole
327.90049999999997	0.0750084717292338	24	diastole	2	B	500	diastole
328.46219999999994	0.0750084717292338	24	diastole	3	B	500	diastole
329.02379999999994	0.0750084717292338	24	diastole	4	B	500	diastole
329.57550000000015	0.0750084717292338	24	diastole	5	B	500	diastole
330.13509999999997	0.0750084717292338	24	diastole	6	B	500	diastole
330.6867	0.0750084717292338	24	diastole	7	B	500	diastole
331.22849999999994	0.0750084717292338	24	diastole	8	B	500	diastole
331.7786000000001	0.0750084717292338	24	diastole	9	B	500	diastole
332.34030000000007	0.0750084717292338	24	diastole	10	B	500	diastole
332.9103	0.0750084717292338	24	diastole	11	B	500	diastole
333.49029999999993	0.0750084717292338	24	diastole	12	B	500	diastole
333.96209999999996	0.0750084717292338	24	diastole	13	B	500	diastole
334.62170000000015	0.0750084717292338	24	diastole	14	B	500	diastole
335.28150000000005	0.0750084717292338	24	diastole	15	B	500	diastole
336.04840000000013	0.0750084717292338	24	diastole	16	B	500	diastole
336.7767000000001	0.0750084717292338	24	diastole	17	B	500	diastole
339.26700000000005	0.0831215060316026	25	diastole	1	B	500	diastole
339.89689999999996	0.0831215060316026	25	diastole	2	B	500	diastole
340.5268000000001	0.0831215060316026	25	diastole	3	B	500	diastole
341.1368	0.0831215060316026	25	diastole	4	B	500	diastole
341.73680000000013	0.0831215060316026	25	diastole	5	B	500	diastole
342.29189999999994	0.0831215060316026	25	diastole	6	B	500	diastole
342.80189999999993	0.0831215060316026	25	diastole	7	B	500	diastole
343.3620000000001	0.0831215060316026	25	diastole	8	B	500	diastole
343.9171000000001	0.0831215060316026	25	diastole	9	B	500	diastole
344.47350000000006	0.0831215060316026	25	diastole	10	B	500	diastole
345.0453	0.0831215060316026	25	diastole	11	B	500	diastole
345.6254000000001	0.0831215060316026	25	diastole	12	B	500	diastole
346.22540000000004	0.0831215060316026	25	diastole	13	B	500	diastole
346.85529999999994	0.0831215060316026	25	diastole	14	B	500	diastole
347.48530000000005	0.0831215060316026	25	diastole	15	B	500	diastole
348.11529999999993	0.0831215060316026	25	diastole	16	B	500	diastole
348.8003000000001	0.0831215060316026	25	diastole	17	B	500	diastole
350.6173000000001	0.0799978687427938	26	systole	1	B	500	diastole
351.2674999999999	0.0799978687427938	26	systole	2	B	500	diastole
351.9075	0.0799978687427938	26	systole	3	B	500	diastole
352.41730000000007	0.0799978687427938	26	systole	4	B	500	diastole
352.9271000000001	0.0799978687427938	26	systole	5	B	500	diastole
353.17730000000006	0.0799978687427938	26	systole	6	B	500	diastole
353.64149999999995	0.0799978687427938	26	systole	7	B	500	diastole
354.25559999999996	0.0799978687427938	26	systole	8	B	500	diastole
354.87570000000005	0.0799978687427938	26	systole	9	B	500	diastole
355.47230000000013	0.0799978687427938	26	systole	10	B	500	diastole
356.0733	0.0799978687427938	26	systole	11	B	500	diastole
356.69309999999996	0.0799978687427938	26	systole	12	B	500	diastole
357.3130000000001	0.0799978687427938	26	systole	13	B	500	diastole
357.9329	0.0799978687427938	26	systole	14	B	500	diastole
358.52150000000006	0.0799978687427938	26	systole	15	B	500	diastole
359.1214	0.0799978687427938	26	systole	16	B	500	diastole
359.7212999999999	0.0799978687427938	26	systole	17	B	500	diastole
360.32130000000006	0.0799978687427938	26	systole	18	B	500	diastole
363.16880000000015	0.0750076341209933	27	diastole	1	B	500	diastole
363.80899999999997	0.0750076341209933	27	diastole	2	B	500	diastole
364.4671000000001	0.0750076341209933	27	diastole	3	B	500	diastole
365.13210000000004	0.0750076341209933	27	diastole	4	B	500	diastole
365.7872	0.0750076341209933	27	diastole	5	B	500	diastole
366.4354000000001	0.0750076341209933	27	diastole	6	B	500	diastole
367.07539999999995	0.0750076341209933	27	diastole	7	B	500	diastole
367.69540000000006	0.0750076341209933	27	diastole	8	B	500	diastole
368.31539999999995	0.0750076341209933	27	diastole	9	B	500	diastole
368.9354000000001	0.0750076341209933	27	diastole	10	B	500	diastole
369.5553	0.0750076341209933	27	diastole	11	B	500	diastole
369.92010000000005	0.0750076341209933	27	diastole	12	B	500	diastole
370.5318	0.0750076341209933	27	diastole	13	B	500	diastole
371.1518000000001	0.0750076341209933	27	diastole	14	B	500	diastole
371.77189999999996	0.0750076341209933	27	diastole	15	B	500	diastole
375.9104	0.0781229065032675	28	diastole	1	B	500	diastole
376.51030000000014	0.0781229065032675	28	diastole	2	B	500	diastole
377.16859999999997	0.0781229065032675	28	diastole	3	B	500	diastole
377.83529999999996	0.0781229065032675	28	diastole	4	B	500	diastole
378.5019	0.0781229065032675	28	diastole	5	B	500	diastole
379.15190000000007	0.0781229065032675	28	diastole	6	B	500	diastole
379.80189999999993	0.0781229065032675	28	diastole	7	B	500	diastole
380.44180000000006	0.0781229065032675	28	diastole	8	B	500	diastole
381.0733	0.0781229065032675	28	diastole	9	B	500	diastole
381.7031999999999	0.0781229065032675	28	diastole	10	B	500	diastole
382.3133	0.0781229065032675	28	diastole	11	B	500	diastole
382.9235000000001	0.0781229065032675	28	diastole	12	B	500	diastole
383.5350000000001	0.0781229065032675	28	diastole	13	B	500	diastole
384.13660000000004	0.0781229065032675	28	diastole	14	B	500	diastole
384.73209999999995	0.0781229065032675	28	diastole	15	B	500	diastole
387.8401000000001	0.0773757059359923	29	diastole	1	B	500	diastole
388.4597000000001	0.0773757059359923	29	diastole	2	B	500	diastole
389.0792000000001	0.0773757059359923	29	diastole	3	B	500	diastole
389.5624	0.0773757059359923	29	diastole	4	B	500	diastole
390.0521000000001	0.0773757059359923	29	diastole	5	B	500	diastole
390.28960000000006	0.0773757059359923	29	diastole	6	B	500	diastole
390.76300000000015	0.0773757059359923	29	diastole	7	B	500	diastole
391.3378	0.0773757059359923	29	diastole	8	B	500	diastole
391.9276	0.0773757059359923	29	diastole	9	B	500	diastole
392.5276000000001	0.0773757059359923	29	diastole	10	B	500	diastole
393.12810000000013	0.0773757059359923	29	diastole	11	B	500	diastole
393.701	0.0773757059359923	29	diastole	12	B	500	diastole
394.29110000000014	0.0773757059359923	29	diastole	13	B	500	diastole
394.88120000000004	0.0773757059359923	29	diastole	14	B	500	diastole
395.47119999999995	0.0773757059359923	29	diastole	15	B	500	diastole
396.0613000000001	0.0773757059359923	29	diastole	16	B	500	diastole
396.63290000000006	0.0773757059359923	29	diastole	17	B	500	diastole
398.87879999999996	0.0749908623984083	30	systole	1	B	500	diastole
399.49890000000005	0.0749908623984083	30	systole	2	B	500	diastole
400.1249	0.0749908623984083	30	systole	3	B	500	diastole
400.7405000000001	0.0749908623984083	30	systole	4	B	500	diastole
401.36630000000014	0.0749908623984083	30	systole	5	B	500	diastole
401.97630000000004	0.0749908623984083	30	systole	6	B	500	diastole
402.58640000000014	0.0749908623984083	30	systole	7	B	500	diastole
403.19600000000014	0.0749908623984083	30	systole	8	B	500	diastole
403.8004000000001	0.0749908623984083	30	systole	9	B	500	diastole
404.4104	0.0749908623984083	30	systole	10	B	500	diastole
405.0204000000001	0.0749908623984083	30	systole	11	B	500	diastole
405.6204	0.0749908623984083	30	systole	12	B	500	diastole
406.24029999999993	0.0749908623984083	30	systole	13	B	500	diastole
406.8402000000001	0.0749908623984083	30	systole	14	B	500	diastole
407.4402	0.0749908623984083	30	systole	15	B	500	diastole
408.0399	0.0749908623984083	30	systole	16	B	500	diastole
408.64980000000014	0.0749908623984083	30	systole	17	B	500	diastole
411.48720000000003	0.0756306374678388	31	diastole	1	B	500	diastole
412.1473000000001	0.0756306374678388	31	diastole	2	B	500	diastole
412.80729999999994	0.0756306374678388	31	diastole	3	B	500	diastole
413.0395000000001	0.0756306374678388	31	diastole	4	B	500	diastole
413.68049999999994	0.0756306374678388	31	diastole	5	B	500	diastole
414.3589999999999	0.0756306374678388	31	diastole	6	B	500	diastole
415.05420000000004	0.0756306374678388	31	diastole	7	B	500	diastole
415.72410000000013	0.0756306374678388	31	diastole	8	B	500	diastole
416.4090000000001	0.0756306374678388	31	diastole	9	B	500	diastole
417.0689	0.0756306374678388	31	diastole	10	B	500	diastole
417.7088000000001	0.0756306374678388	31	diastole	11	B	500	diastole
418.33220000000006	0.0756306374678388	31	diastole	12	B	500	diastole
418.96219999999994	0.0756306374678388	31	diastole	13	B	500	diastole
419.5923	0.0756306374678388	31	diastole	14	B	500	diastole
420.2124000000001	0.0756306374678388	31	diastole	15	B	500	diastole
422.2038	0.0793720453511923	32	systole	1	B	500	diastole
422.8537000000001	0.0793720453511923	32	systole	2	B	500	diastole
423.5036	0.0793720453511923	32	systole	3	B	500	diastole
424.1336000000001	0.0793720453511923	32	systole	4	B	500	diastole
424.7736	0.0793720453511923	32	systole	5	B	500	diastole
425.41949999999997	0.0793720453511923	32	systole	6	B	500	diastole
426.05960000000005	0.0793720453511923	32	systole	7	B	500	diastole
426.3497	0.0793720453511923	32	systole	8	B	500	diastole
426.63969999999995	0.0793720453511923	32	systole	9	B	500	diastole
426.9997000000001	0.0793720453511923	32	systole	10	B	500	diastole
427.2469000000001	0.0793720453511923	32	systole	11	B	500	diastole
427.36439999999993	0.0793720453511923	32	systole	12	B	500	diastole
427.5244	0.0793720453511923	32	systole	13	B	500	diastole
428.04320000000007	0.0793720453511923	32	systole	14	B	500	diastole
428.68319999999994	0.0793720453511923	32	systole	15	B	500	diastole
429.32320000000004	0.0793720453511923	32	systole	16	B	500	diastole
429.96320000000014	0.0793720453511923	32	systole	17	B	500	diastole
430.6032	0.0793720453511923	32	systole	18	B	500	diastole
431.44579999999996	0.0793720453511923	32	systole	19	B	500	diastole
432.09580000000005	0.0793720453511923	32	systole	20	B	500	diastole
434.4969000000001	0.0812471396056935	33	systole	1	B	500	systole
435.14689999999996	0.0812471396056935	33	systole	2	B	500	systole
435.78690000000006	0.0812471396056935	33	systole	3	B	500	systole
436.41679999999997	0.0812471396056935	33	systole	4	B	500	systole
437.06680000000006	0.0812471396056935	33	systole	5	B	500	systole
437.71680000000015	0.0812471396056935	33	systole	6	B	500	systole
438.3568	0.0812471396056935	33	systole	7	B	500	systole
438.9968000000001	0.0812471396056935	33	systole	8	B	500	systole
439.54110000000014	0.0812471396056935	33	systole	9	B	500	systole
440.09130000000005	0.0812471396056935	33	systole	10	B	500	systole
440.70939999999996	0.0812471396056935	33	systole	11	B	500	systole
441.37940000000003	0.0812471396056935	33	systole	12	B	500	systole
442.04960000000005	0.0812471396056935	33	systole	13	B	500	systole
442.71540000000005	0.0812471396056935	33	systole	14	B	500	systole
443.3769	0.0812471396056935	33	systole	15	B	500	systole
444.0268000000001	0.0812471396056935	33	systole	16	B	500	systole
446.7912000000001	0.0812588823027908	34	systole	1	B	500	diastole
447.4112	0.0812588823027908	34	systole	2	B	500	diastole
448.04549999999995	0.0812588823027908	34	systole	3	B	500	diastole
448.6852000000001	0.0812588823027908	34	systole	4	B	500	diastole
449.3251	0.0812588823027908	34	systole	5	B	500	diastole
449.9852000000001	0.0812588823027908	34	systole	6	B	500	diastole
450.64509999999996	0.0812588823027908	34	systole	7	B	500	diastole
451.3052	0.0812588823027908	34	systole	8	B	500	diastole
451.9652000000001	0.0812588823027908	34	systole	9	B	500	diastole
452.59529999999995	0.0812588823027908	34	systole	10	B	500	diastole
453.22530000000006	0.0812588823027908	34	systole	11	B	500	diastole
453.76559999999995	0.0812588823027908	34	systole	12	B	500	diastole
454.47710000000006	0.0812588823027908	34	systole	13	B	500	diastole
455.0771	0.0812588823027908	34	systole	14	B	500	diastole
455.3242	0.0812588823027908	34	systole	15	B	500	diastole
455.8769	0.0812588823027908	34	systole	16	B	500	diastole
456.4671000000001	0.0812588823027908	34	systole	17	B	500	diastole
458.9870000000001	0.0756275313906371	35	diastole	1	B	500	diastole
459.6252999999999	0.0756275313906371	35	diastole	2	B	500	diastole
460.25530000000003	0.0756275313906371	35	diastole	3	B	500	diastole
460.88530000000014	0.0756275313906371	35	diastole	4	B	500	diastole
461.5222000000001	0.0756275313906371	35	diastole	5	B	500	diastole
462.13200000000006	0.0756275313906371	35	diastole	6	B	500	diastole
462.7419	0.0756275313906371	35	diastole	7	B	500	diastole
463.3419000000001	0.0756275313906371	35	diastole	8	B	500	diastole
463.94190000000003	0.0756275313906371	35	diastole	9	B	500	diastole
464.53150000000005	0.0756275313906371	35	diastole	10	B	500	diastole
465.0962999999999	0.0756275313906371	35	diastole	11	B	500	diastole
465.68769999999995	0.0756275313906371	35	diastole	12	B	500	diastole
466.2877000000001	0.0756275313906371	35	diastole	13	B	500	diastole
466.7777000000001	0.0756275313906371	35	diastole	14	B	500	diastole
467.00919999999996	0.0756275313906371	35	diastole	15	B	500	diastole
467.49109999999996	0.0756275313906371	35	diastole	16	B	500	diastole
468.12110000000007	0.0756275313906371	35	diastole	17	B	500	diastole
470.80539999999996	0.0768785064574331	36	diastole	1	B	500	systole
471.4556	0.0768785064574331	36	diastole	2	B	500	systole
472.10390000000007	0.0768785064574331	36	diastole	3	B	500	systole
472.74379999999996	0.0768785064574331	36	diastole	4	B	500	systole
473.3439000000001	0.0768785064574331	36	diastole	5	B	500	systole
473.94399999999996	0.0768785064574331	36	diastole	6	B	500	systole
474.54380000000015	0.0768785064574331	36	diastole	7	B	500	systole
475.1437000000001	0.0768785064574331	36	diastole	8	B	500	systole
475.72710000000006	0.0768785064574331	36	diastole	9	B	500	systole
476.3271	0.0768785064574331	36	diastole	10	B	500	systole
476.8873000000001	0.0768785064574331	36	diastole	11	B	500	systole
477.51739999999995	0.0768785064574331	36	diastole	12	B	500	systole
478.16740000000004	0.0768785064574331	36	diastole	13	B	500	systole
478.62900000000013	0.0768785064574331	36	diastole	14	B	500	systole
479.27729999999997	0.0768785064574331	36	diastole	15	B	500	systole
479.91740000000004	0.0768785064574331	36	diastole	16	B	500	systole
482.59950000000003	0.0793711497681215	37	systole	1	B	500	diastole
482.8497	0.0793711497681215	37	systole	2	B	500	diastole
483.19990000000007	0.0793711497681215	37	systole	3	B	500	diastole
483.4761000000001	0.0793711497681215	37	systole	4	B	500	diastole
483.81650000000013	0.0793711497681215	37	systole	5	B	500	diastole
484.0466000000001	0.0793711497681215	37	systole	6	B	500	diastole
484.3595	0.0793711497681215	37	systole	7	B	500	diastole
484.8995	0.0793711497681215	37	systole	8	B	500	diastole
485.43949999999995	0.0793711497681215	37	systole	9	B	500	diastole
486.0295000000001	0.0793711497681215	37	systole	10	B	500	diastole
486.6195	0.0793711497681215	37	systole	11	B	500	diastole
487.33410000000003	0.0793711497681215	37	systole	12	B	500	diastole
487.9375	0.0793711497681215	37	systole	13	B	500	diastole
488.52750000000015	0.0793711497681215	37	systole	14	B	500	diastole
489.11760000000004	0.0793711497681215	37	systole	15	B	500	diastole
489.71309999999994	0.0793711497681215	37	systole	16	B	500	diastole
490.3030000000001	0.0793711497681215	37	systole	17	B	500	diastole
490.90869999999995	0.0793711497681215	37	systole	18	B	500	diastole
491.5087000000001	0.0793711497681215	37	systole	19	B	500	diastole
492.1087	0.0793711497681215	37	systole	20	B	500	diastole
494.55870000000004	0.0749949725577607	38	diastole	1	B	500	systole
495.17859999999996	0.0749949725577607	38	diastole	2	B	500	systole
495.7786000000001	0.0749949725577607	38	diastole	3	B	500	systole
496.3786	0.0749949725577607	38	diastole	4	B	500	systole
496.9968000000001	0.0749949725577607	38	diastole	5	B	500	systole
497.6068	0.0749949725577607	38	diastole	6	B	500	systole
498.22500000000014	0.0749949725577607	38	diastole	7	B	500	systole
498.82500000000005	0.0749949725577607	38	diastole	8	B	500	systole
499.4171000000001	0.0749949725577607	38	diastole	9	B	500	systole
499.91880000000015	0.0749949725577607	38	diastole	10	B	500	systole
500.1490000000001	0.0749949725577607	38	diastole	11	B	500	systole
500.6387	0.0749949725577607	38	diastole	12	B	500	systole
501.27880000000005	0.0749949725577607	38	diastole	13	B	500	systole
501.9171000000001	0.0749949725577607	38	diastole	14	B	500	systole
502.5688	0.0749949725577607	38	diastole	15	B	500	systole
503.2357999999999	0.0749949725577607	38	diastole	16	B	500	systole
503.88609999999994	0.0749949725577607	38	diastole	17	B	500	systole
506.3202000000001	0.0788726003374904	39	diastole	1	B	500	systole
506.88879999999995	0.0788726003374904	39	diastole	2	B	500	systole
507.4589000000001	0.0788726003374904	39	diastole	3	B	500	systole
508.03020000000015	0.0788726003374904	39	diastole	4	B	500	systole
508.5584000000001	0.0788726003374904	39	diastole	5	B	500	systole
509.12840000000006	0.0788726003374904	39	diastole	6	B	500	systole
509.6984	0.0788726003374904	39	diastole	7	B	500	systole
510.2252000000001	0.0788726003374904	39	diastole	8	B	500	systole
510.78520000000003	0.0788726003374904	39	diastole	9	B	500	systole
511.34529999999995	0.0788726003374904	39	diastole	10	B	500	systole
511.8887	0.0788726003374904	39	diastole	11	B	500	systole
512.4472000000001	0.0788726003374904	39	diastole	12	B	500	systole
512.9889000000001	0.0788726003374904	39	diastole	13	B	500	systole
513.5138	0.0788726003374904	39	diastole	14	B	500	systole
514.0454	0.0788726003374904	39	diastole	15	B	500	systole
514.5853999999999	0.0788726003374904	39	diastole	16	B	500	systole
515.1071	0.0788726003374904	39	diastole	17	B	500	systole
515.6188999999999	0.0788726003374904	39	diastole	18	B	500	systole
517.5922	0.0662417312851175	40	diastole	1	B	500	systole
518.1517000000001	0.0662417312851175	40	diastole	2	B	500	systole
518.7217	0.0662417312851175	40	diastole	3	B	500	systole
519.2917	0.0662417312851175	40	diastole	4	B	500	systole
519.8618000000001	0.0662417312851175	40	diastole	5	B	500	systole
520.5207	0.0662417312851175	40	diastole	6	B	500	systole
521.27	0.0662417312851175	40	diastole	7	B	500	systole
522.0140000000001	0.0662417312851175	40	diastole	8	B	500	systole
522.8008	0.0662417312851175	40	diastole	9	B	500	systole
523.5489	0.0662417312851175	40	diastole	10	B	500	systole
524.239	0.0662417312851175	40	diastole	11	B	500	systole
524.8954000000001	0.0662417312851175	40	diastole	12	B	500	systole
525.5454	0.0662417312851175	40	diastole	13	B	500	systole
526.1955	0.0662417312851175	40	diastole	14	B	500	systole
526.8455000000001	0.0662417312851175	40	diastole	15	B	500	systole
527.4955	0.0662417312851175	40	diastole	16	B	500	systole
529.7111	0.0812473902478814	41	systole	1	B	500	systole
530.2994000000001	0.0812473902478814	41	systole	2	B	500	systole
530.8993	0.0812473902478814	41	systole	3	B	500	systole
531.4778000000001	0.0812473902478814	41	systole	4	B	500	systole
532.0619000000002	0.0812473902478814	41	systole	5	B	500	systole
532.6402	0.0812473902478814	41	systole	6	B	500	systole
533.2486000000001	0.0812473902478814	41	systole	7	B	500	systole
533.8686	0.0812473902478814	41	systole	8	B	500	systole
534.4787000000001	0.0812473902478814	41	systole	9	B	500	systole
535.0887	0.0812473902478814	41	systole	10	B	500	systole
535.6568	0.0812473902478814	41	systole	11	B	500	systole
536.3068000000001	0.0812473902478814	41	systole	12	B	500	systole
536.9569000000001	0.0812473902478814	41	systole	13	B	500	systole
537.587	0.0812473902478814	41	systole	14	B	500	systole
538.2387000000001	0.0812473902478814	41	systole	15	B	500	systole
538.8862000000001	0.0812473902478814	41	systole	16	B	500	systole
542.3404	0.0787518136203289	42	diastole	1	B	500	systole
542.9504	0.0787518136203289	42	diastole	2	B	500	systole
543.5240000000001	0.0787518136203289	42	diastole	3	B	500	systole
544.1157000000001	0.0787518136203289	42	diastole	4	B	500	systole
544.7158	0.0787518136203289	42	diastole	5	B	500	systole
545.3357000000001	0.0787518136203289	42	diastole	6	B	500	systole
545.9657	0.0787518136203289	42	diastole	7	B	500	systole
546.5962	0.0787518136203289	42	diastole	8	B	500	systole
547.2266	0.0787518136203289	42	diastole	9	B	500	systole
547.8645000000001	0.0787518136203289	42	diastole	10	B	500	systole
548.1037000000001	0.0787518136203289	42	diastole	11	B	500	systole
548.2637	0.0787518136203289	42	diastole	12	B	500	systole
548.8040000000001	0.0787518136203289	42	diastole	13	B	500	systole
549.4041	0.0787518136203289	42	diastole	14	B	500	systole
550.0041000000001	0.0787518136203289	42	diastole	15	B	500	systole
550.5875000000001	0.0787518136203289	42	diastole	16	B	500	systole
551.1794	0.0787518136203289	42	diastole	17	B	500	systole
554.1688000000001	0.0750000374391675	43	systole	1	B	500	diastole
554.7686000000001	0.0750000374391675	43	systole	2	B	500	diastole
555.3685	0.0750000374391675	43	systole	3	B	500	diastole
555.9784	0.0750000374391675	43	systole	4	B	500	diastole
556.5883000000001	0.0750000374391675	43	systole	5	B	500	diastole
557.1883	0.0750000374391675	43	systole	6	B	500	diastole
557.7885000000001	0.0750000374391675	43	systole	7	B	500	diastole
558.3983000000001	0.0750000374391675	43	systole	8	B	500	diastole
559.0087000000001	0.0750000374391675	43	systole	9	B	500	diastole
559.6188999999999	0.0750000374391675	43	systole	10	B	500	diastole
560.2443000000001	0.0750000374391675	43	systole	11	B	500	diastole
560.8801000000001	0.0750000374391675	43	systole	12	B	500	diastole
561.51	0.0750000374391675	43	systole	13	B	500	diastole
562.1303	0.0750000374391675	43	systole	14	B	500	diastole
562.7656	0.0750000374391675	43	systole	15	B	500	diastole
563.3913	0.0750000374391675	43	systole	16	B	500	diastole
567.7527	0.0776098622009158	44	systole	1	B	500	systole
568.3522	0.0776098622009158	44	systole	2	B	500	systole
568.9525000000001	0.0776098622009158	44	systole	3	B	500	systole
569.5524	0.0776098622009158	44	systole	4	B	500	systole
570.1424	0.0776098622009158	44	systole	5	B	500	systole
570.7324000000001	0.0776098622009158	44	systole	6	B	500	systole
571.3166000000001	0.0776098622009158	44	systole	7	B	500	systole
571.8948	0.0776098622009158	44	systole	8	B	500	systole
572.4844	0.0776098622009158	44	systole	9	B	500	systole
573.0589	0.0776098622009158	44	systole	10	B	500	systole
573.627	0.0776098622009158	44	systole	11	B	500	systole
574.2070000000001	0.0776098622009158	44	systole	12	B	500	systole
574.777	0.0776098622009158	44	systole	13	B	500	systole
575.3473000000001	0.0776098622009158	44	systole	14	B	500	systole
575.9214999999999	0.0776098622009158	44	systole	15	B	500	systole
576.5114000000001	0.0776098622009158	44	systole	16	B	500	systole
577.1012000000001	0.0776098622009158	44	systole	17	B	500	systole
579.0788	0.0750029499176889	45	systole	1	B	500	systole
579.3109	0.0750029499176889	45	systole	2	B	500	systole
579.7688	0.0750029499176889	45	systole	3	B	500	systole
580.2988	0.0750029499176889	45	systole	4	B	500	systole
580.8288	0.0750029499176889	45	systole	5	B	500	systole
581.4187	0.0750029499176889	45	systole	6	B	500	systole
582.0028	0.0750029499176889	45	systole	7	B	500	systole
582.587	0.0750029499176889	45	systole	8	B	500	systole
583.1869000000002	0.0750029499176889	45	systole	9	B	500	systole
583.7869000000001	0.0750029499176889	45	systole	10	B	500	systole
584.3867	0.0750029499176889	45	systole	11	B	500	systole
584.9866999999999	0.0750029499176889	45	systole	12	B	500	systole
585.6167	0.0750029499176889	45	systole	13	B	500	systole
586.2683	0.0750029499176889	45	systole	14	B	500	systole
586.9083	0.0750029499176889	45	systole	15	B	500	systole
587.5584000000001	0.0750029499176889	45	systole	16	B	500	systole
588.2159000000001	0.0750029499176889	45	systole	17	B	500	systole
588.8734	0.0750029499176889	45	systole	18	B	500	systole
591.0584000000001	0.0787521187448874	46	diastole	1	B	500	diastole
591.6784	0.0787521187448874	46	diastole	2	B	500	diastole
592.3081999999999	0.0787521187448874	46	diastole	3	B	500	diastole
592.9381000000001	0.0787521187448874	46	diastole	4	B	500	diastole
593.5681	0.0787521187448874	46	diastole	5	B	500	diastole
594.1981000000001	0.0787521187448874	46	diastole	6	B	500	diastole
594.838	0.0787521187448874	46	diastole	7	B	500	diastole
595.4680000000001	0.0787521187448874	46	diastole	8	B	500	diastole
596.108	0.0787521187448874	46	diastole	9	B	500	diastole
596.7583999999999	0.0787521187448874	46	diastole	10	B	500	diastole
597.3881000000001	0.0787521187448874	46	diastole	11	B	500	diastole
598.0282	0.0787521187448874	46	diastole	12	B	500	diastole
598.6581000000001	0.0787521187448874	46	diastole	13	B	500	diastole
599.2881	0.0787521187448874	46	diastole	14	B	500	diastole
599.9182000000001	0.0787521187448874	46	diastole	15	B	500	diastole
600.5385000000001	0.0787521187448874	46	diastole	16	B	500	diastole
603.0581	0.0787499124417081	47	diastole	1	B	500	systole
603.6884	0.0787499124417081	47	diastole	2	B	500	systole
604.3184000000001	0.0787499124417081	47	diastole	3	B	500	systole
604.9380000000001	0.0787499124417081	47	diastole	4	B	500	systole
605.558	0.0787499124417081	47	diastole	5	B	500	systole
606.1777	0.0787499124417081	47	diastole	6	B	500	systole
606.7878000000001	0.0787499124417081	47	diastole	7	B	500	systole
607.4182000000001	0.0787499124417081	47	diastole	8	B	500	systole
608.0585000000001	0.0787499124417081	47	diastole	9	B	500	systole
608.6984	0.0787499124417081	47	diastole	10	B	500	systole
609.3284000000001	0.0787499124417081	47	diastole	11	B	500	systole
609.9584	0.0787499124417081	47	diastole	12	B	500	systole
610.5984000000001	0.0787499124417081	47	diastole	13	B	500	systole
611.2284	0.0787499124417081	47	diastole	14	B	500	systole
611.8485000000001	0.0787499124417081	47	diastole	15	B	500	systole
612.4684	0.0787499124417081	47	diastole	16	B	500	systole
614.7753	0.0768737064208835	48	diastole	1	B	500	diastole
615.3555000000001	0.0768737064208835	48	diastole	2	B	500	diastole
615.9470000000001	0.0768737064208835	48	diastole	3	B	500	diastole
616.5469	0.0768737064208835	48	diastole	4	B	500	diastole
617.1082000000001	0.0768737064208835	48	diastole	5	B	500	diastole
617.6781000000001	0.0768737064208835	48	diastole	6	B	500	diastole
618.2418	0.0768737064208835	48	diastole	7	B	500	diastole
618.8051	0.0768737064208835	48	diastole	8	B	500	diastole
619.385	0.0768737064208835	48	diastole	9	B	500	diastole
619.9650000000001	0.0768737064208835	48	diastole	10	B	500	diastole
620.5350000000001	0.0768737064208835	48	diastole	11	B	500	diastole
621.1149	0.0768737064208835	48	diastole	12	B	500	diastole
621.6949	0.0768737064208835	48	diastole	13	B	500	diastole
622.2565	0.0768737064208835	48	diastole	14	B	500	diastole
622.8268	0.0768737064208835	48	diastole	15	B	500	diastole
623.3969	0.0768737064208835	48	diastole	16	B	500	diastole
623.9569000000001	0.0768737064208835	48	diastole	17	B	500	diastole
627.7754	0.0706433275481686	49	diastole	1	B	500	systole
628.4954	0.0706433275481686	49	diastole	2	B	500	systole
629.2470000000001	0.0706433275481686	49	diastole	3	B	500	systole
630.0987	0.0706433275481686	49	diastole	4	B	500	systole
630.8088000000002	0.0706433275481686	49	diastole	5	B	500	systole
631.5071000000003	0.0706433275481686	49	diastole	6	B	500	systole
632.1770999999999	0.0706433275481686	49	diastole	7	B	500	systole
632.8470000000002	0.0706433275481686	49	diastole	8	B	500	systole
633.4769999999999	0.0706433275481686	49	diastole	9	B	500	systole
634.107	0.0706433275481686	49	diastole	10	B	500	systole
634.7370000000001	0.0706433275481686	49	diastole	11	B	500	systole
635.3670000000002	0.0706433275481686	49	diastole	12	B	500	systole
635.8618999999999	0.0706433275481686	49	diastole	13	B	500	systole
636.3886000000002	0.0706433275481686	49	diastole	14	B	500	systole
638.8193000000001	0.0718470499850809	50	systole	1	B	500	diastole
639.6289000000002	0.0718470499850809	50	systole	2	B	500	diastole
640.4385000000002	0.0718470499850809	50	systole	3	B	500	diastole
641.2685999999999	0.0718470499850809	50	systole	4	B	500	diastole
642.2454000000002	0.0718470499850809	50	systole	5	B	500	diastole
643.0950000000003	0.0718470499850809	50	systole	6	B	500	diastole
643.3631	0.0718470499850809	50	systole	7	B	500	diastole
643.5230999999999	0.0718470499850809	50	systole	8	B	500	diastole
644.2998000000002	0.0718470499850809	50	systole	9	B	500	diastole
645.2143999999998	0.0718470499850809	50	systole	10	B	500	diastole
646.1377000000002	0.0718470499850809	50	systole	11	B	500	diastole
647.0376000000001	0.0718470499850809	50	systole	12	B	500	diastole
647.8422	0.0718470499850809	50	systole	13	B	500	diastole
648.6118999999999	0.0718470499850809	50	systole	14	B	500	diastole
651.4751999999999	0.0987474569119513	51	diastole	1	B	500	diastole
652.1352999999999	0.0987474569119513	51	diastole	2	B	500	diastole
652.7382000000002	0.0987474569119513	51	diastole	3	B	500	diastole
653.3202000000001	0.0987474569119513	51	diastole	4	B	500	diastole
653.9169999999999	0.0987474569119513	51	diastole	5	B	500	diastole
654.4870999999998	0.0987474569119513	51	diastole	6	B	500	diastole
655.1073000000001	0.0987474569119513	51	diastole	7	B	500	diastole
655.7022999999999	0.0987474569119513	51	diastole	8	B	500	diastole
656.2689	0.0987474569119513	51	diastole	9	B	500	diastole
656.8690000000001	0.0987474569119513	51	diastole	10	B	500	diastole
657.4607000000001	0.0987474569119513	51	diastole	11	B	500	diastole
658.0520999999999	0.0987474569119513	51	diastole	12	B	500	diastole
658.6437999999998	0.0987474569119513	51	diastole	13	B	500	diastole
659.2438000000002	0.0987474569119513	51	diastole	14	B	500	diastole
659.8089	0.0987474569119513	51	diastole	15	B	500	diastole
663.1601	0.0756289813434705	52	systole	1	B	500	systole
663.7800000000002	0.0756289813434705	52	systole	2	B	500	systole
664.4000000000001	0.0756289813434705	52	systole	3	B	500	systole
665.0198	0.0756289813434705	52	systole	4	B	500	systole
665.6098999999999	0.0756289813434705	52	systole	5	B	500	systole
666.1941000000002	0.0756289813434705	52	systole	6	B	500	systole
666.7879000000003	0.0756289813434705	52	systole	7	B	500	systole
667.3521999999998	0.0756289813434705	52	systole	8	B	500	systole
667.9223000000002	0.0756289813434705	52	systole	9	B	500	systole
668.4965000000002	0.0756289813434705	52	systole	10	B	500	systole
669.0507000000002	0.0756289813434705	52	systole	11	B	500	systole
669.6107999999999	0.0756289813434705	52	systole	12	B	500	systole
670.1707999999999	0.0756289813434705	52	systole	13	B	500	systole
670.7294999999999	0.0756289813434705	52	systole	14	B	500	systole
671.2838999999999	0.0756289813434705	52	systole	15	B	500	systole
671.844	0.0756289813434705	52	systole	16	B	500	systole
672.4257000000002	0.0756289813434705	52	systole	17	B	500	systole
675.6251000000002	0.072470037266612	53	diastole	1	B	500	diastole
676.2365	0.072470037266612	53	diastole	2	B	500	diastole
676.8463999999999	0.072470037266612	53	diastole	3	B	500	diastole
677.4818	0.072470037266612	53	diastole	4	B	500	diastole
678.1016	0.072470037266612	53	diastole	5	B	500	diastole
678.7898	0.072470037266612	53	diastole	6	B	500	diastole
679.4697000000001	0.072470037266612	53	diastole	7	B	500	diastole
680.0962	0.072470037266612	53	diastole	8	B	500	diastole
680.7062000000001	0.072470037266612	53	diastole	9	B	500	diastole
681.3062	0.072470037266612	53	diastole	10	B	500	diastole
681.9061000000002	0.072470037266612	53	diastole	11	B	500	diastole
682.5061000000001	0.072470037266612	53	diastole	12	B	500	diastole
683.0978	0.072470037266612	53	diastole	13	B	500	diastole
683.6977000000002	0.072470037266612	53	diastole	14	B	500	diastole
684.2878000000001	0.072470037266612	53	diastole	15	B	500	diastole
686.8387000000002	0.0750026373425498	54	systole	1	B	500	diastole
687.4486999999999	0.0750026373425498	54	systole	2	B	500	diastole
688.0687000000003	0.0750026373425498	54	systole	3	B	500	diastole
688.7044000000001	0.0750026373425498	54	systole	4	B	500	diastole
689.3202000000001	0.0750026373425498	54	systole	5	B	500	diastole
689.9403000000002	0.0750026373425498	54	systole	6	B	500	diastole
690.5601999999999	0.0750026373425498	54	systole	7	B	500	diastole
691.1860999999999	0.0750026373425498	54	systole	8	B	500	diastole
691.8018999999999	0.0750026373425498	54	systole	9	B	500	diastole
692.4117999999999	0.0750026373425498	54	systole	10	B	500	diastole
693.0217000000002	0.0750026373425498	54	systole	11	B	500	diastole
693.6217000000001	0.0750026373425498	54	systole	12	B	500	diastole
694.1959999999999	0.0750026373425498	54	systole	13	B	500	diastole
694.7901999999999	0.0750026373425498	54	systole	14	B	500	diastole
695.3743	0.0750026373425498	54	systole	15	B	500	diastole
695.9485	0.0750026373425498	54	systole	16	B	500	diastole
698.4326000000001	0.0743732013506814	55	systole	1	B	500	systole
699.1028000000001	0.0743732013506814	55	systole	2	B	500	systole
699.7885999999999	0.0743732013506814	55	systole	3	B	500	systole
700.4877000000001	0.0743732013506814	55	systole	4	B	500	systole
701.1577000000002	0.0743732013506814	55	systole	5	B	500	systole
701.8276999999998	0.0743732013506814	55	systole	6	B	500	systole
702.5226000000002	0.0743732013506814	55	systole	7	B	500	systole
703.1824999999999	0.0743732013506814	55	systole	8	B	500	systole
703.8225000000002	0.0743732013506814	55	systole	9	B	500	systole
704.4625999999998	0.0743732013506814	55	systole	10	B	500	systole
705.1026999999999	0.0743732013506814	55	systole	11	B	500	systole
705.7127	0.0743732013506814	55	systole	12	B	500	systole
706.3211000000001	0.0743732013506814	55	systole	13	B	500	systole
706.9351999999999	0.0743732013506814	55	systole	14	B	500	systole
707.5495000000001	0.0743732013506814	55	systole	15	B	500	systole
711.2633999999998	0.0787354272324591	56	systole	1	B	500	diastole
711.893	0.0787354272324591	56	systole	2	B	500	diastole
712.511	0.0787354272324591	56	systole	3	B	500	diastole
713.1289000000002	0.0787354272324591	56	systole	4	B	500	diastole
713.7388999999998	0.0787354272324591	56	systole	5	B	500	diastole
714.3489	0.0787354272324591	56	systole	6	B	500	diastole
714.9688000000001	0.0787354272324591	56	systole	7	B	500	diastole
715.2127	0.0787354272324591	56	systole	8	B	500	diastole
715.3652000000002	0.0787354272324591	56	systole	9	B	500	diastole
715.8602000000001	0.0787354272324591	56	systole	10	B	500	diastole
716.4803000000002	0.0787354272324591	56	systole	11	B	500	diastole
717.1005	0.0787354272324591	56	systole	12	B	500	diastole
717.7206000000001	0.0787354272324591	56	systole	13	B	500	diastole
718.3407000000002	0.0787354272324591	56	systole	14	B	500	diastole
718.9720000000002	0.0787354272324591	56	systole	15	B	500	diastole
719.6019999999999	0.0787354272324591	56	systole	16	B	500	diastole
720.2278000000001	0.0787354272324591	56	systole	17	B	500	diastole
723.0821000000001	0.0775110140675678	57	systole	1	B	500	systole
723.7197000000001	0.0775110140675678	57	systole	2	B	500	systole
724.3220999999999	0.0775110140675678	57	systole	3	B	500	systole
724.9238	0.0775110140675678	57	systole	4	B	500	systole
725.5221000000001	0.0775110140675678	57	systole	5	B	500	systole
726.1062999999999	0.0775110140675678	57	systole	6	B	500	systole
726.6963000000001	0.0775110140675678	57	systole	7	B	500	systole
727.2669000000001	0.0775110140675678	57	systole	8	B	500	systole
727.8344999999999	0.0775110140675678	57	systole	9	B	500	systole
728.4128000000001	0.0775110140675678	57	systole	10	B	500	systole
728.9686999999999	0.0775110140675678	57	systole	11	B	500	systole
729.5302999999999	0.0775110140675678	57	systole	12	B	500	systole
730.0900999999999	0.0775110140675678	57	systole	13	B	500	systole
730.6615999999999	0.0775110140675678	57	systole	14	B	500	systole
731.2170000000001	0.0775110140675678	57	systole	15	B	500	systole
731.7870000000003	0.0775110140675678	57	systole	16	B	500	systole
732.3458	0.0775110140675678	57	systole	17	B	500	systole
734.578	0.0706311211688444	58	systole	1	B	500	systole
735.1840000000002	0.0706311211688444	58	systole	2	B	500	systole
735.7840999999999	0.0706311211688444	58	systole	3	B	500	systole
736.3854000000001	0.0706311211688444	58	systole	4	B	500	systole
736.9911000000002	0.0706311211688444	58	systole	5	B	500	systole
737.5971	0.0706311211688444	58	systole	6	B	500	systole
738.1970999999999	0.0706311211688444	58	systole	7	B	500	systole
738.7971000000002	0.0706311211688444	58	systole	8	B	500	systole
739.4031	0.0706311211688444	58	systole	9	B	500	systole
740.0086999999999	0.0706311211688444	58	systole	10	B	500	systole
740.6088	0.0706311211688444	58	systole	11	B	500	systole
741.2087999999999	0.0706311211688444	58	systole	12	B	500	systole
741.8088000000002	0.0706311211688444	58	systole	13	B	500	systole
742.3888999999999	0.0706311211688444	58	systole	14	B	500	systole
742.9886999999999	0.0706311211688444	58	systole	15	B	500	systole
743.5687000000003	0.0706311211688444	58	systole	16	B	500	systole
744.1487000000002	0.0706311211688444	58	systole	17	B	500	systole
746.6071000000002	0.0724964687833562	59	diastole	1	B	500	systole
747.1570000000002	0.0724964687833562	59	diastole	2	B	500	systole
747.6988000000001	0.0724964687833562	59	diastole	3	B	500	systole
748.2222000000002	0.0724964687833562	59	diastole	4	B	500	systole
748.7721000000001	0.0724964687833562	59	diastole	5	B	500	systole
749.3220999999999	0.0724964687833562	59	diastole	6	B	500	systole
749.8721	0.0724964687833562	59	diastole	7	B	500	systole
750.4337	0.0724964687833562	59	diastole	8	B	500	systole
751.0237000000002	0.0724964687833562	59	diastole	9	B	500	systole
751.6637000000001	0.0724964687833562	59	diastole	10	B	500	systole
752.3238999999999	0.0724964687833562	59	diastole	11	B	500	systole
752.9841000000001	0.0724964687833562	59	diastole	12	B	500	systole
753.7221	0.0724964687833562	59	diastole	13	B	500	systole
754.4436000000001	0.0724964687833562	59	diastole	14	B	500	systole
755.4351999999999	0.0724964687833562	59	diastole	15	B	500	systole
758.2617	0.0967798623023554	60	systole	1	B	500	diastole
759.0607	0.0967798623023554	60	systole	2	B	500	diastole
759.8408	0.0967798623023554	60	systole	3	B	500	diastole
760.5607	0.0967798623023554	60	systole	4	B	500	diastole
761.2804999999998	0.0967798623023554	60	systole	5	B	500	diastole
761.906	0.0967798623023554	60	systole	6	B	500	diastole
762.5567999999998	0.0967798623023554	60	systole	7	B	500	diastole
763.2194	0.0967798623023554	60	systole	8	B	500	diastole
763.8778000000002	0.0967798623023554	60	systole	9	B	500	diastole
764.5477999999998	0.0967798623023554	60	systole	10	B	500	diastole
765.2177999999999	0.0967798623023554	60	systole	11	B	500	diastole
765.8878	0.0967798623023554	60	systole	12	B	500	diastole
766.5419999999999	0.0967798623023554	60	systole	13	B	500	diastole
767.2062000000001	0.0967798623023554	60	systole	14	B	500	diastole
770.2336	0.0843696632655337	61	diastole	1	B	500	systole
770.9238	0.0843696632655337	61	diastole	2	B	500	systole
771.614	0.0843696632655337	61	diastole	3	B	500	systole
772.3121999999998	0.0843696632655337	61	diastole	4	B	500	systole
772.9920999999999	0.0843696632655337	61	diastole	5	B	500	systole
773.6824999999999	0.0843696632655337	61	diastole	6	B	500	systole
774.3726000000001	0.0843696632655337	61	diastole	7	B	500	systole
775.0708	0.0843696632655337	61	diastole	8	B	500	systole
775.7608	0.0843696632655337	61	diastole	9	B	500	systole
776.469	0.0843696632655337	61	diastole	10	B	500	systole
777.1691000000001	0.0843696632655337	61	diastole	11	B	500	systole
777.8791000000001	0.0843696632655337	61	diastole	12	B	500	systole
778.5889999999999	0.0843696632655337	61	diastole	13	B	500	systole
779.2689	0.0843696632655337	61	diastole	14	B	500	systole
782.7067000000002	0.0874748365022242	62	diastole	1	B	500	systole
783.3768	0.0874748365022242	62	diastole	2	B	500	systole
784.0387999999998	0.0874748365022242	62	diastole	3	B	500	systole
784.7087000000001	0.0874748365022242	62	diastole	4	B	500	systole
785.3420999999998	0.0874748365022242	62	diastole	5	B	500	systole
785.9920999999999	0.0874748365022242	62	diastole	6	B	500	systole
786.6253000000002	0.0874748365022242	62	diastole	7	B	500	systole
787.2651000000001	0.0874748365022242	62	diastole	8	B	500	systole
787.9051	0.0874748365022242	62	diastole	9	B	500	systole
788.5286999999998	0.0874748365022242	62	diastole	10	B	500	systole
789.1620000000003	0.0874748365022242	62	diastole	11	B	500	systole
789.8220000000001	0.0874748365022242	62	diastole	12	B	500	systole
790.482	0.0874748365022242	62	diastole	13	B	500	systole
791.1419999999998	0.0874748365022242	62	diastole	14	B	500	systole
791.7921000000001	0.0874748365022242	62	diastole	15	B	500	systole
793.9512	0.0812436437699943	63	systole	1	B	500	systole
794.5796	0.0812436437699943	63	systole	2	B	500	systole
795.1986000000002	0.0812436437699943	63	systole	3	B	500	systole
795.8384999999998	0.0812436437699943	63	systole	4	B	500	systole
796.4784	0.0812436437699943	63	systole	5	B	500	systole
797.1183999999998	0.0812436437699943	63	systole	6	B	500	systole
797.7427000000002	0.0812436437699943	63	systole	7	B	500	systole
798.3926999999999	0.0812436437699943	63	systole	8	B	500	systole
799.0427	0.0812436437699943	63	systole	9	B	500	systole
799.7185	0.0812436437699943	63	systole	10	B	500	systole
800.4193	0.0812436437699943	63	systole	11	B	500	systole
801.1252	0.0812436437699943	63	systole	12	B	500	systole
801.8251	0.0812436437699943	63	systole	13	B	500	systole
802.5409	0.0812436437699943	63	systole	14	B	500	systole
803.2528000000002	0.0812436437699943	63	systole	15	B	500	systole
806.4767999999999	0.0868727313354611	64	diastole	1	B	500	diastole
807.1668	0.0868727313354611	64	diastole	2	B	500	diastole
807.8566999999998	0.0868727313354611	64	diastole	3	B	500	diastole
808.5183999999999	0.0868727313354611	64	diastole	4	B	500	diastole
809.1985	0.0868727313354611	64	diastole	5	B	500	diastole
809.8584000000001	0.0868727313354611	64	diastole	6	B	500	diastole
810.5183000000002	0.0868727313354611	64	diastole	7	B	500	diastole
811.1617999999999	0.0868727313354611	64	diastole	8	B	500	diastole
811.8133000000003	0.0868727313354611	64	diastole	9	B	500	diastole
812.4567000000002	0.0868727313354611	64	diastole	10	B	500	diastole
813.1084000000001	0.0868727313354611	64	diastole	11	B	500	diastole
813.7683999999999	0.0868727313354611	64	diastole	12	B	500	diastole
814.4466000000002	0.0868727313354611	64	diastole	13	B	500	diastole
815.1367	0.0868727313354611	64	diastole	14	B	500	diastole
817.6678999999999	0.0849040994653478	65	systole	1	B	500	systole
818.3636999999999	0.0849040994653478	65	systole	2	B	500	systole
819.0538000000001	0.0849040994653478	65	systole	3	B	500	systole
819.7337000000002	0.0849040994653478	65	systole	4	B	500	systole
820.4133999999999	0.0849040994653478	65	systole	5	B	500	systole
821.0834	0.0849040994653478	65	systole	6	B	500	systole
821.7377000000001	0.0849040994653478	65	systole	7	B	500	systole
822.4117999999999	0.0849040994653478	65	systole	8	B	500	systole
823.0918999999999	0.0849040994653478	65	systole	9	B	500	systole
823.7719000000002	0.0849040994653478	65	systole	10	B	500	systole
824.462	0.0849040994653478	65	systole	11	B	500	systole
825.1619000000001	0.0849040994653478	65	systole	12	B	500	systole
825.8672999999999	0.0849040994653478	65	systole	13	B	500	systole
826.5669000000003	0.0849040994653478	65	systole	14	B	500	systole
827.2528000000002	0.0849040994653478	65	systole	15	B	500	systole
831.1551	0.0874933811137452	66	diastole	1	B	500	systole
831.8552	0.0874933811137452	66	diastole	2	B	500	systole
832.5752000000002	0.0874933811137452	66	diastole	3	B	500	systole
833.2952	0.0874933811137452	66	diastole	4	B	500	systole
834.0153	0.0874933811137452	66	diastole	5	B	500	systole
834.7152000000001	0.0874933811137452	66	diastole	6	B	500	systole
835.4151000000002	0.0874933811137452	66	diastole	7	B	500	systole
836.0952000000002	0.0874933811137452	66	diastole	8	B	500	systole
836.7754	0.0874933811137452	66	diastole	9	B	500	systole
837.4553999999998	0.0874933811137452	66	diastole	10	B	500	systole
838.1251000000002	0.0874933811137452	66	diastole	11	B	500	systole
838.7950000000001	0.0874933811137452	66	diastole	12	B	500	systole
839.4303	0.0874933811137452	66	diastole	13	B	500	systole
842.4602	0.0837614237098023	67	systole	1	B	500	diastole
843.1303000000003	0.0837614237098023	67	systole	2	B	500	diastole
843.8004000000001	0.0837614237098023	67	systole	3	B	500	diastole
844.4962	0.0837614237098023	67	systole	4	B	500	diastole
845.1919000000003	0.0837614237098023	67	systole	5	B	500	diastole
845.8818999999999	0.0837614237098023	67	systole	6	B	500	diastole
846.5718000000002	0.0837614237098023	67	systole	7	B	500	diastole
847.2618000000002	0.0837614237098023	67	systole	8	B	500	diastole
847.9317999999998	0.0837614237098023	67	systole	9	B	500	diastole
848.6019000000001	0.0837614237098023	67	systole	10	B	500	diastole
849.2619	0.0837614237098023	67	systole	11	B	500	diastole
849.9004	0.0837614237098023	67	systole	12	B	500	diastole
850.5502999999999	0.0837614237098023	67	systole	13	B	500	diastole
851.2004000000002	0.0837614237098023	67	systole	14	B	500	diastole
854.9252999999999	0.0837350152432918	68	diastole	1	B	500	diastole
855.5954000000002	0.0837350152432918	68	diastole	2	B	500	diastole
856.2656000000002	0.0837350152432918	68	diastole	3	B	500	diastole
856.9356000000002	0.0837350152432918	68	diastole	4	B	500	diastole
857.6039999999998	0.0837350152432918	68	diastole	5	B	500	diastole
858.2725	0.0837350152432918	68	diastole	6	B	500	diastole
858.9225000000001	0.0837350152432918	68	diastole	7	B	500	diastole
859.5839999999998	0.0837350152432918	68	diastole	8	B	500	diastole
860.2309	0.0837350152432918	68	diastole	9	B	500	diastole
860.8793000000001	0.0837350152432918	68	diastole	10	B	500	diastole
861.5140999999999	0.0837350152432918	68	diastole	11	B	500	diastole
862.1736999999998	0.0837350152432918	68	diastole	12	B	500	diastole
862.8155999999999	0.0837350152432918	68	diastole	13	B	500	diastole
863.4657000000002	0.0837350152432918	68	diastole	14	B	500	diastole
867.1945000000001	0.0824954687850549	69	systole	1	B	500	diastole
867.8744999999999	0.0824954687850549	69	systole	2	B	500	diastole
868.5502999999999	0.0824954687850549	69	systole	3	B	500	diastole
869.2203	0.0824954687850549	69	systole	4	B	500	diastole
869.8704000000002	0.0824954687850549	69	systole	5	B	500	diastole
870.5203999999999	0.0824954687850549	69	systole	6	B	500	diastole
871.1704	0.0824954687850549	69	systole	7	B	500	diastole
871.8204999999998	0.0824954687850549	69	systole	8	B	500	diastole
872.4346	0.0824954687850549	69	systole	9	B	500	diastole
873.0545999999999	0.0824954687850549	69	systole	10	B	500	diastole
873.663	0.0824954687850549	69	systole	11	B	500	diastole
874.277	0.0824954687850549	69	systole	12	B	500	diastole
874.8969999999999	0.0824954687850549	69	systole	13	B	500	diastole
875.5952000000002	0.0824954687850549	69	systole	14	B	500	diastole
876.3052000000002	0.0824954687850549	69	systole	15	B	500	diastole
878.9845	0.0900071482174098	70	systole	1	B	500	diastole
879.7044999999998	0.0900071482174098	70	systole	2	B	500	diastole
880.4043999999999	0.0900071482174098	70	systole	3	B	500	diastole
881.1042000000002	0.0900071482174098	70	systole	4	B	500	diastole
881.7844	0.0900071482174098	70	systole	5	B	500	diastole
882.4646000000002	0.0900071482174098	70	systole	6	B	500	diastole
883.1448	0.0900071482174098	70	systole	7	B	500	diastole
883.8249999999998	0.0900071482174098	70	systole	8	B	500	diastole
884.4142000000002	0.0900071482174098	70	systole	9	B	500	diastole
885.0441999999998	0.0900071482174098	70	systole	10	B	500	diastole
885.6260000000002	0.0900071482174098	70	systole	11	B	500	diastole
886.2660999999998	0.0900071482174098	70	systole	12	B	500	diastole
886.9160999999999	0.0900071482174098	70	systole	13	B	500	diastole
887.576	0.0900071482174098	70	systole	14	B	500	diastole
888.2359999999999	0.0900071482174098	70	systole	15	B	500	diastole
890.8244	0.082493812427856	71	systole	1	B	500	diastole
891.5155	0.082493812427856	71	systole	2	B	500	diastole
892.1658000000002	0.082493812427856	71	systole	3	B	500	diastole
892.8074999999999	0.082493812427856	71	systole	4	B	500	diastole
893.4474	0.082493812427856	71	systole	5	B	500	diastole
894.0873000000001	0.082493812427856	71	systole	6	B	500	diastole
894.7058999999999	0.082493812427856	71	systole	7	B	500	diastole
895.3244	0.082493812427856	71	systole	8	B	500	diastole
895.9225999999999	0.082493812427856	71	systole	9	B	500	diastole
896.5003999999999	0.082493812427856	71	systole	10	B	500	diastole
897.0844000000002	0.082493812427856	71	systole	11	B	500	diastole
897.6745000000001	0.082493812427856	71	systole	12	B	500	diastole
898.2332000000001	0.082493812427856	71	systole	13	B	500	diastole
898.8022999999998	0.082493812427856	71	systole	14	B	500	diastole
899.3906999999999	0.082493812427856	71	systole	15	B	500	diastole
899.9906999999998	0.082493812427856	71	systole	16	B	500	diastole
903.3265999999999	0.0750100968871265	72	diastole	1	B	500	diastole
903.9567999999999	0.0750100968871265	72	diastole	2	B	500	diastole
904.6133	0.0750100968871265	72	diastole	3	B	500	diastole
905.2718	0.0750100968871265	72	diastole	4	B	500	diastole
905.9302000000002	0.0750100968871265	72	diastole	5	B	500	diastole
906.6069000000002	0.0750100968871265	72	diastole	6	B	500	diastole
907.2834000000003	0.0750100968871265	72	diastole	7	B	500	diastole
907.9416000000001	0.0750100968871265	72	diastole	8	B	500	diastole
908.5916000000002	0.0750100968871265	72	diastole	9	B	500	diastole
909.2217	0.0750100968871265	72	diastole	10	B	500	diastole
909.8716	0.0750100968871265	72	diastole	11	B	500	diastole
910.5115999999998	0.0750100968871265	72	diastole	12	B	500	diastole
911.1516000000001	0.0750100968871265	72	diastole	13	B	500	diastole
911.7916	0.0750100968871265	72	diastole	14	B	500	diastole
914.8886000000002	0.08186268620193	73	systole	1	B	500	systole
915.5644000000002	0.08186268620193	73	systole	2	B	500	systole
916.2245000000003	0.08186268620193	73	systole	3	B	500	systole
916.8845999999999	0.08186268620193	73	systole	4	B	500	systole
917.5349000000001	0.08186268620193	73	systole	5	B	500	systole
918.1545999999998	0.08186268620193	73	systole	6	B	500	systole
918.7849000000001	0.08186268620193	73	systole	7	B	500	systole
919.4151999999999	0.08186268620193	73	systole	8	B	500	systole
920.0187999999998	0.08186268620193	73	systole	9	B	500	systole
920.598	0.08186268620193	73	systole	10	B	500	systole
921.2001	0.08186268620193	73	systole	11	B	500	systole
921.7606000000001	0.08186268620193	73	systole	12	B	500	systole
922.3510999999999	0.08186268620193	73	systole	13	B	500	systole
922.9403000000002	0.08186268620193	73	systole	14	B	500	systole
923.5504999999998	0.08186268620193	73	systole	15	B	500	systole
924.1606999999999	0.08186268620193	73	systole	16	B	500	systole
926.8133000000003	0.0768853626213967	74	systole	1	B	500	diastole
927.4650000000001	0.0768853626213967	74	systole	2	B	500	diastole
928.105	0.0768853626213967	74	systole	3	B	500	diastole
928.7350999999999	0.0768853626213967	74	systole	4	B	500	diastole
929.3651	0.0768853626213967	74	systole	5	B	500	diastole
929.9951000000001	0.0768853626213967	74	systole	6	B	500	diastole
930.625	0.0768853626213967	74	systole	7	B	500	diastole
931.2649000000001	0.0768853626213967	74	systole	8	B	500	diastole
931.9049	0.0768853626213967	74	systole	9	B	500	diastole
932.5547999999999	0.0768853626213967	74	systole	10	B	500	diastole
933.2049000000002	0.0768853626213967	74	systole	11	B	500	diastole
933.9347000000002	0.0768853626213967	74	systole	12	B	500	diastole
934.6646000000001	0.0768853626213967	74	systole	13	B	500	diastole
935.4409	0.0768853626213967	74	systole	14	B	500	diastole
936.2397000000001	0.0768853626213967	74	systole	15	B	500	diastole
939.4477000000002	0.0931241747457534	75	systole	1	B	500	systole
940.1779999999999	0.0931241747457534	75	systole	2	B	500	systole
940.8980000000001	0.0931241747457534	75	systole	3	B	500	systole
941.6078000000002	0.0931241747457534	75	systole	4	B	500	systole
942.2910000000002	0.0931241747457534	75	systole	5	B	500	systole
942.9745000000003	0.0931241747457534	75	systole	6	B	500	systole
943.6640000000002	0.0931241747457534	75	systole	7	B	500	systole
944.3535999999999	0.0931241747457534	75	systole	8	B	500	systole
945.0014000000001	0.0931241747457534	75	systole	9	B	500	systole
945.6605	0.0931241747457534	75	systole	10	B	500	systole
946.2873	0.0931241747457534	75	systole	11	B	500	systole
946.9611	0.0931241747457534	75	systole	12	B	500	systole
947.6255999999998	0.0931241747457534	75	systole	13	B	500	systole
948.2957000000001	0.0931241747457534	75	systole	14	B	500	systole
948.9658	0.0931241747457534	75	systole	15	B	500	systole
952.7683999999999	0.0856256316183134	76	diastole	1	B	500	diastole
953.4767999999999	0.0856256316183134	76	diastole	2	B	500	diastole
954.1768000000002	0.0856256316183134	76	diastole	3	B	500	diastole
954.895	0.0856256316183134	76	diastole	4	B	500	diastole
955.585	0.0856256316183134	76	diastole	5	B	500	diastole
956.2750000000001	0.0856256316183134	76	diastole	6	B	500	diastole
956.9650999999999	0.0856256316183134	76	diastole	7	B	500	diastole
957.6469999999999	0.0856256316183134	76	diastole	8	B	500	diastole
958.337	0.0856256316183134	76	diastole	9	B	500	diastole
959.0169000000001	0.0856256316183134	76	diastole	10	B	500	diastole
959.6783	0.0856256316183134	76	diastole	11	B	500	diastole
960.3382000000001	0.0856256316183134	76	diastole	12	B	500	diastole
960.9899	0.0856256316183134	76	diastole	13	B	500	diastole
964.5540999999998	0.0825017081806436	77	systole	1	B	500	systole
965.2339999999999	0.0825017081806436	77	systole	2	B	500	systole
965.9340000000002	0.0825017081806436	77	systole	3	B	500	systole
966.6759999999999	0.0825017081806436	77	systole	4	B	500	systole
967.4063000000001	0.0825017081806436	77	systole	5	B	500	systole
968.1419999999998	0.0825017081806436	77	systole	6	B	500	systole
968.8818000000001	0.0825017081806436	77	systole	7	B	500	systole
969.5920999999998	0.0825017081806436	77	systole	8	B	500	systole
970.3236999999999	0.0825017081806436	77	systole	9	B	500	systole
970.9938999999999	0.0825017081806436	77	systole	10	B	500	systole
971.6640000000002	0.0825017081806436	77	systole	11	B	500	systole
972.3240999999998	0.0825017081806436	77	systole	12	B	500	systole
972.9938999999999	0.0825017081806436	77	systole	13	B	500	systole
976.8114	0.0856035067699849	78	diastole	1	B	500	systole
977.5030999999999	0.0856035067699849	78	diastole	2	B	500	systole
978.1718000000001	0.0856035067699849	78	diastole	3	B	500	systole
978.8798999999999	0.0856035067699849	78	diastole	4	B	500	systole
979.5698000000002	0.0856035067699849	78	diastole	5	B	500	systole
980.2499000000003	0.0856035067699849	78	diastole	6	B	500	systole
980.9198000000001	0.0856035067699849	78	diastole	7	B	500	systole
981.5615000000003	0.0856035067699849	78	diastole	8	B	500	systole
982.1932999999999	0.0856035067699849	78	diastole	9	B	500	systole
982.8216000000002	0.0856035067699849	78	diastole	10	B	500	systole
983.4515999999999	0.0856035067699849	78	diastole	11	B	500	systole
984.0432000000001	0.0856035067699849	78	diastole	12	B	500	systole
984.6297	0.0856035067699849	78	diastole	13	B	500	systole
985.2397000000001	0.0856035067699849	78	diastole	14	B	500	systole
985.7982000000002	0.0856035067699849	78	diastole	15	B	500	systole
988.6772999999998	0.0768846062710508	79	systole	1	B	500	systole
989.357	0.0768846062710508	79	systole	2	B	500	systole
990.1019999999999	0.0768846062710508	79	systole	3	B	500	systole
990.8193999999999	0.0768846062710508	79	systole	4	B	500	systole
991.5194000000001	0.0768846062710508	79	systole	5	B	500	systole
992.2310000000002	0.0768846062710508	79	systole	6	B	500	systole
992.9070000000002	0.0768846062710508	79	systole	7	B	500	systole
993.5671000000002	0.0768846062710508	79	systole	8	B	500	systole
994.2271999999998	0.0768846062710508	79	systole	9	B	500	systole
994.8870999999999	0.0768846062710508	79	systole	10	B	500	systole
995.547	0.0768846062710508	79	systole	11	B	500	systole
996.1437000000001	0.0768846062710508	79	systole	12	B	500	systole
996.7876999999999	0.0768846062710508	79	systole	13	B	500	systole
997.4218999999998	0.0768846062710508	79	systole	14	B	500	systole
998.0918999999999	0.0768846062710508	79	systole	15	B	500	systole
1002.3834000000002	0.0849977212492376	80	systole	1	B	500	systole
1003.1239	0.0849977212492376	80	systole	2	B	500	systole
1003.8643000000002	0.0849977212492376	80	systole	3	B	500	systole
1004.5718999999999	0.0849977212492376	80	systole	4	B	500	systole
1005.2622000000001	0.0849977212492376	80	systole	5	B	500	systole
1005.9122000000002	0.0849977212492376	80	systole	6	B	500	systole
1006.5621000000001	0.0849977212492376	80	systole	7	B	500	systole
1007.2021	0.0849977212492376	80	systole	8	B	500	systole
1007.8420999999998	0.0849977212492376	80	systole	9	B	500	systole
1008.4276	0.0849977212492376	80	systole	10	B	500	systole
1009.0241000000001	0.0849977212492376	80	systole	11	B	500	systole
1009.6190000000001	0.0849977212492376	80	systole	12	B	500	systole
1010.2373000000002	0.0849977212492376	80	systole	13	B	500	systole
1010.8555999999999	0.0849977212492376	80	systole	14	B	500	systole
1011.4780999999998	0.0849977212492376	80	systole	15	B	500	systole
1012.1361999999999	0.0849977212492376	80	systole	16	B	500	systole
1014.8953000000001	0.0787545293569564	81	systole	1	B	500	systole
1015.6549	0.0787545293569564	81	systole	2	B	500	systole
1016.4529000000002	0.0787545293569564	81	systole	3	B	500	systole
1017.2280000000001	0.0787545293569564	81	systole	4	B	500	systole
1017.9679000000001	0.0787545293569564	81	systole	5	B	500	systole
1018.6992	0.0787545293569564	81	systole	6	B	500	systole
1019.3892000000001	0.0787545293569564	81	systole	7	B	500	systole
1020.0792000000001	0.0787545293569564	81	systole	8	B	500	systole
1020.7496000000001	0.0787545293569564	81	systole	9	B	500	systole
1021.3708999999999	0.0787545293569564	81	systole	10	B	500	systole
1022.0214000000001	0.0787545293569564	81	systole	11	B	500	systole
1022.6325999999999	0.0787545293569564	81	systole	12	B	500	systole
1023.2726000000002	0.0787545293569564	81	systole	13	B	500	systole
1023.9104000000002	0.0787545293569564	81	systole	14	B	500	systole
1026.7999	0.0818804068258032	82	diastole	1	B	500	systole
1027.46	0.0818804068258032	82	diastole	2	B	500	systole
1028.12	0.0818804068258032	82	diastole	3	B	500	systole
1028.7699000000002	0.0818804068258032	82	diastole	4	B	500	systole
1029.4380999999998	0.0818804068258032	82	diastole	5	B	500	systole
1030.0877	0.0818804068258032	82	diastole	6	B	500	systole
1030.7298999999998	0.0818804068258032	82	diastole	7	B	500	systole
1031.3798000000002	0.0818804068258032	82	diastole	8	B	500	systole
1032.0018	0.0818804068258032	82	diastole	9	B	500	systole
1032.6322	0.0818804068258032	82	diastole	10	B	500	systole
1033.2817	0.0818804068258032	82	diastole	11	B	500	systole
1033.9135999999999	0.0818804068258032	82	diastole	12	B	500	systole
1034.5232999999998	0.0818804068258032	82	diastole	13	B	500	systole
1035.1285000000003	0.0818804068258032	82	diastole	14	B	500	systole
1035.7484	0.0818804068258032	82	diastole	15	B	500	systole
1038.7613999999999	0.0774991604266688	83	diastole	1	B	500	systole
1039.391	0.0774991604266688	83	diastole	2	B	500	systole
1040.0405999999998	0.0774991604266688	83	diastole	3	B	500	systole
1040.6913	0.0774991604266688	83	diastole	4	B	500	systole
1041.3418000000001	0.0774991604266688	83	diastole	5	B	500	systole
1041.9923	0.0774991604266688	83	diastole	6	B	500	systole
1042.6602000000003	0.0774991604266688	83	diastole	7	B	500	systole
1043.3447999999999	0.0774991604266688	83	diastole	8	B	500	systole
1044.002	0.0774991604266688	83	diastole	9	B	500	systole
1044.6419999999998	0.0774991604266688	83	diastole	10	B	500	systole
1045.2820000000002	0.0774991604266688	83	diastole	11	B	500	systole
1045.922	0.0774991604266688	83	diastole	12	B	500	systole
1046.5520000000001	0.0774991604266688	83	diastole	13	B	500	systole
1047.1835	0.0774991604266688	83	diastole	14	B	500	systole
1047.8054000000002	0.0774991604266688	83	diastole	15	B	500	systole
1050.3264	0.0793658045586198	84	diastole	1	B	500	systole
1050.9664000000002	0.0793658045586198	84	diastole	2	B	500	systole
1051.6064000000001	0.0793658045586198	84	diastole	3	B	500	systole
1052.2545	0.0793658045586198	84	diastole	4	B	500	systole
1052.8845000000001	0.0793658045586198	84	diastole	5	B	500	systole
1053.5146	0.0793658045586198	84	diastole	6	B	500	systole
1054.1444999999999	0.0793658045586198	84	diastole	7	B	500	systole
1054.7744000000002	0.0793658045586198	84	diastole	8	B	500	systole
1055.4044	0.0793658045586198	84	diastole	9	B	500	systole
1056.0163000000002	0.0793658045586198	84	diastole	10	B	500	systole
1056.6182	0.0793658045586198	84	diastole	11	B	500	systole
1057.2282	0.0793658045586198	84	diastole	12	B	500	systole
1057.8282	0.0793658045586198	84	diastole	13	B	500	systole
1058.4283	0.0793658045586198	84	diastole	14	B	500	systole
1059.0300000000002	0.0793658045586198	84	diastole	15	B	500	systole
1059.6217000000001	0.0793658045586198	84	diastole	16	B	500	systole
1062.1664999999998	0.0743745673680678	85	systole	1	B	500	diastole
1062.7565	0.0743745673680678	85	systole	2	B	500	diastole
1063.3566	0.0743745673680678	85	systole	3	B	500	diastole
1063.9665	0.0743745673680678	85	systole	4	B	500	diastole
1064.6323000000002	0.0743745673680678	85	systole	5	B	500	diastole
1065.3323	0.0743745673680678	85	systole	6	B	500	diastole
1066.0639999999999	0.0743745673680678	85	systole	7	B	500	diastole
1066.784	0.0743745673680678	85	systole	8	B	500	diastole
1067.5423	0.0743745673680678	85	systole	9	B	500	diastole
1068.2957999999999	0.0743745673680678	85	systole	10	B	500	diastole
1069.0142	0.0743745673680678	85	systole	11	B	500	diastole
1069.8000000000002	0.0743745673680678	85	systole	12	B	500	diastole
1070.5407	0.0743745673680678	85	systole	13	B	500	diastole
1071.2406999999998	0.0743745673680678	85	systole	14	B	500	diastole
1071.9407	0.0743745673680678	85	systole	15	B	500	diastole
1074.5590000000002	0.0882285624975338	86	systole	1	B	500	diastole
1075.1889999999999	0.0882285624975338	86	systole	2	B	500	diastole
1075.8076999999998	0.0882285624975338	86	systole	3	B	500	diastole
1076.4355	0.0882285624975338	86	systole	4	B	500	diastole
1077.0482000000002	0.0882285624975338	86	systole	5	B	500	diastole
1077.6706	0.0882285624975338	86	systole	6	B	500	diastole
1078.335	0.0882285624975338	86	systole	7	B	500	diastole
1079.025	0.0882285624975338	86	systole	8	B	500	diastole
1079.7150000000001	0.0882285624975338	86	systole	9	B	500	diastole
1080.4249	0.0882285624975338	86	systole	10	B	500	diastole
1081.1631000000002	0.0882285624975338	86	systole	11	B	500	diastole
1081.9218	0.0882285624975338	86	systole	12	B	500	diastole
1082.6514000000002	0.0882285624975338	86	systole	13	B	500	diastole
1083.4200999999998	0.0882285624975338	86	systole	14	B	500	diastole
1084.1724	0.0882285624975338	86	systole	15	B	500	diastole
1087.5817000000002	0.0925010375212878	87	diastole	1	B	500	diastole
1088.3119000000002	0.0925010375212878	87	diastole	2	B	500	diastole
1089.042	0.0925010375212878	87	diastole	3	B	500	diastole
1089.7820000000002	0.0925010375212878	87	diastole	4	B	500	diastole
1090.5120000000002	0.0925010375212878	87	diastole	5	B	500	diastole
1091.2420000000002	0.0925010375212878	87	diastole	6	B	500	diastole
1091.9520000000002	0.0925010375212878	87	diastole	7	B	500	diastole
1092.672	0.0925010375212878	87	diastole	8	B	500	diastole
1093.3736	0.0925010375212878	87	diastole	9	B	500	diastole
1094.0835000000002	0.0925010375212878	87	diastole	10	B	500	diastole
1094.7932999999998	0.0925010375212878	87	diastole	11	B	500	diastole
1095.505	0.0925010375212878	87	diastole	12	B	500	diastole
1096.225	0.0925010375212878	87	diastole	13	B	500	diastole
1099.6254	0.0912620498565957	88	systole	1	B	500	diastole
1100.3554	0.0912620498565957	88	systole	2	B	500	diastole
1101.1111999999998	0.0912620498565957	88	systole	3	B	500	diastole
1101.8611999999998	0.0912620498565957	88	systole	4	B	500	diastole
1102.6015000000002	0.0912620498565957	88	systole	5	B	500	diastole
1103.3116	0.0912620498565957	88	systole	6	B	500	diastole
1104.0115	0.0912620498565957	88	systole	7	B	500	diastole
1104.7116	0.0912620498565957	88	systole	8	B	500	diastole
1105.4157	0.0912620498565957	88	systole	9	B	500	diastole
1106.1399000000001	0.0912620498565957	88	systole	10	B	500	diastole
1106.8382000000001	0.0912620498565957	88	systole	11	B	500	diastole
1107.5482000000002	0.0912620498565957	88	systole	12	B	500	diastole
1108.2783	0.0912620498565957	88	systole	13	B	500	diastole
1111.5564	0.0893754812423139	89	diastole	1	B	500	systole
1112.2862	0.0893754812423139	89	diastole	2	B	500	systole
1112.9963000000002	0.0893754812423139	89	diastole	3	B	500	systole
1113.7080999999998	0.0893754812423139	89	diastole	4	B	500	systole
1114.4279999999999	0.0893754812423139	89	diastole	5	B	500	systole
1115.1480000000001	0.0893754812423139	89	diastole	6	B	500	systole
1115.8481000000002	0.0893754812423139	89	diastole	7	B	500	systole
1116.5479	0.0893754812423139	89	diastole	8	B	500	systole
1117.2196	0.0893754812423139	89	diastole	9	B	500	systole
1117.8931000000002	0.0893754812423139	89	diastole	10	B	500	systole
1118.5729999999999	0.0893754812423139	89	diastole	11	B	500	systole
1119.2547	0.0893754812423139	89	diastole	12	B	500	systole
1119.9261999999999	0.0893754812423139	89	diastole	13	B	500	systole
1120.5981000000002	0.0893754812423139	89	diastole	14	B	500	systole
1123.8249999999998	0.0868732450762763	90	systole	1	B	500	systole
1124.5408000000002	0.0868732450762763	90	systole	2	B	500	systole
1125.2508000000003	0.0868732450762763	90	systole	3	B	500	systole
1125.9508	0.0868732450762763	90	systole	4	B	500	systole
1126.6666	0.0868732450762763	90	systole	5	B	500	systole
1127.3566999999998	0.0868732450762763	90	systole	6	B	500	systole
1128.0309000000002	0.0868732450762763	90	systole	7	B	500	systole
1128.7208	0.0868732450762763	90	systole	8	B	500	systole
1129.4106000000002	0.0868732450762763	90	systole	9	B	500	systole
1130.1048999999998	0.0868732450762763	90	systole	10	B	500	systole
1130.8049	0.0868732450762763	90	systole	11	B	500	systole
1131.5247	0.0868732450762763	90	systole	12	B	500	systole
1132.2948000000001	0.0868732450762763	90	systole	13	B	500	systole
1133.0448999999999	0.0868732450762763	90	systole	14	B	500	systole
1136.8777	0.0931372686754912	91	systole	1	B	500	diastole
1137.5963000000002	0.0931372686754912	91	systole	2	B	500	diastole
1138.3363	0.0931372686754912	91	systole	3	B	500	diastole
1139.0764	0.0931372686754912	91	systole	4	B	500	diastole
1139.7756	0.0931372686754912	91	systole	5	B	500	diastole
1140.4856	0.0931372686754912	91	systole	6	B	500	diastole
1141.1788999999999	0.0931372686754912	91	systole	7	B	500	diastole
1141.8793	0.0931372686754912	91	systole	8	B	500	diastole
1142.5825	0.0931372686754912	91	systole	9	B	500	diastole
1143.3125	0.0931372686754912	91	systole	10	B	500	diastole
1144.0264000000002	0.0931372686754912	91	systole	11	B	500	diastole
1144.7828	0.0931372686754912	91	systole	12	B	500	diastole
1145.5328	0.0931372686754912	91	systole	13	B	500	diastole
1146.2831	0.0931372686754912	91	systole	14	B	500	diastole
1148.8948	0.0912524062441662	92	diastole	1	B	500	systole
1149.5848	0.0912524062441662	92	diastole	2	B	500	systole
1150.2747	0.0912524062441662	92	diastole	3	B	500	systole
1150.9647	0.0912524062441662	92	diastole	4	B	500	systole
1151.6545999999998	0.0912524062441662	92	diastole	5	B	500	systole
1152.3081000000002	0.0912524062441662	92	diastole	6	B	500	systole
1152.9647	0.0912524062441662	92	diastole	7	B	500	systole
1153.6080000000002	0.0912524062441662	92	diastole	8	B	500	systole
1154.2779	0.0912524062441662	92	diastole	9	B	500	systole
1154.9313000000002	0.0912524062441662	92	diastole	10	B	500	systole
1155.6039	0.0912524062441662	92	diastole	11	B	500	systole
1156.2843000000003	0.0912524062441662	92	diastole	12	B	500	systole
1156.9742	0.0912524062441662	92	diastole	13	B	500	systole
1157.6824000000001	0.0912524062441662	92	diastole	14	B	500	systole
1158.3906000000002	0.0912524062441662	92	diastole	15	B	500	systole
1162.6048	0.0874889187980443	93	diastole	1	B	500	systole
1163.2948999999999	0.0874889187980443	93	diastole	2	B	500	systole
1164.0149000000001	0.0874889187980443	93	diastole	3	B	500	systole
1164.7361	0.0874889187980443	93	diastole	4	B	500	systole
1165.4631	0.0874889187980443	93	diastole	5	B	500	systole
1166.1831000000002	0.0874889187980443	93	diastole	6	B	500	systole
1166.8831	0.0874889187980443	93	diastole	7	B	500	systole
1167.5830999999998	0.0874889187980443	93	diastole	8	B	500	systole
1168.2833	0.0874889187980443	93	diastole	9	B	500	systole
1169.0101	0.0874889187980443	93	diastole	10	B	500	systole
1169.6852	0.0874889187980443	93	diastole	11	B	500	systole
1170.3752	0.0874889187980443	93	diastole	12	B	500	systole
1171.0934000000002	0.0874889187980443	93	diastole	13	B	500	systole
1175.0265	0.0887541365809738	94	systole	1	B	500	systole
1175.7465000000002	0.0887541365809738	94	systole	2	B	500	systole
1176.4265	0.0887541365809738	94	systole	3	B	500	systole
1177.1064999999999	0.0887541365809738	94	systole	4	B	500	systole
1177.7714999999998	0.0887541365809738	94	systole	5	B	500	systole
1178.4258	0.0887541365809738	94	systole	6	B	500	systole
1179.0859	0.0887541365809738	94	systole	7	B	500	systole
1179.7232	0.0887541365809738	94	systole	8	B	500	systole
1180.3732	0.0887541365809738	94	systole	9	B	500	systole
1180.9589999999998	0.0887541365809738	94	systole	10	B	500	systole
1181.5733	0.0887541365809738	94	systole	11	B	500	systole
1182.1722	0.0887541365809738	94	systole	12	B	500	systole
1182.8204	0.0887541365809738	94	systole	13	B	500	systole
1183.4804	0.0887541365809738	94	systole	14	B	500	systole
1184.1508	0.0887541365809738	94	systole	15	B	500	systole
1184.8407000000002	0.0887541365809738	94	systole	16	B	500	systole
1187.6833000000001	0.0850192183861509	95	systole	1	B	500	systole
1188.3890000000001	0.0850192183861509	95	systole	2	B	500	systole
1189.0889000000002	0.0850192183861509	95	systole	3	B	500	systole
1189.7789000000002	0.0850192183861509	95	systole	4	B	500	systole
1190.4589	0.0850192183861509	95	systole	5	B	500	systole
1191.1389	0.0850192183861509	95	systole	6	B	500	systole
1191.8090000000002	0.0850192183861509	95	systole	7	B	500	systole
1192.4904999999999	0.0850192183861509	95	systole	8	B	500	systole
1193.1631000000002	0.0850192183861509	95	systole	9	B	500	systole
1193.8381	0.0850192183861509	95	systole	10	B	500	systole
1194.5297	0.0850192183861509	95	systole	11	B	500	systole
1195.2024000000001	0.0850192183861509	95	systole	12	B	500	systole
1195.9024	0.0850192183861509	95	systole	13	B	500	systole
1196.6224000000002	0.0850192183861509	95	systole	14	B	500	systole
1200.0283	0.0893670311197638	96	diastole	1	B	500	diastole
1200.7783	0.0893670311197638	96	diastole	2	B	500	diastole
1201.5348	0.0893670311197638	96	diastole	3	B	500	diastole
1202.2851	0.0893670311197638	96	diastole	4	B	500	diastole
1203.0351	0.0893670311197638	96	diastole	5	B	500	diastole
1203.7838000000002	0.0893670311197638	96	diastole	6	B	500	diastole
1204.4938000000002	0.0893670311197638	96	diastole	7	B	500	diastole
1205.2038000000002	0.0893670311197638	96	diastole	8	B	500	diastole
1205.9134	0.0893670311197638	96	diastole	9	B	500	diastole
1206.6145999999999	0.0893670311197638	96	diastole	10	B	500	diastole
1207.3270000000002	0.0893670311197638	96	diastole	11	B	500	diastole
1208.0474	0.0893670311197638	96	diastole	12	B	500	diastole
1208.7594	0.0893670311197638	96	diastole	13	B	500	diastole
1212.453	0.0906513663940131	97	diastole	1	B	500	diastole
1213.1811000000002	0.0906513663940131	97	diastole	2	B	500	diastole
1213.9243999999999	0.0906513663940131	97	diastole	3	B	500	diastole
1214.6448	0.0906513663940131	97	diastole	4	B	500	diastole
1215.3652000000002	0.0906513663940131	97	diastole	5	B	500	diastole
1216.0855000000001	0.0906513663940131	97	diastole	6	B	500	diastole
1216.8071	0.0906513663940131	97	diastole	7	B	500	diastole
1217.5335	0.0906513663940131	97	diastole	8	B	500	diastole
1218.2622999999999	0.0906513663940131	97	diastole	9	B	500	diastole
1219.0023	0.0906513663940131	97	diastole	10	B	500	diastole
1219.7422000000001	0.0906513663940131	97	diastole	11	B	500	diastole
1220.4822	0.0906513663940131	97	diastole	12	B	500	diastole
1221.2022000000002	0.0906513663940131	97	diastole	13	B	500	diastole
1223.6999	0.091256720945239	98	systole	1	B	500	systole
1224.4140000000002	0.091256720945239	98	systole	2	B	500	systole
1225.1440000000002	0.091256720945239	98	systole	3	B	500	systole
1225.8741	0.091256720945239	98	systole	4	B	500	systole
1226.5683	0.091256720945239	98	systole	5	B	500	systole
1227.2023	0.091256720945239	98	systole	6	B	500	systole
1227.8507	0.091256720945239	98	systole	7	B	500	systole
1228.5106999999998	0.091256720945239	98	systole	8	B	500	systole
1229.1748000000002	0.091256720945239	98	systole	9	B	500	systole
1229.8533000000002	0.091256720945239	98	systole	10	B	500	systole
1230.5434	0.091256720945239	98	systole	11	B	500	systole
1231.2332999999999	0.091256720945239	98	systole	12	B	500	systole
1231.8658	0.091256720945239	98	systole	13	B	500	systole
1232.5158000000001	0.091256720945239	98	systole	14	B	500	systole
1233.1442000000002	0.091256720945239	98	systole	15	B	500	systole
1235.8265000000001	0.0806278093950823	99	diastole	1	B	500	systole
1236.4266000000002	0.0806278093950823	99	diastole	2	B	500	systole
1237.0267	0.0806278093950823	99	diastole	3	B	500	systole
1237.6182	0.0806278093950823	99	diastole	4	B	500	systole
1238.2181	0.0806278093950823	99	diastole	5	B	500	systole
1238.7732	0.0806278093950823	99	diastole	6	B	500	systole
1239.3533000000002	0.0806278093950823	99	diastole	7	B	500	systole
1239.9016000000001	0.0806278093950823	99	diastole	8	B	500	systole
1240.4915999999998	0.0806278093950823	99	diastole	9	B	500	systole
1241.0716000000002	0.0806278093950823	99	diastole	10	B	500	systole
1241.6615000000002	0.0806278093950823	99	diastole	11	B	500	systole
1242.2615	0.0806278093950823	99	diastole	12	B	500	systole
1242.8616000000002	0.0806278093950823	99	diastole	13	B	500	systole
1243.4921	0.0806278093950823	99	diastole	14	B	500	systole
1244.1225	0.0806278093950823	99	diastole	15	B	500	systole
1244.8004999999998	0.0806278093950823	99	diastole	16	B	500	systole
1248.2618000000002	0.0812795343808829	100	diastole	1	B	500	diastole
1249.0119	0.0812795343808829	100	diastole	2	B	500	diastole
1249.7334	0.0812795343808829	100	diastole	3	B	500	diastole
1250.3834000000002	0.0812795343808829	100	diastole	4	B	500	diastole
1251.0334000000003	0.0812795343808829	100	diastole	5	B	500	diastole
1251.3040999999998	0.0812795343808829	100	diastole	6	B	500	diastole
1251.6048	0.0812795343808829	100	diastole	7	B	500	diastole
1252.1664999999998	0.0812795343808829	100	diastole	8	B	500	diastole
1252.7531	0.0812795343808829	100	diastole	9	B	500	diastole
1253.3382000000001	0.0812795343808829	100	diastole	10	B	500	diastole
1253.9416	0.0812795343808829	100	diastole	11	B	500	diastole
1254.5616	0.0812795343808829	100	diastole	12	B	500	diastole
1255.1815000000001	0.0812795343808829	100	diastole	13	B	500	diastole
1255.7732999999998	0.0812795343808829	100	diastole	14	B	500	diastole
1256.3749000000003	0.0812795343808829	100	diastole	15	B	500	diastole
1256.9848000000002	0.0812795343808829	100	diastole	16	B	500	diastole
