onset	duration	trial_num	trial_type	tone_num	tone_type	frequency	response
164.6667	0.0756193980341777	1	diastole	1	A	1578.5670027440333	coherent
164.8236	0.0756193980341777	1	diastole	2	B	500.0	coherent
164.9813	0.0756193980341777	1	diastole	3	A	1578.5670027440333	coherent
165.2979	0.0756193980341777	1	diastole	4	A	1578.5670027440333	coherent
165.455	0.0756193980341777	1	diastole	5	B	500.0	coherent
165.6129	0.0756193980341777	1	diastole	6	A	1578.5670027440333	coherent
165.9278	0.0756193980341777	1	diastole	7	A	1578.5670027440333	coherent
166.085	0.0756193980341777	1	diastole	8	B	500.0	coherent
166.2428	0.0756193980341777	1	diastole	9	A	1578.5670027440333	coherent
166.5578	0.0756193980341777	1	diastole	10	A	1578.5670027440333	coherent
166.7149	0.0756193980341777	1	diastole	11	B	500.0	coherent
166.8728	0.0756193980341777	1	diastole	12	A	1578.5670027440333	coherent
167.1778	0.0756193980341777	1	diastole	13	A	1578.5670027440333	coherent
167.3349	0.0756193980341777	1	diastole	14	B	500.0	coherent
167.4928	0.0756193980341777	1	diastole	15	A	1578.5670027440333	coherent
167.7978	0.0756193980341777	1	diastole	16	A	1578.5670027440333	coherent
167.955	0.0756193980341777	1	diastole	17	B	500.0	coherent
168.1128	0.0756193980341777	1	diastole	18	A	1578.5670027440333	coherent
168.4078	0.0756193980341777	1	diastole	19	A	1578.5670027440333	coherent
168.5649	0.0756193980341777	1	diastole	20	B	500.0	coherent
168.7228	0.0756193980341777	1	diastole	21	A	1578.5670027440333	coherent
169.0177	0.0756193980341777	1	diastole	22	A	1578.5670027440333	coherent
169.1749	0.0756193980341777	1	diastole	23	B	500.0	coherent
169.3328	0.0756193980341777	1	diastole	24	A	1578.5670027440333	coherent
169.611	0.0756193980341777	1	diastole	25	A	1578.5670027440333	coherent
169.7669	0.0756193980341777	1	diastole	26	B	500.0	coherent
169.9235	0.0756193980341777	1	diastole	27	A	1578.5670027440333	coherent
170.2113	0.0756193980341777	1	diastole	28	A	1578.5670027440333	coherent
170.3672	0.0756193980341777	1	diastole	29	B	500.0	coherent
170.5238	0.0756193980341777	1	diastole	30	A	1578.5670027440333	coherent
170.7939	0.0756193980341777	1	diastole	31	A	1578.5670027440333	coherent
170.9486	0.0756193980341777	1	diastole	32	B	500.0	coherent
171.1039	0.0756193980341777	1	diastole	33	A	1578.5670027440333	coherent
171.3835	0.0756193980341777	1	diastole	34	A	1578.5670027440333	coherent
171.5382	0.0756193980341777	1	diastole	35	B	500.0	coherent
171.6935	0.0756193980341777	1	diastole	36	A	1578.5670027440333	coherent
171.9566	0.0756193980341777	1	diastole	37	A	1578.5670027440333	coherent
172.11	0.0756193980341777	1	diastole	38	B	500.0	coherent
172.2641	0.0756193980341777	1	diastole	39	A	1578.5670027440333	coherent
172.5394	0.0756193980341777	1	diastole	40	A	1578.5670027440333	coherent
172.6915	0.0756193980341777	1	diastole	41	B	500.0	coherent
172.8443	0.0756193980341777	1	diastole	42	A	1578.5670027440333	coherent
173.1242	0.0756193980341777	1	diastole	43	A	1578.5670027440333	coherent
173.2751	0.0756193980341777	1	diastole	44	B	500.0	coherent
173.4267	0.0756193980341777	1	diastole	45	A	1578.5670027440333	coherent
179.5916	0.0799975566333159	2	diastole	1	A	2180.0224995339627	coherent
179.7516	0.0799975566333159	2	diastole	2	B	500.0	coherent
179.9116	0.0799975566333159	2	diastole	3	A	2180.0224995339627	coherent
180.1844	0.0799975566333159	2	diastole	4	A	2180.0224995339627	coherent
180.3432	0.0799975566333159	2	diastole	5	B	500.0	coherent
180.502	0.0799975566333159	2	diastole	6	A	2180.0224995339627	coherent
180.784	0.0799975566333159	2	diastole	7	A	2180.0224995339627	coherent
180.9429	0.0799975566333159	2	diastole	8	B	500.0	coherent
181.1016	0.0799975566333159	2	diastole	9	A	2180.0224995339627	coherent
181.3675	0.0799975566333159	2	diastole	10	A	2180.0224995339627	coherent
181.5252	0.0799975566333159	2	diastole	11	B	500.0	coherent
181.6827	0.0799975566333159	2	diastole	12	A	2180.0224995339627	coherent
181.9393	0.0799975566333159	2	diastole	13	A	2180.0224995339627	coherent
182.0955	0.0799975566333159	2	diastole	14	B	500.0	coherent
182.2517	0.0799975566333159	2	diastole	15	A	2180.0224995339627	coherent
182.5188	0.0799975566333159	2	diastole	16	A	2180.0224995339627	coherent
182.6751	0.0799975566333159	2	diastole	17	B	500.0	coherent
182.8312	0.0799975566333159	2	diastole	18	A	2180.0224995339627	coherent
183.0779	0.0799975566333159	2	diastole	19	A	2180.0224995339627	coherent
183.2304	0.0799975566333159	2	diastole	20	B	500.0	coherent
183.3828	0.0799975566333159	2	diastole	21	A	2180.0224995339627	coherent
183.6266	0.0799975566333159	2	diastole	22	A	2180.0224995339627	coherent
183.7754	0.0799975566333159	2	diastole	23	B	500.0	coherent
183.9241	0.0799975566333159	2	diastole	24	A	2180.0224995339627	coherent
184.1802	0.0799975566333159	2	diastole	25	A	2180.0224995339627	coherent
184.3278	0.0799975566333159	2	diastole	26	B	500.0	coherent
184.4753	0.0799975566333159	2	diastole	27	A	2180.0224995339627	coherent
184.736	0.0799975566333159	2	diastole	28	A	2180.0224995339627	coherent
184.8811	0.0799975566333159	2	diastole	29	B	500.0	coherent
185.026	0.0799975566333159	2	diastole	30	A	2180.0224995339627	coherent
185.3064	0.0799975566333159	2	diastole	31	A	2180.0224995339627	coherent
185.4514	0.0799975566333159	2	diastole	32	B	500.0	coherent
185.5964	0.0799975566333159	2	diastole	33	A	2180.0224995339627	coherent
185.869	0.0799975566333159	2	diastole	34	A	2180.0224995339627	coherent
186.0128	0.0799975566333159	2	diastole	35	B	500.0	coherent
186.1565	0.0799975566333159	2	diastole	36	A	2180.0224995339627	coherent
186.4323	0.0799975566333159	2	diastole	37	A	2180.0224995339627	coherent
186.5749	0.0799975566333159	2	diastole	38	B	500.0	coherent
186.7174	0.0799975566333159	2	diastole	39	A	2180.0224995339627	coherent
187.0242	0.0799975566333159	2	diastole	40	A	2180.0224995339627	coherent
187.1669	0.0799975566333159	2	diastole	41	B	500.0	coherent
187.3093	0.0799975566333159	2	diastole	42	A	2180.0224995339627	coherent
187.6343	0.0799975566333159	2	diastole	43	A	2180.0224995339627	coherent
187.7769	0.0799975566333159	2	diastole	44	B	500.0	coherent
187.9193	0.0799975566333159	2	diastole	45	A	2180.0224995339627	coherent
188.2443	0.0799975566333159	2	diastole	46	A	2180.0224995339627	coherent
188.3869	0.0799975566333159	2	diastole	47	B	500.0	coherent
188.5293	0.0799975566333159	2	diastole	48	A	2180.0224995339627	coherent
198.6434	0.0775066812057048	3	systole	1	A	1578.5670027440333	coherent
198.7981	0.0775066812057048	3	systole	2	B	500.0	coherent
198.9534	0.0775066812057048	3	systole	3	A	1578.5670027440333	coherent
199.2634	0.0775066812057048	3	systole	4	A	1578.5670027440333	coherent
199.4181	0.0775066812057048	3	systole	5	B	500.0	coherent
199.5734	0.0775066812057048	3	systole	6	A	1578.5670027440333	coherent
199.8634	0.0775066812057048	3	systole	7	A	1578.5670027440333	coherent
200.018	0.0775066812057048	3	systole	8	B	500.0	coherent
200.1734	0.0775066812057048	3	systole	9	A	1578.5670027440333	coherent
200.4634	0.0775066812057048	3	systole	10	A	1578.5670027440333	coherent
200.618	0.0775066812057048	3	systole	11	B	500.0	coherent
200.7734	0.0775066812057048	3	systole	12	A	1578.5670027440333	coherent
201.0634	0.0775066812057048	3	systole	13	A	1578.5670027440333	coherent
201.218	0.0775066812057048	3	systole	14	B	500.0	coherent
201.3733	0.0775066812057048	3	systole	15	A	1578.5670027440333	coherent
201.6734	0.0775066812057048	3	systole	16	A	1578.5670027440333	coherent
201.828	0.0775066812057048	3	systole	17	B	500.0	coherent
201.9834	0.0775066812057048	3	systole	18	A	1578.5670027440333	coherent
202.2688	0.0775066812057048	3	systole	19	A	1578.5670027440333	coherent
202.4222	0.0775066812057048	3	systole	20	B	500.0	coherent
202.5763	0.0775066812057048	3	systole	21	A	1578.5670027440333	coherent
202.8688	0.0775066812057048	3	systole	22	A	1578.5670027440333	coherent
203.0222	0.0775066812057048	3	systole	23	B	500.0	coherent
203.1763	0.0775066812057048	3	systole	24	A	1578.5670027440333	coherent
203.4551	0.0775066812057048	3	systole	25	A	1578.5670027440333	coherent
203.6047	0.0775066812057048	3	systole	26	B	500.0	coherent
203.7551	0.0775066812057048	3	systole	27	A	1578.5670027440333	coherent
204.055	0.0775066812057048	3	systole	28	A	1578.5670027440333	coherent
204.2047	0.0775066812057048	3	systole	29	B	500.0	coherent
204.355	0.0775066812057048	3	systole	30	A	1578.5670027440333	coherent
204.655	0.0775066812057048	3	systole	31	A	1578.5670027440333	coherent
204.8047	0.0775066812057048	3	systole	32	B	500.0	coherent
204.955	0.0775066812057048	3	systole	33	A	1578.5670027440333	coherent
205.255	0.0775066812057048	3	systole	34	A	1578.5670027440333	coherent
205.4046	0.0775066812057048	3	systole	35	B	500.0	coherent
205.555	0.0775066812057048	3	systole	36	A	1578.5670027440333	coherent
205.8549	0.0775066812057048	3	systole	37	A	1578.5670027440333	coherent
206.0046	0.0775066812057048	3	systole	38	B	500.0	coherent
206.1549	0.0775066812057048	3	systole	39	A	1578.5670027440333	coherent
206.4795	0.0775066812057048	3	systole	40	A	1578.5670027440333	coherent
206.6304	0.0775066812057048	3	systole	41	B	500.0	coherent
206.782	0.0775066812057048	3	systole	42	A	1578.5670027440333	coherent
207.094	0.0775066812057048	3	systole	43	A	1578.5670027440333	coherent
207.2461	0.0775066812057048	3	systole	44	B	500.0	coherent
207.3989	0.0775066812057048	3	systole	45	A	1578.5670027440333	coherent
207.704	0.0775066812057048	3	systole	46	A	1578.5670027440333	coherent
207.8562	0.0775066812057048	3	systole	47	B	500.0	coherent
208.009	0.0775066812057048	3	systole	48	A	1578.5670027440333	coherent
219.5519	0.0756285911193117	4	diastole	1	A	1987.9452401467304	streaming
219.7031	0.0756285911193117	4	diastole	2	B	500.0	streaming
219.8544	0.0756285911193117	4	diastole	3	A	1987.9452401467304	streaming
220.1419	0.0756285911193117	4	diastole	4	A	1987.9452401467304	streaming
220.2931	0.0756285911193117	4	diastole	5	B	500.0	streaming
220.4444	0.0756285911193117	4	diastole	6	A	1987.9452401467304	streaming
220.7318	0.0756285911193117	4	diastole	7	A	1987.9452401467304	streaming
220.8831	0.0756285911193117	4	diastole	8	B	500.0	streaming
221.0343	0.0756285911193117	4	diastole	9	A	1987.9452401467304	streaming
221.3318	0.0756285911193117	4	diastole	10	A	1987.9452401467304	streaming
221.4831	0.0756285911193117	4	diastole	11	B	500.0	streaming
221.6344	0.0756285911193117	4	diastole	12	A	1987.9452401467304	streaming
221.9219	0.0756285911193117	4	diastole	13	A	1987.9452401467304	streaming
222.0731	0.0756285911193117	4	diastole	14	B	500.0	streaming
222.2244	0.0756285911193117	4	diastole	15	A	1987.9452401467304	streaming
222.5119	0.0756285911193117	4	diastole	16	A	1987.9452401467304	streaming
222.6632	0.0756285911193117	4	diastole	17	B	500.0	streaming
222.8144	0.0756285911193117	4	diastole	18	A	1987.9452401467304	streaming
223.0849	0.0756285911193117	4	diastole	19	A	1987.9452401467304	streaming
223.2348	0.0756285911193117	4	diastole	20	B	500.0	streaming
223.3849	0.0756285911193117	4	diastole	21	A	1987.9452401467304	streaming
223.6578	0.0756285911193117	4	diastole	22	A	1987.9452401467304	streaming
223.8066	0.0756285911193117	4	diastole	23	B	500.0	streaming
223.9554	0.0756285911193117	4	diastole	24	A	1987.9452401467304	streaming
224.2307	0.0756285911193117	4	diastole	25	A	1987.9452401467304	streaming
224.3782	0.0756285911193117	4	diastole	26	B	500.0	streaming
224.5257	0.0756285911193117	4	diastole	27	A	1987.9452401467304	streaming
224.8208	0.0756285911193117	4	diastole	28	A	1987.9452401467304	streaming
224.9683	0.0756285911193117	4	diastole	29	B	500.0	streaming
225.1158	0.0756285911193117	4	diastole	30	A	1987.9452401467304	streaming
225.4107	0.0756285911193117	4	diastole	31	A	1987.9452401467304	streaming
225.5582	0.0756285911193117	4	diastole	32	B	500.0	streaming
225.7057	0.0756285911193117	4	diastole	33	A	1987.9452401467304	streaming
226.0308	0.0756285911193117	4	diastole	34	A	1987.9452401467304	streaming
226.1783	0.0756285911193117	4	diastole	35	B	500.0	streaming
226.3258	0.0756285911193117	4	diastole	36	A	1987.9452401467304	streaming
226.6509	0.0756285911193117	4	diastole	37	A	1987.9452401467304	streaming
226.7983	0.0756285911193117	4	diastole	38	B	500.0	streaming
226.9459	0.0756285911193117	4	diastole	39	A	1987.9452401467304	streaming
227.2709	0.0756285911193117	4	diastole	40	A	1987.9452401467304	streaming
227.4184	0.0756285911193117	4	diastole	41	B	500.0	streaming
227.5659	0.0756285911193117	4	diastole	42	A	1987.9452401467304	streaming
227.9009	0.0756285911193117	4	diastole	43	A	1987.9452401467304	streaming
228.0484	0.0756285911193117	4	diastole	44	B	500.0	streaming
228.196	0.0756285911193117	4	diastole	45	A	1987.9452401467304	streaming
228.548	0.0756285911193117	4	diastole	46	A	1987.9452401467304	streaming
228.6967	0.0756285911193117	4	diastole	47	B	500.0	streaming
228.8455	0.0756285911193117	4	diastole	48	A	1987.9452401467304	streaming
232.3375	0.078749393695034	5	diastole	1	A	1143.0495706741503	coherent
232.4949	0.078749393695034	5	diastole	2	B	500.0	coherent
232.6525	0.078749393695034	5	diastole	3	A	1143.0495706741503	coherent
232.9375	0.078749393695034	5	diastole	4	A	1143.0495706741503	coherent
233.0949	0.078749393695034	5	diastole	5	B	500.0	coherent
233.2525	0.078749393695034	5	diastole	6	A	1143.0495706741503	coherent
233.5375	0.078749393695034	5	diastole	7	A	1143.0495706741503	coherent
233.6949	0.078749393695034	5	diastole	8	B	500.0	coherent
233.8525	0.078749393695034	5	diastole	9	A	1143.0495706741503	coherent
234.0964	0.078749393695034	5	diastole	10	A	1143.0495706741503	coherent
234.25	0.078749393695034	5	diastole	11	B	500.0	coherent
234.4039	0.078749393695034	5	diastole	12	A	1143.0495706741503	coherent
234.6593	0.078749393695034	5	diastole	13	A	1143.0495706741503	coherent
234.8117	0.078749393695034	5	diastole	14	B	500.0	coherent
234.9643	0.078749393695034	5	diastole	15	A	1143.0495706741503	coherent
235.2322	0.078749393695034	5	diastole	16	A	1143.0495706741503	coherent
235.3833	0.078749393695034	5	diastole	17	B	500.0	coherent
235.5347	0.078749393695034	5	diastole	18	A	1143.0495706741503	coherent
235.8122	0.078749393695034	5	diastole	19	A	1143.0495706741503	coherent
235.9634	0.078749393695034	5	diastole	20	B	500.0	coherent
236.1147	0.078749393695034	5	diastole	21	A	1143.0495706741503	coherent
236.3875	0.078749393695034	5	diastole	22	A	1143.0495706741503	coherent
236.5361	0.078749393695034	5	diastole	23	B	500.0	coherent
236.6849	0.078749393695034	5	diastole	24	A	1143.0495706741503	coherent
236.9772	0.078749393695034	5	diastole	25	A	1143.0495706741503	coherent
237.1257	0.078749393695034	5	diastole	26	B	500.0	coherent
237.2746	0.078749393695034	5	diastole	27	A	1143.0495706741503	coherent
237.57	0.078749393695034	5	diastole	28	A	1143.0495706741503	coherent
237.7174	0.078749393695034	5	diastole	29	B	500.0	coherent
237.865	0.078749393695034	5	diastole	30	A	1143.0495706741503	coherent
238.1696	0.078749393695034	5	diastole	31	A	1143.0495706741503	coherent
238.3169	0.078749393695034	5	diastole	32	B	500.0	coherent
238.4646	0.078749393695034	5	diastole	33	A	1143.0495706741503	coherent
238.7896	0.078749393695034	5	diastole	34	A	1143.0495706741503	coherent
238.937	0.078749393695034	5	diastole	35	B	500.0	coherent
239.0846	0.078749393695034	5	diastole	36	A	1143.0495706741503	coherent
239.4196	0.078749393695034	5	diastole	37	A	1143.0495706741503	coherent
239.567	0.078749393695034	5	diastole	38	B	500.0	coherent
239.7146	0.078749393695034	5	diastole	39	A	1143.0495706741503	coherent
240.0497	0.078749393695034	5	diastole	40	A	1143.0495706741503	coherent
240.1971	0.078749393695034	5	diastole	41	B	500.0	coherent
240.3447	0.078749393695034	5	diastole	42	A	1143.0495706741503	coherent
240.6797	0.078749393695034	5	diastole	43	A	1143.0495706741503	coherent
240.8271	0.078749393695034	5	diastole	44	B	500.0	coherent
240.9747	0.078749393695034	5	diastole	45	A	1143.0495706741503	coherent
243.3592	0.0762557117268443	6	systole	1	A	2180.0224995339627	coherent
243.5105	0.0762557117268443	6	systole	2	B	500.0	coherent
243.6617	0.0762557117268443	6	systole	3	A	2180.0224995339627	coherent
243.9347	0.0762557117268443	6	systole	4	A	2180.0224995339627	coherent
244.0847	0.0762557117268443	6	systole	5	B	500.0	coherent
244.2346	0.0762557117268443	6	systole	6	A	2180.0224995339627	coherent
244.5148	0.0762557117268443	6	systole	7	A	2180.0224995339627	coherent
244.6648	0.0762557117268443	6	systole	8	B	500.0	coherent
244.8148	0.0762557117268443	6	systole	9	A	2180.0224995339627	coherent
245.0903	0.0762557117268443	6	systole	10	A	2180.0224995339627	coherent
245.2391	0.0762557117268443	6	systole	11	B	500.0	coherent
245.3877	0.0762557117268443	6	systole	12	A	2180.0224995339627	coherent
245.6758	0.0762557117268443	6	systole	13	A	2180.0224995339627	coherent
245.8234	0.0762557117268443	6	systole	14	B	500.0	coherent
245.9708	0.0762557117268443	6	systole	15	A	2180.0224995339627	coherent
246.2757	0.0762557117268443	6	systole	16	A	2180.0224995339627	coherent
246.4233	0.0762557117268443	6	systole	17	B	500.0	coherent
246.5707	0.0762557117268443	6	systole	18	A	2180.0224995339627	coherent
246.8757	0.0762557117268443	6	systole	19	A	2180.0224995339627	coherent
247.0233	0.0762557117268443	6	systole	20	B	500.0	coherent
247.1707	0.0762557117268443	6	systole	21	A	2180.0224995339627	coherent
247.4657	0.0762557117268443	6	systole	22	A	2180.0224995339627	coherent
247.6133	0.0762557117268443	6	systole	23	B	500.0	coherent
247.7607	0.0762557117268443	6	systole	24	A	2180.0224995339627	coherent
248.0558	0.0762557117268443	6	systole	25	A	2180.0224995339627	coherent
248.2033	0.0762557117268443	6	systole	26	B	500.0	coherent
248.3508	0.0762557117268443	6	systole	27	A	2180.0224995339627	coherent
248.6458	0.0762557117268443	6	systole	28	A	2180.0224995339627	coherent
248.7934	0.0762557117268443	6	systole	29	B	500.0	coherent
248.9408	0.0762557117268443	6	systole	30	A	2180.0224995339627	coherent
249.2358	0.0762557117268443	6	systole	31	A	2180.0224995339627	coherent
249.3834	0.0762557117268443	6	systole	32	B	500.0	coherent
249.5308	0.0762557117268443	6	systole	33	A	2180.0224995339627	coherent
249.8255	0.0762557117268443	6	systole	34	A	2180.0224995339627	coherent
249.9731	0.0762557117268443	6	systole	35	B	500.0	coherent
250.1205	0.0762557117268443	6	systole	36	A	2180.0224995339627	coherent
250.4359	0.0762557117268443	6	systole	37	A	2180.0224995339627	coherent
250.5835	0.0762557117268443	6	systole	38	B	500.0	coherent
250.7309	0.0762557117268443	6	systole	39	A	2180.0224995339627	coherent
251.0462	0.0762557117268443	6	systole	40	A	2180.0224995339627	coherent
251.1938	0.0762557117268443	6	systole	41	B	500.0	coherent
251.3412	0.0762557117268443	6	systole	42	A	2180.0224995339627	coherent
251.6579	0.0762557117268443	6	systole	43	A	2180.0224995339627	coherent
251.8055	0.0762557117268443	6	systole	44	B	500.0	coherent
251.9529	0.0762557117268443	6	systole	45	A	2180.0224995339627	coherent
252.2826	0.0762557117268443	6	systole	46	A	2180.0224995339627	coherent
252.4314	0.0762557117268443	6	systole	47	B	500.0	coherent
252.5801	0.0762557117268443	6	systole	48	A	2180.0224995339627	coherent
257.7289	0.0761384186334908	7	systole	1	A	1987.9452401467304	coherent
257.8799	0.0761384186334908	7	systole	2	B	500.0	coherent
258.031	0.0761384186334908	7	systole	3	A	1987.9452401467304	coherent
258.305	0.0761384186334908	7	systole	4	A	1987.9452401467304	coherent
258.455	0.0761384186334908	7	systole	5	B	500.0	coherent
258.6051	0.0761384186334908	7	systole	6	A	1987.9452401467304	coherent
258.8851	0.0761384186334908	7	systole	7	A	1987.9452401467304	coherent
259.0351	0.0761384186334908	7	systole	8	B	500.0	coherent
259.1851	0.0761384186334908	7	systole	9	A	1987.9452401467304	coherent
259.465	0.0761384186334908	7	systole	10	A	1987.9452401467304	coherent
259.6149	0.0761384186334908	7	systole	11	B	500.0	coherent
259.765	0.0761384186334908	7	systole	12	A	1987.9452401467304	coherent
260.045	0.0761384186334908	7	systole	13	A	1987.9452401467304	coherent
260.195	0.0761384186334908	7	systole	14	B	500.0	coherent
260.345	0.0761384186334908	7	systole	15	A	1987.9452401467304	coherent
260.6304	0.0761384186334908	7	systole	16	A	1987.9452401467304	coherent
260.7791	0.0761384186334908	7	systole	17	B	500.0	coherent
260.9279	0.0761384186334908	7	systole	18	A	1987.9452401467304	coherent
261.2157	0.0761384186334908	7	systole	19	A	1987.9452401467304	coherent
261.3632	0.0761384186334908	7	systole	20	B	500.0	coherent
261.5108	0.0761384186334908	7	systole	21	A	1987.9452401467304	coherent
261.8057	0.0761384186334908	7	systole	22	A	1987.9452401467304	coherent
261.9532	0.0761384186334908	7	systole	23	B	500.0	coherent
262.1007	0.0761384186334908	7	systole	24	A	1987.9452401467304	coherent
262.3856	0.0761384186334908	7	systole	25	A	1987.9452401467304	coherent
262.533	0.0761384186334908	7	systole	26	B	500.0	coherent
262.6805	0.0761384186334908	7	systole	27	A	1987.9452401467304	coherent
262.9655	0.0761384186334908	7	systole	28	A	1987.9452401467304	coherent
263.113	0.0761384186334908	7	systole	29	B	500.0	coherent
263.2605	0.0761384186334908	7	systole	30	A	1987.9452401467304	coherent
263.541	0.0761384186334908	7	systole	31	A	1987.9452401467304	coherent
263.6872	0.0761384186334908	7	systole	32	B	500.0	coherent
263.8334	0.0761384186334908	7	systole	33	A	1987.9452401467304	coherent
264.1164	0.0761384186334908	7	systole	34	A	1987.9452401467304	coherent
264.2614	0.0761384186334908	7	systole	35	B	500.0	coherent
264.4064	0.0761384186334908	7	systole	36	A	1987.9452401467304	coherent
264.6864	0.0761384186334908	7	systole	37	A	1987.9452401467304	coherent
264.8313	0.0761384186334908	7	systole	38	B	500.0	coherent
264.9764	0.0761384186334908	7	systole	39	A	1987.9452401467304	coherent
265.2563	0.0761384186334908	7	systole	40	A	1987.9452401467304	coherent
265.4013	0.0761384186334908	7	systole	41	B	500.0	coherent
265.5463	0.0761384186334908	7	systole	42	A	1987.9452401467304	coherent
265.8264	0.0761384186334908	7	systole	43	A	1987.9452401467304	coherent
265.9713	0.0761384186334908	7	systole	44	B	500.0	coherent
266.1164	0.0761384186334908	7	systole	45	A	1987.9452401467304	coherent
266.3964	0.0761384186334908	7	systole	46	A	1987.9452401467304	coherent
266.5414	0.0761384186334908	7	systole	47	B	500.0	coherent
266.6864	0.0761384186334908	7	systole	48	A	1987.9452401467304	coherent
266.9764	0.0761384186334908	7	systole	49	A	1987.9452401467304	coherent
267.1213	0.0761384186334908	7	systole	50	B	500.0	coherent
267.2664	0.0761384186334908	7	systole	51	A	1987.9452401467304	coherent
270.7465	0.072499172645621	8	diastole	1	A	1169.7126981694591	coherent
270.8914	0.072499172645621	8	diastole	2	B	500.0	coherent
271.0365	0.072499172645621	8	diastole	3	A	1169.7126981694591	coherent
271.3365	0.072499172645621	8	diastole	4	A	1169.7126981694591	coherent
271.4814	0.072499172645621	8	diastole	5	B	500.0	coherent
271.6266	0.072499172645621	8	diastole	6	A	1169.7126981694591	coherent
271.9266	0.072499172645621	8	diastole	7	A	1169.7126981694591	coherent
272.0715	0.072499172645621	8	diastole	8	B	500.0	coherent
272.2166	0.072499172645621	8	diastole	9	A	1169.7126981694591	coherent
272.5166	0.072499172645621	8	diastole	10	A	1169.7126981694591	coherent
272.6615	0.072499172645621	8	diastole	11	B	500.0	coherent
272.8066	0.072499172645621	8	diastole	12	A	1169.7126981694591	coherent
273.1166	0.072499172645621	8	diastole	13	A	1169.7126981694591	coherent
273.2615	0.072499172645621	8	diastole	14	B	500.0	coherent
273.4066	0.072499172645621	8	diastole	15	A	1169.7126981694591	coherent
273.7165	0.072499172645621	8	diastole	16	A	1169.7126981694591	coherent
273.8614	0.072499172645621	8	diastole	17	B	500.0	coherent
274.0065	0.072499172645621	8	diastole	18	A	1169.7126981694591	coherent
274.3236	0.072499172645621	8	diastole	19	A	1169.7126981694591	coherent
274.4697	0.072499172645621	8	diastole	20	B	500.0	coherent
274.6161	0.072499172645621	8	diastole	21	A	1169.7126981694591	coherent
274.9307	0.072499172645621	8	diastole	22	A	1169.7126981694591	coherent
275.0781	0.072499172645621	8	diastole	23	B	500.0	coherent
275.2257	0.072499172645621	8	diastole	24	A	1169.7126981694591	coherent
275.5449	0.072499172645621	8	diastole	25	A	1169.7126981694591	coherent
275.6948	0.072499172645621	8	diastole	26	B	500.0	coherent
275.8449	0.072499172645621	8	diastole	27	A	1169.7126981694591	coherent
276.1349	0.072499172645621	8	diastole	28	A	1169.7126981694591	coherent
276.2848	0.072499172645621	8	diastole	29	B	500.0	coherent
276.4349	0.072499172645621	8	diastole	30	A	1169.7126981694591	coherent
276.7249	0.072499172645621	8	diastole	31	A	1169.7126981694591	coherent
276.8748	0.072499172645621	8	diastole	32	B	500.0	coherent
277.0249	0.072499172645621	8	diastole	33	A	1169.7126981694591	coherent
277.325	0.072499172645621	8	diastole	34	A	1169.7126981694591	coherent
277.4748	0.072499172645621	8	diastole	35	B	500.0	coherent
277.6249	0.072499172645621	8	diastole	36	A	1169.7126981694591	coherent
277.925	0.072499172645621	8	diastole	37	A	1169.7126981694591	coherent
278.0749	0.072499172645621	8	diastole	38	B	500.0	coherent
278.225	0.072499172645621	8	diastole	39	A	1169.7126981694591	coherent
278.525	0.072499172645621	8	diastole	40	A	1169.7126981694591	coherent
278.6749	0.072499172645621	8	diastole	41	B	500.0	coherent
278.825	0.072499172645621	8	diastole	42	A	1169.7126981694591	coherent
279.125	0.072499172645621	8	diastole	43	A	1169.7126981694591	coherent
279.2749	0.072499172645621	8	diastole	44	B	500.0	coherent
279.425	0.072499172645621	8	diastole	45	A	1169.7126981694591	coherent
279.735	0.072499172645621	8	diastole	46	A	1169.7126981694591	coherent
279.8849	0.072499172645621	8	diastole	47	B	500.0	coherent
280.035	0.072499172645621	8	diastole	48	A	1169.7126981694591	coherent
282.4647	0.0750012312782928	9	systole	1	A	2942.014383864825	streaming
282.6147	0.0750012312782928	9	systole	2	B	500.0	streaming
282.7647	0.0750012312782928	9	systole	3	A	2942.014383864825	streaming
283.0546	0.0750012312782928	9	systole	4	A	2942.014383864825	streaming
283.2047	0.0750012312782928	9	systole	5	B	500.0	streaming
283.3546	0.0750012312782928	9	systole	6	A	2942.014383864825	streaming
283.6446	0.0750012312782928	9	systole	7	A	2942.014383864825	streaming
283.7947	0.0750012312782928	9	systole	8	B	500.0	streaming
283.9446	0.0750012312782928	9	systole	9	A	2942.014383864825	streaming
284.2301	0.0750012312782928	9	systole	10	A	2942.014383864825	streaming
284.3789	0.0750012312782928	9	systole	11	B	500.0	streaming
284.5275	0.0750012312782928	9	systole	12	A	2942.014383864825	streaming
284.8201	0.0750012312782928	9	systole	13	A	2942.014383864825	streaming
284.9689	0.0750012312782928	9	systole	14	B	500.0	streaming
285.1176	0.0750012312782928	9	systole	15	A	2942.014383864825	streaming
285.4055	0.0750012312782928	9	systole	16	A	2942.014383864825	streaming
285.5531	0.0750012312782928	9	systole	17	B	500.0	streaming
285.7005	0.0750012312782928	9	systole	18	A	2942.014383864825	streaming
286.0056	0.0750012312782928	9	systole	19	A	2942.014383864825	streaming
286.1531	0.0750012312782928	9	systole	20	B	500.0	streaming
286.3006	0.0750012312782928	9	systole	21	A	2942.014383864825	streaming
286.5956	0.0750012312782928	9	systole	22	A	2942.014383864825	streaming
286.7431	0.0750012312782928	9	systole	23	B	500.0	streaming
286.8906	0.0750012312782928	9	systole	24	A	2942.014383864825	streaming
287.1856	0.0750012312782928	9	systole	25	A	2942.014383864825	streaming
287.3332	0.0750012312782928	9	systole	26	B	500.0	streaming
287.4806	0.0750012312782928	9	systole	27	A	2942.014383864825	streaming
287.7956	0.0750012312782928	9	systole	28	A	2942.014383864825	streaming
287.9432	0.0750012312782928	9	systole	29	B	500.0	streaming
288.0906	0.0750012312782928	9	systole	30	A	2942.014383864825	streaming
288.4157	0.0750012312782928	9	systole	31	A	2942.014383864825	streaming
288.5632	0.0750012312782928	9	systole	32	B	500.0	streaming
288.7107	0.0750012312782928	9	systole	33	A	2942.014383864825	streaming
289.0357	0.0750012312782928	9	systole	34	A	2942.014383864825	streaming
289.1833	0.0750012312782928	9	systole	35	B	500.0	streaming
289.3307	0.0750012312782928	9	systole	36	A	2942.014383864825	streaming
289.6503	0.0750012312782928	9	systole	37	A	2942.014383864825	streaming
289.7991	0.0750012312782928	9	systole	38	B	500.0	streaming
289.9478	0.0750012312782928	9	systole	39	A	2942.014383864825	streaming
290.2696	0.0750012312782928	9	systole	40	A	2942.014383864825	streaming
290.4209	0.0750012312782928	9	systole	41	B	500.0	streaming
290.5721	0.0750012312782928	9	systole	42	A	2942.014383864825	streaming
290.8798	0.0750012312782928	9	systole	43	A	2942.014383864825	streaming
291.0311	0.0750012312782928	9	systole	44	B	500.0	streaming
291.1823	0.0750012312782928	9	systole	45	A	2942.014383864825	streaming
291.4795	0.0750012312782928	9	systole	46	A	2942.014383864825	streaming
291.6308	0.0750012312782928	9	systole	47	B	500.0	streaming
291.782	0.0750012312782928	9	systole	48	A	2942.014383864825	streaming
294.3758	0.074357692617923	10	systole	1	A	1653.0702107864488	streaming
294.523	0.074357692617923	10	systole	2	B	500.0	streaming
294.6708	0.074357692617923	10	systole	3	A	1653.0702107864488	streaming
294.9558	0.074357692617923	10	systole	4	A	1653.0702107864488	streaming
295.103	0.074357692617923	10	systole	5	B	500.0	streaming
295.2508	0.074357692617923	10	systole	6	A	1653.0702107864488	streaming
295.5357	0.074357692617923	10	systole	7	A	1653.0702107864488	streaming
295.683	0.074357692617923	10	systole	8	B	500.0	streaming
295.8307	0.074357692617923	10	systole	9	A	1653.0702107864488	streaming
296.1157	0.074357692617923	10	systole	10	A	1653.0702107864488	streaming
296.263	0.074357692617923	10	systole	11	B	500.0	streaming
296.4107	0.074357692617923	10	systole	12	A	1653.0702107864488	streaming
296.6948	0.074357692617923	10	systole	13	A	1653.0702107864488	streaming
296.8418	0.074357692617923	10	systole	14	B	500.0	streaming
296.9893	0.074357692617923	10	systole	15	A	1653.0702107864488	streaming
297.2712	0.074357692617923	10	systole	16	A	1653.0702107864488	streaming
297.4172	0.074357692617923	10	systole	17	B	500.0	streaming
297.5637	0.074357692617923	10	systole	18	A	1653.0702107864488	streaming
297.8475	0.074357692617923	10	systole	19	A	1653.0702107864488	streaming
297.9925	0.074357692617923	10	systole	20	B	500.0	streaming
298.138	0.074357692617923	10	systole	21	A	1653.0702107864488	streaming
298.4266	0.074357692617923	10	systole	22	A	1653.0702107864488	streaming
298.5713	0.074357692617923	10	systole	23	B	500.0	streaming
298.7166	0.074357692617923	10	systole	24	A	1653.0702107864488	streaming
299.0066	0.074357692617923	10	systole	25	A	1653.0702107864488	streaming
299.1513	0.074357692617923	10	systole	26	B	500.0	streaming
299.2966	0.074357692617923	10	systole	27	A	1653.0702107864488	streaming
299.5866	0.074357692617923	10	systole	28	A	1653.0702107864488	streaming
299.7313	0.074357692617923	10	systole	29	B	500.0	streaming
299.8765	0.074357692617923	10	systole	30	A	1653.0702107864488	streaming
300.1566	0.074357692617923	10	systole	31	A	1653.0702107864488	streaming
300.3013	0.074357692617923	10	systole	32	B	500.0	streaming
300.4466	0.074357692617923	10	systole	33	A	1653.0702107864488	streaming
300.7266	0.074357692617923	10	systole	34	A	1653.0702107864488	streaming
300.8713	0.074357692617923	10	systole	35	B	500.0	streaming
301.0165	0.074357692617923	10	systole	36	A	1653.0702107864488	streaming
301.2965	0.074357692617923	10	systole	37	A	1653.0702107864488	streaming
301.4412	0.074357692617923	10	systole	38	B	500.0	streaming
301.5865	0.074357692617923	10	systole	39	A	1653.0702107864488	streaming
301.8865	0.074357692617923	10	systole	40	A	1653.0702107864488	streaming
302.0312	0.074357692617923	10	systole	41	B	500.0	streaming
302.1765	0.074357692617923	10	systole	42	A	1653.0702107864488	streaming
302.4765	0.074357692617923	10	systole	43	A	1653.0702107864488	streaming
302.6212	0.074357692617923	10	systole	44	B	500.0	streaming
302.7665	0.074357692617923	10	systole	45	A	1653.0702107864488	streaming
303.0665	0.074357692617923	10	systole	46	A	1653.0702107864488	streaming
303.2112	0.074357692617923	10	systole	47	B	500.0	streaming
303.3565	0.074357692617923	10	systole	48	A	1653.0702107864488	streaming
303.6711	0.074357692617923	10	systole	49	A	1653.0702107864488	streaming
303.817	0.074357692617923	10	systole	50	B	500.0	streaming
303.9636	0.074357692617923	10	systole	51	A	1653.0702107864488	streaming
305.5305	0.074374480987899	11	systole	1	A	995.3600980827048	coherent
305.6789	0.074374480987899	11	systole	2	B	500.0	coherent
305.828	0.074374480987899	11	systole	3	A	995.3600980827048	coherent
306.1203	0.074374480987899	11	systole	4	A	995.3600980827048	coherent
306.2687	0.074374480987899	11	systole	5	B	500.0	coherent
306.4178	0.074374480987899	11	systole	6	A	995.3600980827048	coherent
306.7101	0.074374480987899	11	systole	7	A	995.3600980827048	coherent
306.8585	0.074374480987899	11	systole	8	B	500.0	coherent
307.0076	0.074374480987899	11	systole	9	A	995.3600980827048	coherent
307.2801	0.074374480987899	11	systole	10	A	995.3600980827048	coherent
307.4285	0.074374480987899	11	systole	11	B	500.0	coherent
307.5776	0.074374480987899	11	systole	12	A	995.3600980827048	coherent
307.8502	0.074374480987899	11	systole	13	A	995.3600980827048	coherent
307.9986	0.074374480987899	11	systole	14	B	500.0	coherent
308.1476	0.074374480987899	11	systole	15	A	995.3600980827048	coherent
308.4054	0.074374480987899	11	systole	16	A	995.3600980827048	coherent
308.5526	0.074374480987899	11	systole	17	B	500.0	coherent
308.7004	0.074374480987899	11	systole	18	A	995.3600980827048	coherent
308.9653	0.074374480987899	11	systole	19	A	995.3600980827048	coherent
309.1125	0.074374480987899	11	systole	20	B	500.0	coherent
309.2603	0.074374480987899	11	systole	21	A	995.3600980827048	coherent
309.5253	0.074374480987899	11	systole	22	A	995.3600980827048	coherent
309.6725	0.074374480987899	11	systole	23	B	500.0	coherent
309.8202	0.074374480987899	11	systole	24	A	995.3600980827048	coherent
310.0806	0.074374480987899	11	systole	25	A	995.3600980827048	coherent
310.2265	0.074374480987899	11	systole	26	B	500.0	coherent
310.373	0.074374480987899	11	systole	27	A	995.3600980827048	coherent
310.6416	0.074374480987899	11	systole	28	A	995.3600980827048	coherent
310.7851	0.074374480987899	11	systole	29	B	500.0	coherent
310.9291	0.074374480987899	11	systole	30	A	995.3600980827048	coherent
311.2071	0.074374480987899	11	systole	31	A	995.3600980827048	coherent
311.3493	0.074374480987899	11	systole	32	B	500.0	coherent
311.4921	0.074374480987899	11	systole	33	A	995.3600980827048	coherent
311.7771	0.074374480987899	11	systole	34	A	995.3600980827048	coherent
311.9193	0.074374480987899	11	systole	35	B	500.0	coherent
312.0621	0.074374480987899	11	systole	36	A	995.3600980827048	coherent
312.3471	0.074374480987899	11	systole	37	A	995.3600980827048	coherent
312.4893	0.074374480987899	11	systole	38	B	500.0	coherent
312.6321	0.074374480987899	11	systole	39	A	995.3600980827048	coherent
312.9273	0.074374480987899	11	systole	40	A	995.3600980827048	coherent
313.0695	0.074374480987899	11	systole	41	B	500.0	coherent
313.2123	0.074374480987899	11	systole	42	A	995.3600980827048	coherent
313.5073	0.074374480987899	11	systole	43	A	995.3600980827048	coherent
313.6495	0.074374480987899	11	systole	44	B	500.0	coherent
313.7923	0.074374480987899	11	systole	45	A	995.3600980827048	coherent
314.0872	0.074374480987899	11	systole	46	A	995.3600980827048	coherent
314.2294	0.074374480987899	11	systole	47	B	500.0	coherent
314.3723	0.074374480987899	11	systole	48	A	995.3600980827048	coherent
314.6773	0.074374480987899	11	systole	49	A	995.3600980827048	coherent
314.8195	0.074374480987899	11	systole	50	B	500.0	coherent
314.9623	0.074374480987899	11	systole	51	A	995.3600980827048	coherent
317.2698	0.0749969895696267	12	systole	1	A	1018.5781753033378	coherent
317.4208	0.0749969895696267	12	systole	2	B	500.0	coherent
317.5723	0.0749969895696267	12	systole	3	A	1018.5781753033378	coherent
317.8843	0.0749969895696267	12	systole	4	A	1018.5781753033378	coherent
318.0366	0.0749969895696267	12	systole	5	B	500.0	coherent
318.1893	0.0749969895696267	12	systole	6	A	1018.5781753033378	coherent
318.4843	0.0749969895696267	12	systole	7	A	1018.5781753033378	coherent
318.6365	0.0749969895696267	12	systole	8	B	500.0	coherent
318.7893	0.0749969895696267	12	systole	9	A	1018.5781753033378	coherent
319.0843	0.0749969895696267	12	systole	10	A	1018.5781753033378	coherent
319.2365	0.0749969895696267	12	systole	11	B	500.0	coherent
319.3893	0.0749969895696267	12	systole	12	A	1018.5781753033378	coherent
319.6843	0.0749969895696267	12	systole	13	A	1018.5781753033378	coherent
319.8365	0.0749969895696267	12	systole	14	B	500.0	coherent
319.9893	0.0749969895696267	12	systole	15	A	1018.5781753033378	coherent
320.2643	0.0749969895696267	12	systole	16	A	1018.5781753033378	coherent
320.4165	0.0749969895696267	12	systole	17	B	500.0	coherent
320.5693	0.0749969895696267	12	systole	18	A	1018.5781753033378	coherent
320.8497	0.0749969895696267	12	systole	19	A	1018.5781753033378	coherent
321.0007	0.0749969895696267	12	systole	20	B	500.0	coherent
321.1522	0.0749969895696267	12	systole	21	A	1018.5781753033378	coherent
321.4251	0.0749969895696267	12	systole	22	A	1018.5781753033378	coherent
321.5748	0.0749969895696267	12	systole	23	B	500.0	coherent
321.7251	0.0749969895696267	12	systole	24	A	1018.5781753033378	coherent
321.9905	0.0749969895696267	12	systole	25	A	1018.5781753033378	coherent
322.139	0.0749969895696267	12	systole	26	B	500.0	coherent
322.288	0.0749969895696267	12	systole	27	A	1018.5781753033378	coherent
322.5605	0.0749969895696267	12	systole	28	A	1018.5781753033378	coherent
322.709	0.0749969895696267	12	systole	29	B	500.0	coherent
322.858	0.0749969895696267	12	systole	30	A	1018.5781753033378	coherent
323.1212	0.0749969895696267	12	systole	31	A	1018.5781753033378	coherent
323.2672	0.0749969895696267	12	systole	32	B	500.0	coherent
323.4137	0.0749969895696267	12	systole	33	A	1018.5781753033378	coherent
323.6867	0.0749969895696267	12	systole	34	A	1018.5781753033378	coherent
323.8314	0.0749969895696267	12	systole	35	B	500.0	coherent
323.9767	0.0749969895696267	12	systole	36	A	1018.5781753033378	coherent
324.2521	0.0749969895696267	12	systole	37	A	1018.5781753033378	coherent
324.3955	0.0749969895696267	12	systole	38	B	500.0	coherent
324.5396	0.0749969895696267	12	systole	39	A	1018.5781753033378	coherent
324.8221	0.0749969895696267	12	systole	40	A	1018.5781753033378	coherent
324.9655	0.0749969895696267	12	systole	41	B	500.0	coherent
325.1096	0.0749969895696267	12	systole	42	A	1018.5781753033378	coherent
325.4317	0.0749969895696267	12	systole	43	A	1018.5781753033378	coherent
325.5752	0.0749969895696267	12	systole	44	B	500.0	coherent
325.7192	0.0749969895696267	12	systole	45	A	1018.5781753033378	coherent
326.0414	0.0749969895696267	12	systole	46	A	1018.5781753033378	coherent
326.1848	0.0749969895696267	12	systole	47	B	500.0	coherent
326.3289	0.0749969895696267	12	systole	48	A	1018.5781753033378	coherent
326.6614	0.0749969895696267	12	systole	49	A	1018.5781753033378	coherent
326.8048	0.0749969895696267	12	systole	50	B	500.0	coherent
326.9489	0.0749969895696267	12	systole	51	A	1018.5781753033378	coherent
327.2814	0.0749969895696267	12	systole	52	A	1018.5781753033378	coherent
327.4248	0.0749969895696267	12	systole	53	B	500.0	coherent
327.5689	0.0749969895696267	12	systole	54	A	1018.5781753033378	coherent
330.1531	0.0768752440344542	13	diastole	1	A	3457.353363503972	streaming
330.308	0.0768752440344542	13	diastole	2	B	500.0	streaming
330.4631	0.0768752440344542	13	diastole	3	A	3457.353363503972	streaming
330.7549	0.0768752440344542	13	diastole	4	A	3457.353363503972	streaming
330.9099	0.0768752440344542	13	diastole	5	B	500.0	streaming
331.065	0.0768752440344542	13	diastole	6	A	3457.353363503972	streaming
331.355	0.0768752440344542	13	diastole	7	A	3457.353363503972	streaming
331.51	0.0768752440344542	13	diastole	8	B	500.0	streaming
331.665	0.0768752440344542	13	diastole	9	A	3457.353363503972	streaming
331.955	0.0768752440344542	13	diastole	10	A	3457.353363503972	streaming
332.11	0.0768752440344542	13	diastole	11	B	500.0	streaming
332.2651	0.0768752440344542	13	diastole	12	A	3457.353363503972	streaming
332.5531	0.0768752440344542	13	diastole	13	A	3457.353363503972	streaming
332.708	0.0768752440344542	13	diastole	14	B	500.0	streaming
332.8631	0.0768752440344542	13	diastole	15	A	3457.353363503972	streaming
333.1379	0.0768752440344542	13	diastole	16	A	3457.353363503972	streaming
333.2916	0.0768752440344542	13	diastole	17	B	500.0	streaming
333.4454	0.0768752440344542	13	diastole	18	A	3457.353363503972	streaming
333.7187	0.0768752440344542	13	diastole	19	A	3457.353363503972	streaming
333.869	0.0768752440344542	13	diastole	20	B	500.0	streaming
334.0193	0.0768752440344542	13	diastole	21	A	3457.353363503972	streaming
334.3191	0.0768752440344542	13	diastole	22	A	3457.353363503972	streaming
334.4694	0.0768752440344542	13	diastole	23	B	500.0	streaming
334.6197	0.0768752440344542	13	diastole	24	A	3457.353363503972	streaming
334.9075	0.0768752440344542	13	diastole	25	A	3457.353363503972	streaming
335.0575	0.0768752440344542	13	diastole	26	B	500.0	streaming
335.2076	0.0768752440344542	13	diastole	27	A	3457.353363503972	streaming
335.5071	0.0768752440344542	13	diastole	28	A	3457.353363503972	streaming
335.657	0.0768752440344542	13	diastole	29	B	500.0	streaming
335.8071	0.0768752440344542	13	diastole	30	A	3457.353363503972	streaming
336.107	0.0768752440344542	13	diastole	31	A	3457.353363503972	streaming
336.257	0.0768752440344542	13	diastole	32	B	500.0	streaming
336.407	0.0768752440344542	13	diastole	33	A	3457.353363503972	streaming
336.707	0.0768752440344542	13	diastole	34	A	3457.353363503972	streaming
336.857	0.0768752440344542	13	diastole	35	B	500.0	streaming
337.007	0.0768752440344542	13	diastole	36	A	3457.353363503972	streaming
337.307	0.0768752440344542	13	diastole	37	A	3457.353363503972	streaming
337.457	0.0768752440344542	13	diastole	38	B	500.0	streaming
337.607	0.0768752440344542	13	diastole	39	A	3457.353363503972	streaming
337.907	0.0768752440344542	13	diastole	40	A	3457.353363503972	streaming
338.057	0.0768752440344542	13	diastole	41	B	500.0	streaming
338.207	0.0768752440344542	13	diastole	42	A	3457.353363503972	streaming
338.507	0.0768752440344542	13	diastole	43	A	3457.353363503972	streaming
338.657	0.0768752440344542	13	diastole	44	B	500.0	streaming
338.807	0.0768752440344542	13	diastole	45	A	3457.353363503972	streaming
339.1071	0.0768752440344542	13	diastole	46	A	3457.353363503972	streaming
339.2571	0.0768752440344542	13	diastole	47	B	500.0	streaming
339.4071	0.0768752440344542	13	diastole	48	A	3457.353363503972	streaming
342.0749	0.0750023374566808	14	diastole	1	A	3704.9827347719142	streaming
342.225	0.0750023374566808	14	diastole	2	B	500.0	streaming
342.3749	0.0750023374566808	14	diastole	3	A	3704.9827347719142	streaming
342.6634	0.0750023374566808	14	diastole	4	A	3704.9827347719142	streaming
342.8134	0.0750023374566808	14	diastole	5	B	500.0	streaming
342.9634	0.0750023374566808	14	diastole	6	A	3704.9827347719142	streaming
343.2635	0.0750023374566808	14	diastole	7	A	3704.9827347719142	streaming
343.4135	0.0750023374566808	14	diastole	8	B	500.0	streaming
343.5635	0.0750023374566808	14	diastole	9	A	3704.9827347719142	streaming
343.8534	0.0750023374566808	14	diastole	10	A	3704.9827347719142	streaming
344.0035	0.0750023374566808	14	diastole	11	B	500.0	streaming
344.1535	0.0750023374566808	14	diastole	12	A	3704.9827347719142	streaming
344.4435	0.0750023374566808	14	diastole	13	A	3704.9827347719142	streaming
344.5935	0.0750023374566808	14	diastole	14	B	500.0	streaming
344.7434	0.0750023374566808	14	diastole	15	A	3704.9827347719142	streaming
345.0335	0.0750023374566808	14	diastole	16	A	3704.9827347719142	streaming
345.1835	0.0750023374566808	14	diastole	17	B	500.0	streaming
345.3335	0.0750023374566808	14	diastole	18	A	3704.9827347719142	streaming
345.6089	0.0750023374566808	14	diastole	19	A	3704.9827347719142	streaming
345.7564	0.0750023374566808	14	diastole	20	B	500.0	streaming
345.9039	0.0750023374566808	14	diastole	21	A	3704.9827347719142	streaming
346.1985	0.0750023374566808	14	diastole	22	A	3704.9827347719142	streaming
346.346	0.0750023374566808	14	diastole	23	B	500.0	streaming
346.4935	0.0750023374566808	14	diastole	24	A	3704.9827347719142	streaming
346.7885	0.0750023374566808	14	diastole	25	A	3704.9827347719142	streaming
346.936	0.0750023374566808	14	diastole	26	B	500.0	streaming
347.0835	0.0750023374566808	14	diastole	27	A	3704.9827347719142	streaming
347.3789	0.0750023374566808	14	diastole	28	A	3704.9827347719142	streaming
347.5264	0.0750023374566808	14	diastole	29	B	500.0	streaming
347.6739	0.0750023374566808	14	diastole	30	A	3704.9827347719142	streaming
347.9586	0.0750023374566808	14	diastole	31	A	3704.9827347719142	streaming
348.1061	0.0750023374566808	14	diastole	32	B	500.0	streaming
348.2536	0.0750023374566808	14	diastole	33	A	3704.9827347719142	streaming
348.5382	0.0750023374566808	14	diastole	34	A	3704.9827347719142	streaming
348.6858	0.0750023374566808	14	diastole	35	B	500.0	streaming
348.8332	0.0750023374566808	14	diastole	36	A	3704.9827347719142	streaming
349.1182	0.0750023374566808	14	diastole	37	A	3704.9827347719142	streaming
349.2657	0.0750023374566808	14	diastole	38	B	500.0	streaming
349.4132	0.0750023374566808	14	diastole	39	A	3704.9827347719142	streaming
349.6882	0.0750023374566808	14	diastole	40	A	3704.9827347719142	streaming
349.8357	0.0750023374566808	14	diastole	41	B	500.0	streaming
349.9832	0.0750023374566808	14	diastole	42	A	3704.9827347719142	streaming
350.2679	0.0750023374566808	14	diastole	43	A	3704.9827347719142	streaming
350.4154	0.0750023374566808	14	diastole	44	B	500.0	streaming
350.5628	0.0750023374566808	14	diastole	45	A	3704.9827347719142	streaming
350.8441	0.0750023374566808	14	diastole	46	A	3704.9827347719142	streaming
350.9906	0.0750023374566808	14	diastole	47	B	500.0	streaming
351.137	0.0750023374566808	14	diastole	48	A	3704.9827347719142	streaming
353.265	0.0726200578501448	15	diastole	1	A	1169.7126981694591	streaming
353.4114	0.0726200578501448	15	diastole	2	B	500.0	streaming
353.558	0.0726200578501448	15	diastole	3	A	1169.7126981694591	streaming
353.8833	0.0726200578501448	15	diastole	4	A	1169.7126981694591	streaming
354.0297	0.0726200578501448	15	diastole	5	B	500.0	streaming
354.1763	0.0726200578501448	15	diastole	6	A	1169.7126981694591	streaming
354.5162	0.0726200578501448	15	diastole	7	A	1169.7126981694591	streaming
354.6648	0.0726200578501448	15	diastole	8	B	500.0	streaming
354.8137	0.0726200578501448	15	diastole	9	A	1169.7126981694591	streaming
355.1493	0.0726200578501448	15	diastole	10	A	1169.7126981694591	streaming
355.3002	0.0726200578501448	15	diastole	11	B	500.0	streaming
355.4514	0.0726200578501448	15	diastole	12	A	1169.7126981694591	streaming
355.7676	0.0726200578501448	15	diastole	13	A	1169.7126981694591	streaming
355.92	0.0726200578501448	15	diastole	14	B	500.0	streaming
356.0726	0.0726200578501448	15	diastole	15	A	1169.7126981694591	streaming
356.3777	0.0726200578501448	15	diastole	16	A	1169.7126981694591	streaming
356.5301	0.0726200578501448	15	diastole	17	B	500.0	streaming
356.6827	0.0726200578501448	15	diastole	18	A	1169.7126981694591	streaming
356.9776	0.0726200578501448	15	diastole	19	A	1169.7126981694591	streaming
357.1301	0.0726200578501448	15	diastole	20	B	500.0	streaming
357.2827	0.0726200578501448	15	diastole	21	A	1169.7126981694591	streaming
357.5778	0.0726200578501448	15	diastole	22	A	1169.7126981694591	streaming
357.7302	0.0726200578501448	15	diastole	23	B	500.0	streaming
357.8828	0.0726200578501448	15	diastole	24	A	1169.7126981694591	streaming
358.1678	0.0726200578501448	15	diastole	25	A	1169.7126981694591	streaming
358.3202	0.0726200578501448	15	diastole	26	B	500.0	streaming
358.4728	0.0726200578501448	15	diastole	27	A	1169.7126981694591	streaming
358.7578	0.0726200578501448	15	diastole	28	A	1169.7126981694591	streaming
358.9102	0.0726200578501448	15	diastole	29	B	500.0	streaming
359.0628	0.0726200578501448	15	diastole	30	A	1169.7126981694591	streaming
359.3337	0.0726200578501448	15	diastole	31	A	1169.7126981694591	streaming
359.4836	0.0726200578501448	15	diastole	32	B	500.0	streaming
359.6337	0.0726200578501448	15	diastole	33	A	1169.7126981694591	streaming
359.9236	0.0726200578501448	15	diastole	34	A	1169.7126981694591	streaming
360.0735	0.0726200578501448	15	diastole	35	B	500.0	streaming
360.2236	0.0726200578501448	15	diastole	36	A	1169.7126981694591	streaming
360.5137	0.0726200578501448	15	diastole	37	A	1169.7126981694591	streaming
360.6635	0.0726200578501448	15	diastole	38	B	500.0	streaming
360.8136	0.0726200578501448	15	diastole	39	A	1169.7126981694591	streaming
361.1137	0.0726200578501448	15	diastole	40	A	1169.7126981694591	streaming
361.2636	0.0726200578501448	15	diastole	41	B	500.0	streaming
361.4137	0.0726200578501448	15	diastole	42	A	1169.7126981694591	streaming
361.7137	0.0726200578501448	15	diastole	43	A	1169.7126981694591	streaming
361.8636	0.0726200578501448	15	diastole	44	B	500.0	streaming
362.0137	0.0726200578501448	15	diastole	45	A	1169.7126981694591	streaming
362.3131	0.0726200578501448	15	diastole	46	A	1169.7126981694591	streaming
362.463	0.0726200578501448	15	diastole	47	B	500.0	streaming
362.6131	0.0726200578501448	15	diastole	48	A	1169.7126981694591	streaming
362.9235	0.0726200578501448	15	diastole	49	A	1169.7126981694591	streaming
363.0734	0.0726200578501448	15	diastole	50	B	500.0	streaming
363.2234	0.0726200578501448	15	diastole	51	A	1169.7126981694591	streaming
365.3928	0.0750031750649213	16	diastole	1	A	754.7629107028698	streaming
365.5433	0.0750031750649213	16	diastole	2	B	500.0	streaming
365.6953	0.0750031750649213	16	diastole	3	A	754.7629107028698	streaming
366.0128	0.0750031750649213	16	diastole	4	A	754.7629107028698	streaming
366.1633	0.0750031750649213	16	diastole	5	B	500.0	streaming
366.3153	0.0750031750649213	16	diastole	6	A	754.7629107028698	streaming
366.6298	0.0750031750649213	16	diastole	7	A	754.7629107028698	streaming
366.7815	0.0750031750649213	16	diastole	8	B	500.0	streaming
366.9348	0.0750031750649213	16	diastole	9	A	754.7629107028698	streaming
367.2501	0.0750031750649213	16	diastole	10	A	754.7629107028698	streaming
367.4019	0.0750031750649213	16	diastole	11	B	500.0	streaming
367.5552	0.0750031750649213	16	diastole	12	A	754.7629107028698	streaming
367.8702	0.0750031750649213	16	diastole	13	A	754.7629107028698	streaming
368.0219	0.0750031750649213	16	diastole	14	B	500.0	streaming
368.1752	0.0750031750649213	16	diastole	15	A	754.7629107028698	streaming
368.4904	0.0750031750649213	16	diastole	16	A	754.7629107028698	streaming
368.6422	0.0750031750649213	16	diastole	17	B	500.0	streaming
368.7956	0.0750031750649213	16	diastole	18	A	754.7629107028698	streaming
369.1171	0.0750031750649213	16	diastole	19	A	754.7629107028698	streaming
369.2702	0.0750031750649213	16	diastole	20	B	500.0	streaming
369.4247	0.0750031750649213	16	diastole	21	A	754.7629107028698	streaming
369.744	0.0750031750649213	16	diastole	22	A	754.7629107028698	streaming
369.8982	0.0750031750649213	16	diastole	23	B	500.0	streaming
370.054	0.0750031750649213	16	diastole	24	A	754.7629107028698	streaming
370.354	0.0750031750649213	16	diastole	25	A	754.7629107028698	streaming
370.5083	0.0750031750649213	16	diastole	26	B	500.0	streaming
370.664	0.0750031750649213	16	diastole	27	A	754.7629107028698	streaming
370.957	0.0750031750649213	16	diastole	28	A	754.7629107028698	streaming
371.11	0.0750031750649213	16	diastole	29	B	500.0	streaming
371.2645	0.0750031750649213	16	diastole	30	A	754.7629107028698	streaming
371.5499	0.0750031750649213	16	diastole	31	A	754.7629107028698	streaming
371.7017	0.0750031750649213	16	diastole	32	B	500.0	streaming
371.8549	0.0750031750649213	16	diastole	33	A	754.7629107028698	streaming
372.1499	0.0750031750649213	16	diastole	34	A	754.7629107028698	streaming
372.3016	0.0750031750649213	16	diastole	35	B	500.0	streaming
372.4549	0.0750031750649213	16	diastole	36	A	754.7629107028698	streaming
372.76	0.0750031750649213	16	diastole	37	A	754.7629107028698	streaming
372.9117	0.0750031750649213	16	diastole	38	B	500.0	streaming
373.065	0.0750031750649213	16	diastole	39	A	754.7629107028698	streaming
373.3599	0.0750031750649213	16	diastole	40	A	754.7629107028698	streaming
373.5117	0.0750031750649213	16	diastole	41	B	500.0	streaming
373.665	0.0750031750649213	16	diastole	42	A	754.7629107028698	streaming
373.96	0.0750031750649213	16	diastole	43	A	754.7629107028698	streaming
374.1117	0.0750031750649213	16	diastole	44	B	500.0	streaming
374.265	0.0750031750649213	16	diastole	45	A	754.7629107028698	streaming
374.5529	0.0750031750649213	16	diastole	46	A	754.7629107028698	streaming
374.7034	0.0750031750649213	16	diastole	47	B	500.0	streaming
374.8554	0.0750031750649213	16	diastole	48	A	754.7629107028698	streaming
375.1454	0.0750031750649213	16	diastole	49	A	754.7629107028698	streaming
375.2947	0.0750031750649213	16	diastole	50	B	500.0	streaming
375.4454	0.0750031750649213	16	diastole	51	A	754.7629107028698	streaming
377.5249	0.0750049053458496	17	diastole	1	A	3879.8458219911695	streaming
377.675	0.0750049053458496	17	diastole	2	B	500.0	streaming
377.8249	0.0750049053458496	17	diastole	3	A	3879.8458219911695	streaming
378.1349	0.0750049053458496	17	diastole	4	A	3879.8458219911695	streaming
378.285	0.0750049053458496	17	diastole	5	B	500.0	streaming
378.4349	0.0750049053458496	17	diastole	6	A	3879.8458219911695	streaming
378.735	0.0750049053458496	17	diastole	7	A	3879.8458219911695	streaming
378.8851	0.0750049053458496	17	diastole	8	B	500.0	streaming
379.035	0.0750049053458496	17	diastole	9	A	3879.8458219911695	streaming
379.335	0.0750049053458496	17	diastole	10	A	3879.8458219911695	streaming
379.4851	0.0750049053458496	17	diastole	11	B	500.0	streaming
379.6351	0.0750049053458496	17	diastole	12	A	3879.8458219911695	streaming
379.9351	0.0750049053458496	17	diastole	13	A	3879.8458219911695	streaming
380.0852	0.0750049053458496	17	diastole	14	B	500.0	streaming
380.2351	0.0750049053458496	17	diastole	15	A	3879.8458219911695	streaming
380.5352	0.0750049053458496	17	diastole	16	A	3879.8458219911695	streaming
380.6853	0.0750049053458496	17	diastole	17	B	500.0	streaming
380.8352	0.0750049053458496	17	diastole	18	A	3879.8458219911695	streaming
381.1352	0.0750049053458496	17	diastole	19	A	3879.8458219911695	streaming
381.2853	0.0750049053458496	17	diastole	20	B	500.0	streaming
381.4352	0.0750049053458496	17	diastole	21	A	3879.8458219911695	streaming
381.7252	0.0750049053458496	17	diastole	22	A	3879.8458219911695	streaming
381.8752	0.0750049053458496	17	diastole	23	B	500.0	streaming
382.0252	0.0750049053458496	17	diastole	24	A	3879.8458219911695	streaming
382.3251	0.0750049053458496	17	diastole	25	A	3879.8458219911695	streaming
382.4752	0.0750049053458496	17	diastole	26	B	500.0	streaming
382.6252	0.0750049053458496	17	diastole	27	A	3879.8458219911695	streaming
382.9251	0.0750049053458496	17	diastole	28	A	3879.8458219911695	streaming
383.0752	0.0750049053458496	17	diastole	29	B	500.0	streaming
383.2252	0.0750049053458496	17	diastole	30	A	3879.8458219911695	streaming
383.5151	0.0750049053458496	17	diastole	31	A	3879.8458219911695	streaming
383.6652	0.0750049053458496	17	diastole	32	B	500.0	streaming
383.8151	0.0750049053458496	17	diastole	33	A	3879.8458219911695	streaming
384.1051	0.0750049053458496	17	diastole	34	A	3879.8458219911695	streaming
384.2551	0.0750049053458496	17	diastole	35	B	500.0	streaming
384.405	0.0750049053458496	17	diastole	36	A	3879.8458219911695	streaming
384.6949	0.0750049053458496	17	diastole	37	A	3879.8458219911695	streaming
384.845	0.0750049053458496	17	diastole	38	B	500.0	streaming
384.9949	0.0750049053458496	17	diastole	39	A	3879.8458219911695	streaming
385.2779	0.0750049053458496	17	diastole	40	A	3879.8458219911695	streaming
385.4267	0.0750049053458496	17	diastole	41	B	500.0	streaming
385.5754	0.0750049053458496	17	diastole	42	A	3879.8458219911695	streaming
385.8609	0.0750049053458496	17	diastole	43	A	3879.8458219911695	streaming
386.0085	0.0750049053458496	17	diastole	44	B	500.0	streaming
386.1559	0.0750049053458496	17	diastole	45	A	3879.8458219911695	streaming
386.4509	0.0750049053458496	17	diastole	46	A	3879.8458219911695	streaming
386.5985	0.0750049053458496	17	diastole	47	B	500.0	streaming
386.7459	0.0750049053458496	17	diastole	48	A	3879.8458219911695	streaming
387.0408	0.0750049053458496	17	diastole	49	A	3879.8458219911695	streaming
387.1884	0.0750049053458496	17	diastole	50	B	500.0	streaming
387.3359	0.0750049053458496	17	diastole	51	A	3879.8458219911695	streaming
390.2421	0.0732449298957362	18	systole	1	A	4455.529320143999	streaming
390.3886	0.0732449298957362	18	systole	2	B	500.0	streaming
390.5351	0.0732449298957362	18	systole	3	A	4455.529320143999	streaming
390.8322	0.0732449298957362	18	systole	4	A	4455.529320143999	streaming
390.9787	0.0732449298957362	18	systole	5	B	500.0	streaming
391.1251	0.0732449298957362	18	systole	6	A	4455.529320143999	streaming
391.4222	0.0732449298957362	18	systole	7	A	4455.529320143999	streaming
391.5687	0.0732449298957362	18	systole	8	B	500.0	streaming
391.7152	0.0732449298957362	18	systole	9	A	4455.529320143999	streaming
392.0122	0.0732449298957362	18	systole	10	A	4455.529320143999	streaming
392.1587	0.0732449298957362	18	systole	11	B	500.0	streaming
392.3052	0.0732449298957362	18	systole	12	A	4455.529320143999	streaming
392.5873	0.0732449298957362	18	systole	13	A	4455.529320143999	streaming
392.7326	0.0732449298957362	18	systole	14	B	500.0	streaming
392.8778	0.0732449298957362	18	systole	15	A	4455.529320143999	streaming
393.1565	0.0732449298957362	18	systole	16	A	4455.529320143999	streaming
393.3016	0.0732449298957362	18	systole	17	B	500.0	streaming
393.4467	0.0732449298957362	18	systole	18	A	4455.529320143999	streaming
393.7265	0.0732449298957362	18	systole	19	A	4455.529320143999	streaming
393.8716	0.0732449298957362	18	systole	20	B	500.0	streaming
394.0167	0.0732449298957362	18	systole	21	A	4455.529320143999	streaming
394.2965	0.0732449298957362	18	systole	22	A	4455.529320143999	streaming
394.4416	0.0732449298957362	18	systole	23	B	500.0	streaming
394.5867	0.0732449298957362	18	systole	24	A	4455.529320143999	streaming
394.8665	0.0732449298957362	18	systole	25	A	4455.529320143999	streaming
395.0116	0.0732449298957362	18	systole	26	B	500.0	streaming
395.1567	0.0732449298957362	18	systole	27	A	4455.529320143999	streaming
395.4359	0.0732449298957362	18	systole	28	A	4455.529320143999	streaming
395.581	0.0732449298957362	18	systole	29	B	500.0	streaming
395.7261	0.0732449298957362	18	systole	30	A	4455.529320143999	streaming
395.9862	0.0732449298957362	18	systole	31	A	4455.529320143999	streaming
396.1312	0.0732449298957362	18	systole	32	B	500.0	streaming
396.2761	0.0732449298957362	18	systole	33	A	4455.529320143999	streaming
396.5366	0.0732449298957362	18	systole	34	A	4455.529320143999	streaming
396.6816	0.0732449298957362	18	systole	35	B	500.0	streaming
396.8266	0.0732449298957362	18	systole	36	A	4455.529320143999	streaming
397.0919	0.0732449298957362	18	systole	37	A	4455.529320143999	streaming
397.2356	0.0732449298957362	18	systole	38	B	500.0	streaming
397.3792	0.0732449298957362	18	systole	39	A	4455.529320143999	streaming
397.6327	0.0732449298957362	18	systole	40	A	4455.529320143999	streaming
397.7739	0.0732449298957362	18	systole	41	B	500.0	streaming
397.9151	0.0732449298957362	18	systole	42	A	4455.529320143999	streaming
398.1681	0.0732449298957362	18	systole	43	A	4455.529320143999	streaming
398.3081	0.0732449298957362	18	systole	44	B	500.0	streaming
398.4481	0.0732449298957362	18	systole	45	A	4455.529320143999	streaming
398.7082	0.0732449298957362	18	systole	46	A	4455.529320143999	streaming
398.8481	0.0732449298957362	18	systole	47	B	500.0	streaming
398.9881	0.0732449298957362	18	systole	48	A	4455.529320143999	streaming
399.2482	0.0732449298957362	18	systole	49	A	4455.529320143999	streaming
399.3882	0.0732449298957362	18	systole	50	B	500.0	streaming
399.5281	0.0732449298957362	18	systole	51	A	4455.529320143999	streaming
399.7938	0.0732449298957362	18	systole	52	A	4455.529320143999	streaming
399.9326	0.0732449298957362	18	systole	53	B	500.0	streaming
400.0713	0.0732449298957362	18	systole	54	A	4455.529320143999	streaming
402.4601	0.0680999156320467	19	systole	1	A	1066.651739219328	coherent
402.5949	0.0680999156320467	19	systole	2	B	500.0	coherent
402.7301	0.0680999156320467	19	systole	3	A	1066.651739219328	coherent
403.0001	0.0680999156320467	19	systole	4	A	1066.651739219328	coherent
403.1349	0.0680999156320467	19	systole	5	B	500.0	coherent
403.2701	0.0680999156320467	19	systole	6	A	1066.651739219328	coherent
403.5401	0.0680999156320467	19	systole	7	A	1066.651739219328	coherent
403.6749	0.0680999156320467	19	systole	8	B	500.0	coherent
403.8101	0.0680999156320467	19	systole	9	A	1066.651739219328	coherent
404.0802	0.0680999156320467	19	systole	10	A	1066.651739219328	coherent
404.2149	0.0680999156320467	19	systole	11	B	500.0	coherent
404.3502	0.0680999156320467	19	systole	12	A	1066.651739219328	coherent
404.6202	0.0680999156320467	19	systole	13	A	1066.651739219328	coherent
404.7549	0.0680999156320467	19	systole	14	B	500.0	coherent
404.8902	0.0680999156320467	19	systole	15	A	1066.651739219328	coherent
405.1702	0.0680999156320467	19	systole	16	A	1066.651739219328	coherent
405.3049	0.0680999156320467	19	systole	17	B	500.0	coherent
405.4402	0.0680999156320467	19	systole	18	A	1066.651739219328	coherent
405.7301	0.0680999156320467	19	systole	19	A	1066.651739219328	coherent
405.8649	0.0680999156320467	19	systole	20	B	500.0	coherent
406.0001	0.0680999156320467	19	systole	21	A	1066.651739219328	coherent
406.2902	0.0680999156320467	19	systole	22	A	1066.651739219328	coherent
406.4249	0.0680999156320467	19	systole	23	B	500.0	coherent
406.5602	0.0680999156320467	19	systole	24	A	1066.651739219328	coherent
406.89	0.0680999156320467	19	systole	25	A	1066.651739219328	coherent
407.0248	0.0680999156320467	19	systole	26	B	500.0	coherent
407.1601	0.0680999156320467	19	systole	27	A	1066.651739219328	coherent
407.5346	0.0680999156320467	19	systole	28	A	1066.651739219328	coherent
407.6707	0.0680999156320467	19	systole	29	B	500.0	coherent
407.8072	0.0680999156320467	19	systole	30	A	1066.651739219328	coherent
408.2437	0.0680999156320467	19	systole	31	A	1066.651739219328	coherent
408.3822	0.0680999156320467	19	systole	32	B	500.0	coherent
408.5211	0.0680999156320467	19	systole	33	A	1066.651739219328	coherent
408.9435	0.0680999156320467	19	systole	34	A	1066.651739219328	coherent
409.082	0.0680999156320467	19	systole	35	B	500.0	coherent
409.221	0.0680999156320467	19	systole	36	A	1066.651739219328	coherent
409.7765	0.0680999156320467	19	systole	37	A	1066.651739219328	coherent
409.9213	0.0680999156320467	19	systole	38	B	500.0	coherent
410.0665	0.0680999156320467	19	systole	39	A	1066.651739219328	coherent
410.5866	0.0680999156320467	19	systole	40	A	1066.651739219328	coherent
410.7314	0.0680999156320467	19	systole	41	B	500.0	coherent
410.8766	0.0680999156320467	19	systole	42	A	1066.651739219328	coherent
411.4035	0.0680999156320467	19	systole	43	A	1066.651739219328	coherent
411.5583	0.0680999156320467	19	systole	44	B	500.0	coherent
411.7135	0.0680999156320467	19	systole	45	A	1066.651739219328	coherent
415.3946	0.0900187322404235	20	diastole	1	A	521.8964175933227	coherent
415.5746	0.0900187322404235	20	diastole	2	B	500.0	coherent
415.7546	0.0900187322404235	20	diastole	3	A	521.8964175933227	coherent
415.969	0.0900187322404235	20	diastole	4	A	521.8964175933227	coherent
416.1427	0.0900187322404235	20	diastole	5	B	500.0	coherent
416.3163	0.0900187322404235	20	diastole	6	A	521.8964175933227	coherent
416.5409	0.0900187322404235	20	diastole	7	A	521.8964175933227	coherent
416.7097	0.0900187322404235	20	diastole	8	B	500.0	coherent
416.8784	0.0900187322404235	20	diastole	9	A	521.8964175933227	coherent
417.1409	0.0900187322404235	20	diastole	10	A	521.8964175933227	coherent
417.3096	0.0900187322404235	20	diastole	11	B	500.0	coherent
417.4784	0.0900187322404235	20	diastole	12	A	521.8964175933227	coherent
417.7125	0.0900187322404235	20	diastole	13	A	521.8964175933227	coherent
417.8763	0.0900187322404235	20	diastole	14	B	500.0	coherent
418.04	0.0900187322404235	20	diastole	15	A	521.8964175933227	coherent
418.243	0.0900187322404235	20	diastole	16	A	521.8964175933227	coherent
418.398	0.0900187322404235	20	diastole	17	B	500.0	coherent
418.553	0.0900187322404235	20	diastole	18	A	521.8964175933227	coherent
418.823	0.0900187322404235	20	diastole	19	A	521.8964175933227	coherent
418.9781	0.0900187322404235	20	diastole	20	B	500.0	coherent
419.1331	0.0900187322404235	20	diastole	21	A	521.8964175933227	coherent
419.3818	0.0900187322404235	20	diastole	22	A	521.8964175933227	coherent
419.5331	0.0900187322404235	20	diastole	23	B	500.0	coherent
419.6844	0.0900187322404235	20	diastole	24	A	521.8964175933227	coherent
419.9576	0.0900187322404235	20	diastole	25	A	521.8964175933227	coherent
420.1064	0.0900187322404235	20	diastole	26	B	500.0	coherent
420.2551	0.0900187322404235	20	diastole	27	A	521.8964175933227	coherent
420.5476	0.0900187322404235	20	diastole	28	A	521.8964175933227	coherent
420.6964	0.0900187322404235	20	diastole	29	B	500.0	coherent
420.8451	0.0900187322404235	20	diastole	30	A	521.8964175933227	coherent
421.1305	0.0900187322404235	20	diastole	31	A	521.8964175933227	coherent
421.2781	0.0900187322404235	20	diastole	32	B	500.0	coherent
421.4255	0.0900187322404235	20	diastole	33	A	521.8964175933227	coherent
421.7205	0.0900187322404235	20	diastole	34	A	521.8964175933227	coherent
421.8681	0.0900187322404235	20	diastole	35	B	500.0	coherent
422.0155	0.0900187322404235	20	diastole	36	A	521.8964175933227	coherent
422.3105	0.0900187322404235	20	diastole	37	A	521.8964175933227	coherent
422.4581	0.0900187322404235	20	diastole	38	B	500.0	coherent
422.6055	0.0900187322404235	20	diastole	39	A	521.8964175933227	coherent
422.9005	0.0900187322404235	20	diastole	40	A	521.8964175933227	coherent
423.048	0.0900187322404235	20	diastole	41	B	500.0	coherent
423.1955	0.0900187322404235	20	diastole	42	A	521.8964175933227	coherent
423.4905	0.0900187322404235	20	diastole	43	A	521.8964175933227	coherent
423.6381	0.0900187322404235	20	diastole	44	B	500.0	coherent
423.7855	0.0900187322404235	20	diastole	45	A	521.8964175933227	coherent
424.0905	0.0900187322404235	20	diastole	46	A	521.8964175933227	coherent
424.2381	0.0900187322404235	20	diastole	47	B	500.0	coherent
424.3855	0.0900187322404235	20	diastole	48	A	521.8964175933227	coherent
424.6905	0.0900187322404235	20	diastole	49	A	521.8964175933227	coherent
424.8381	0.0900187322404235	20	diastole	50	B	500.0	coherent
424.9855	0.0900187322404235	20	diastole	51	A	521.8964175933227	coherent
428.3549	0.0750023347791284	21	diastole	1	A	534.0703346994981	coherent
428.505	0.0750023347791284	21	diastole	2	B	500.0	coherent
428.6549	0.0750023347791284	21	diastole	3	A	534.0703346994981	coherent
428.9449	0.0750023347791284	21	diastole	4	A	534.0703346994981	coherent
429.095	0.0750023347791284	21	diastole	5	B	500.0	coherent
429.2449	0.0750023347791284	21	diastole	6	A	534.0703346994981	coherent
429.5349	0.0750023347791284	21	diastole	7	A	534.0703346994981	coherent
429.685	0.0750023347791284	21	diastole	8	B	500.0	coherent
429.835	0.0750023347791284	21	diastole	9	A	534.0703346994981	coherent
430.115	0.0750023347791284	21	diastole	10	A	534.0703346994981	coherent
430.265	0.0750023347791284	21	diastole	11	B	500.0	coherent
430.415	0.0750023347791284	21	diastole	12	A	534.0703346994981	coherent
430.6945	0.0750023347791284	21	diastole	13	A	534.0703346994981	coherent
430.8445	0.0750023347791284	21	diastole	14	B	500.0	coherent
430.9945	0.0750023347791284	21	diastole	15	A	534.0703346994981	coherent
431.2838	0.0750023347791284	21	diastole	16	A	534.0703346994981	coherent
431.4337	0.0750023347791284	21	diastole	17	B	500.0	coherent
431.5834	0.0750023347791284	21	diastole	18	A	534.0703346994981	coherent
431.857	0.0750023347791284	21	diastole	19	A	534.0703346994981	coherent
432.0057	0.0750023347791284	21	diastole	20	B	500.0	coherent
432.1542	0.0750023347791284	21	diastole	21	A	534.0703346994981	coherent
432.4311	0.0750023347791284	21	diastole	22	A	534.0703346994981	coherent
432.5787	0.0750023347791284	21	diastole	23	B	500.0	coherent
432.7262	0.0750023347791284	21	diastole	24	A	534.0703346994981	coherent
433.0111	0.0750023347791284	21	diastole	25	A	534.0703346994981	coherent
433.1587	0.0750023347791284	21	diastole	26	B	500.0	coherent
433.3062	0.0750023347791284	21	diastole	27	A	534.0703346994981	coherent
433.6007	0.0750023347791284	21	diastole	28	A	534.0703346994981	coherent
433.7482	0.0750023347791284	21	diastole	29	B	500.0	coherent
433.8957	0.0750023347791284	21	diastole	30	A	534.0703346994981	coherent
434.1906	0.0750023347791284	21	diastole	31	A	534.0703346994981	coherent
434.3382	0.0750023347791284	21	diastole	32	B	500.0	coherent
434.4856	0.0750023347791284	21	diastole	33	A	534.0703346994981	coherent
434.7736	0.0750023347791284	21	diastole	34	A	534.0703346994981	coherent
434.9199	0.0750023347791284	21	diastole	35	B	500.0	coherent
435.0661	0.0750023347791284	21	diastole	36	A	534.0703346994981	coherent
435.3637	0.0750023347791284	21	diastole	37	A	534.0703346994981	coherent
435.51	0.0750023347791284	21	diastole	38	B	500.0	coherent
435.6562	0.0750023347791284	21	diastole	39	A	534.0703346994981	coherent
435.9264	0.0750023347791284	21	diastole	40	A	534.0703346994981	coherent
436.0715	0.0750023347791284	21	diastole	41	B	500.0	coherent
436.2164	0.0750023347791284	21	diastole	42	A	534.0703346994981	coherent
436.5064	0.0750023347791284	21	diastole	43	A	534.0703346994981	coherent
436.6514	0.0750023347791284	21	diastole	44	B	500.0	coherent
436.7964	0.0750023347791284	21	diastole	45	A	534.0703346994981	coherent
437.0864	0.0750023347791284	21	diastole	46	A	534.0703346994981	coherent
437.2314	0.0750023347791284	21	diastole	47	B	500.0	coherent
437.3764	0.0750023347791284	21	diastole	48	A	534.0703346994981	coherent
439.6174	0.0718787049409002	22	systole	1	A	4254.720409722799	streaming
439.7598	0.0718787049409002	22	systole	2	B	500.0	streaming
439.9024	0.0718787049409002	22	systole	3	A	4254.720409722799	streaming
440.1873	0.0718787049409002	22	systole	4	A	4254.720409722799	streaming
440.3298	0.0718787049409002	22	systole	5	B	500.0	streaming
440.4723	0.0718787049409002	22	systole	6	A	4254.720409722799	streaming
440.7573	0.0718787049409002	22	systole	7	A	4254.720409722799	streaming
440.8998	0.0718787049409002	22	systole	8	B	500.0	streaming
441.0423	0.0718787049409002	22	systole	9	A	4254.720409722799	streaming
441.3173	0.0718787049409002	22	systole	10	A	4254.720409722799	streaming
441.4598	0.0718787049409002	22	systole	11	B	500.0	streaming
441.6024	0.0718787049409002	22	systole	12	A	4254.720409722799	streaming
441.8973	0.0718787049409002	22	systole	13	A	4254.720409722799	streaming
442.0398	0.0718787049409002	22	systole	14	B	500.0	streaming
442.1824	0.0718787049409002	22	systole	15	A	4254.720409722799	streaming
442.4672	0.0718787049409002	22	systole	16	A	4254.720409722799	streaming
442.6096	0.0718787049409002	22	systole	17	B	500.0	streaming
442.7522	0.0718787049409002	22	systole	18	A	4254.720409722799	streaming
443.0474	0.0718787049409002	22	systole	19	A	4254.720409722799	streaming
443.1899	0.0718787049409002	22	systole	20	B	500.0	streaming
443.3324	0.0718787049409002	22	systole	21	A	4254.720409722799	streaming
443.6274	0.0718787049409002	22	systole	22	A	4254.720409722799	streaming
443.7699	0.0718787049409002	22	systole	23	B	500.0	streaming
443.9125	0.0718787049409002	22	systole	24	A	4254.720409722799	streaming
444.2224	0.0718787049409002	22	systole	25	A	4254.720409722799	streaming
444.3661	0.0718787049409002	22	systole	26	B	500.0	streaming
444.5099	0.0718787049409002	22	systole	27	A	4254.720409722799	streaming
444.8128	0.0718787049409002	22	systole	28	A	4254.720409722799	streaming
444.9565	0.0718787049409002	22	systole	29	B	500.0	streaming
445.1003	0.0718787049409002	22	systole	30	A	4254.720409722799	streaming
445.4074	0.0718787049409002	22	systole	31	A	4254.720409722799	streaming
445.5524	0.0718787049409002	22	systole	32	B	500.0	streaming
445.6974	0.0718787049409002	22	systole	33	A	4254.720409722799	streaming
445.9974	0.0718787049409002	22	systole	34	A	4254.720409722799	streaming
446.1424	0.0718787049409002	22	systole	35	B	500.0	streaming
446.2874	0.0718787049409002	22	systole	36	A	4254.720409722799	streaming
446.5919	0.0718787049409002	22	systole	37	A	4254.720409722799	streaming
446.7381	0.0718787049409002	22	systole	38	B	500.0	streaming
446.8843	0.0718787049409002	22	systole	39	A	4254.720409722799	streaming
447.196	0.0718787049409002	22	systole	40	A	4254.720409722799	streaming
447.3434	0.0718787049409002	22	systole	41	B	500.0	streaming
447.4909	0.0718787049409002	22	systole	42	A	4254.720409722799	streaming
447.7866	0.0718787049409002	22	systole	43	A	4254.720409722799	streaming
447.934	0.0718787049409002	22	systole	44	B	500.0	streaming
448.0815	0.0718787049409002	22	systole	45	A	4254.720409722799	streaming
448.3662	0.0718787049409002	22	systole	46	A	4254.720409722799	streaming
448.5136	0.0718787049409002	22	systole	47	B	500.0	streaming
448.6612	0.0718787049409002	22	systole	48	A	4254.720409722799	streaming
448.9458	0.0718787049409002	22	systole	49	A	4254.720409722799	streaming
449.0933	0.0718787049409002	22	systole	50	B	500.0	streaming
449.2408	0.0718787049409002	22	systole	51	A	4254.720409722799	streaming
450.889	0.0731038873782381	23	diastole	1	A	4157.735780147634	streaming
451.0326	0.0731038873782381	23	diastole	2	B	500.0	streaming
451.1764	0.0731038873782381	23	diastole	3	A	4157.735780147634	streaming
451.4422	0.0731038873782381	23	diastole	4	A	4157.735780147634	streaming
451.5847	0.0731038873782381	23	diastole	5	B	500.0	streaming
451.7272	0.0731038873782381	23	diastole	6	A	4157.735780147634	streaming
452.0023	0.0731038873782381	23	diastole	7	A	4157.735780147634	streaming
452.1447	0.0731038873782381	23	diastole	8	B	500.0	streaming
452.2873	0.0731038873782381	23	diastole	9	A	4157.735780147634	streaming
452.5552	0.0731038873782381	23	diastole	10	A	4157.735780147634	streaming
452.6964	0.0731038873782381	23	diastole	11	B	500.0	streaming
452.8377	0.0731038873782381	23	diastole	12	A	4157.735780147634	streaming
453.1353	0.0731038873782381	23	diastole	13	A	4157.735780147634	streaming
453.2765	0.0731038873782381	23	diastole	14	B	500.0	streaming
453.4178	0.0731038873782381	23	diastole	15	A	4157.735780147634	streaming
453.7154	0.0731038873782381	23	diastole	16	A	4157.735780147634	streaming
453.8566	0.0731038873782381	23	diastole	17	B	500.0	streaming
453.9979	0.0731038873782381	23	diastole	18	A	4157.735780147634	streaming
454.3153	0.0731038873782381	23	diastole	19	A	4157.735780147634	streaming
454.4565	0.0731038873782381	23	diastole	20	B	500.0	streaming
454.5978	0.0731038873782381	23	diastole	21	A	4157.735780147634	streaming
454.9351	0.0731038873782381	23	diastole	22	A	4157.735780147634	streaming
455.0762	0.0731038873782381	23	diastole	23	B	500.0	streaming
455.2176	0.0731038873782381	23	diastole	24	A	4157.735780147634	streaming
455.5548	0.0731038873782381	23	diastole	25	A	4157.735780147634	streaming
455.696	0.0731038873782381	23	diastole	26	B	500.0	streaming
455.8373	0.0731038873782381	23	diastole	27	A	4157.735780147634	streaming
456.184	0.0731038873782381	23	diastole	28	A	4157.735780147634	streaming
456.3265	0.0731038873782381	23	diastole	29	B	500.0	streaming
456.4691	0.0731038873782381	23	diastole	30	A	4157.735780147634	streaming
456.8543	0.0731038873782381	23	diastole	31	A	4157.735780147634	streaming
457.0018	0.0731038873782381	23	diastole	32	B	500.0	streaming
457.1493	0.0731038873782381	23	diastole	33	A	4157.735780147634	streaming
457.4963	0.0731038873782381	23	diastole	34	A	4157.735780147634	streaming
457.6437	0.0731038873782381	23	diastole	35	B	500.0	streaming
457.7913	0.0731038873782381	23	diastole	36	A	4157.735780147634	streaming
458.1804	0.0731038873782381	23	diastole	37	A	4157.735780147634	streaming
458.3355	0.0731038873782381	23	diastole	38	B	500.0	streaming
458.4908	0.0731038873782381	23	diastole	39	A	4157.735780147634	streaming
458.8208	0.0731038873782381	23	diastole	40	A	4157.735780147634	streaming
458.976	0.0731038873782381	23	diastole	41	B	500.0	streaming
459.1312	0.0731038873782381	23	diastole	42	A	4157.735780147634	streaming
459.441	0.0731038873782381	23	diastole	43	A	4157.735780147634	streaming
459.5962	0.0731038873782381	23	diastole	44	B	500.0	streaming
459.7515	0.0731038873782381	23	diastole	45	A	4157.735780147634	streaming
460.0766	0.0731038873782381	23	diastole	46	A	4157.735780147634	streaming
460.2328	0.0731038873782381	23	diastole	47	B	500.0	streaming
460.3891	0.0731038873782381	23	diastole	48	A	4157.735780147634	streaming
460.6863	0.0731038873782381	23	diastole	49	A	4157.735780147634	streaming
460.8425	0.0731038873782381	23	diastole	50	B	500.0	streaming
460.9988	0.0731038873782381	23	diastole	51	A	4157.735780147634	streaming
463.3001	0.0756065312307328	24	systole	1	A	4157.735780147634	streaming
463.4489	0.0756065312307328	24	systole	2	B	500.0	streaming
463.5977	0.0756065312307328	24	systole	3	A	4157.735780147634	streaming
463.8856	0.0756065312307328	24	systole	4	A	4157.735780147634	streaming
464.0331	0.0756065312307328	24	systole	5	B	500.0	streaming
464.1807	0.0756065312307328	24	systole	6	A	4157.735780147634	streaming
464.4757	0.0756065312307328	24	systole	7	A	4157.735780147634	streaming
464.6231	0.0756065312307328	24	systole	8	B	500.0	streaming
464.7707	0.0756065312307328	24	systole	9	A	4157.735780147634	streaming
465.0657	0.0756065312307328	24	systole	10	A	4157.735780147634	streaming
465.2132	0.0756065312307328	24	systole	11	B	500.0	streaming
465.3608	0.0756065312307328	24	systole	12	A	4157.735780147634	streaming
465.6557	0.0756065312307328	24	systole	13	A	4157.735780147634	streaming
465.8032	0.0756065312307328	24	systole	14	B	500.0	streaming
465.9507	0.0756065312307328	24	systole	15	A	4157.735780147634	streaming
466.2557	0.0756065312307328	24	systole	16	A	4157.735780147634	streaming
466.4031	0.0756065312307328	24	systole	17	B	500.0	streaming
466.5507	0.0756065312307328	24	systole	18	A	4157.735780147634	streaming
466.8557	0.0756065312307328	24	systole	19	A	4157.735780147634	streaming
467.0031	0.0756065312307328	24	systole	20	B	500.0	streaming
467.1507	0.0756065312307328	24	systole	21	A	4157.735780147634	streaming
467.4557	0.0756065312307328	24	systole	22	A	4157.735780147634	streaming
467.6031	0.0756065312307328	24	systole	23	B	500.0	streaming
467.7507	0.0756065312307328	24	systole	24	A	4157.735780147634	streaming
468.0557	0.0756065312307328	24	systole	25	A	4157.735780147634	streaming
468.2031	0.0756065312307328	24	systole	26	B	500.0	streaming
468.3507	0.0756065312307328	24	systole	27	A	4157.735780147634	streaming
468.6603	0.0756065312307328	24	systole	28	A	4157.735780147634	streaming
468.809	0.0756065312307328	24	systole	29	B	500.0	streaming
468.9578	0.0756065312307328	24	systole	30	A	4157.735780147634	streaming
469.2448	0.0756065312307328	24	systole	31	A	4157.735780147634	streaming
469.3948	0.0756065312307328	24	systole	32	B	500.0	streaming
469.5448	0.0756065312307328	24	systole	33	A	4157.735780147634	streaming
469.8249	0.0756065312307328	24	systole	34	A	4157.735780147634	streaming
469.9748	0.0756065312307328	24	systole	35	B	500.0	streaming
470.1249	0.0756065312307328	24	systole	36	A	4157.735780147634	streaming
470.405	0.0756065312307328	24	systole	37	A	4157.735780147634	streaming
470.5549	0.0756065312307328	24	systole	38	B	500.0	streaming
470.7049	0.0756065312307328	24	systole	39	A	4157.735780147634	streaming
470.9851	0.0756065312307328	24	systole	40	A	4157.735780147634	streaming
471.1351	0.0756065312307328	24	systole	41	B	500.0	streaming
471.2851	0.0756065312307328	24	systole	42	A	4157.735780147634	streaming
471.5562	0.0756065312307328	24	systole	43	A	4157.735780147634	streaming
471.7036	0.0756065312307328	24	systole	44	B	500.0	streaming
471.8512	0.0756065312307328	24	systole	45	A	4157.735780147634	streaming
472.1362	0.0756065312307328	24	systole	46	A	4157.735780147634	streaming
472.2837	0.0756065312307328	24	systole	47	B	500.0	streaming
472.4313	0.0756065312307328	24	systole	48	A	4157.735780147634	streaming
474.3802	0.0737358054611831	25	diastole	1	A	521.8964175933227	coherent
474.5277	0.0737358054611831	25	diastole	2	B	500.0	coherent
474.6752	0.0737358054611831	25	diastole	3	A	521.8964175933227	coherent
474.9998	0.0737358054611831	25	diastole	4	A	521.8964175933227	coherent
475.1474	0.0737358054611831	25	diastole	5	B	500.0	coherent
475.2948	0.0737358054611831	25	diastole	6	A	521.8964175933227	coherent
475.6468	0.0737358054611831	25	diastole	7	A	521.8964175933227	coherent
475.7991	0.0737358054611831	25	diastole	8	B	500.0	coherent
475.9513	0.0737358054611831	25	diastole	9	A	521.8964175933227	coherent
476.2473	0.0737358054611831	25	diastole	10	A	521.8964175933227	coherent
476.3996	0.0737358054611831	25	diastole	11	B	500.0	coherent
476.5519	0.0737358054611831	25	diastole	12	A	521.8964175933227	coherent
476.8273	0.0737358054611831	25	diastole	13	A	521.8964175933227	coherent
476.9796	0.0737358054611831	25	diastole	14	B	500.0	coherent
477.1319	0.0737358054611831	25	diastole	15	A	521.8964175933227	coherent
477.4073	0.0737358054611831	25	diastole	16	A	521.8964175933227	coherent
477.5597	0.0737358054611831	25	diastole	17	B	500.0	coherent
477.7119	0.0737358054611831	25	diastole	18	A	521.8964175933227	coherent
477.9873	0.0737358054611831	25	diastole	19	A	521.8964175933227	coherent
478.1397	0.0737358054611831	25	diastole	20	B	500.0	coherent
478.292	0.0737358054611831	25	diastole	21	A	521.8964175933227	coherent
478.5674	0.0737358054611831	25	diastole	22	A	521.8964175933227	coherent
478.7197	0.0737358054611831	25	diastole	23	B	500.0	coherent
478.872	0.0737358054611831	25	diastole	24	A	521.8964175933227	coherent
479.1474	0.0737358054611831	25	diastole	25	A	521.8964175933227	coherent
479.2997	0.0737358054611831	25	diastole	26	B	500.0	coherent
479.452	0.0737358054611831	25	diastole	27	A	521.8964175933227	coherent
479.6831	0.0737358054611831	25	diastole	28	A	521.8964175933227	coherent
479.8294	0.0737358054611831	25	diastole	29	B	500.0	coherent
479.9757	0.0737358054611831	25	diastole	30	A	521.8964175933227	coherent
480.2561	0.0737358054611831	25	diastole	31	A	521.8964175933227	coherent
480.4011	0.0737358054611831	25	diastole	32	B	500.0	coherent
480.5461	0.0737358054611831	25	diastole	33	A	521.8964175933227	coherent
480.8361	0.0737358054611831	25	diastole	34	A	521.8964175933227	coherent
480.9811	0.0737358054611831	25	diastole	35	B	500.0	coherent
481.1261	0.0737358054611831	25	diastole	36	A	521.8964175933227	coherent
481.4161	0.0737358054611831	25	diastole	37	A	521.8964175933227	coherent
481.5612	0.0737358054611831	25	diastole	38	B	500.0	coherent
481.7061	0.0737358054611831	25	diastole	39	A	521.8964175933227	coherent
482.0061	0.0737358054611831	25	diastole	40	A	521.8964175933227	coherent
482.1512	0.0737358054611831	25	diastole	41	B	500.0	coherent
482.2961	0.0737358054611831	25	diastole	42	A	521.8964175933227	coherent
482.5961	0.0737358054611831	25	diastole	43	A	521.8964175933227	coherent
482.7412	0.0737358054611831	25	diastole	44	B	500.0	coherent
482.8861	0.0737358054611831	25	diastole	45	A	521.8964175933227	coherent
483.1861	0.0737358054611831	25	diastole	46	A	521.8964175933227	coherent
483.3312	0.0737358054611831	25	diastole	47	B	500.0	coherent
483.4761	0.0737358054611831	25	diastole	48	A	521.8964175933227	coherent
486.7506	0.0737515562213957	26	diastole	1	A	4062.961875947593	streaming
486.898	0.0737515562213957	26	diastole	2	B	500.0	streaming
487.0456	0.0737515562213957	26	diastole	3	A	4062.961875947593	streaming
487.3407	0.0737515562213957	26	diastole	4	A	4062.961875947593	streaming
487.4881	0.0737515562213957	26	diastole	5	B	500.0	streaming
487.6357	0.0737515562213957	26	diastole	6	A	4062.961875947593	streaming
487.9307	0.0737515562213957	26	diastole	7	A	4062.961875947593	streaming
488.0781	0.0737515562213957	26	diastole	8	B	500.0	streaming
488.2257	0.0737515562213957	26	diastole	9	A	4062.961875947593	streaming
488.5007	0.0737515562213957	26	diastole	10	A	4062.961875947593	streaming
488.6481	0.0737515562213957	26	diastole	11	B	500.0	streaming
488.7957	0.0737515562213957	26	diastole	12	A	4062.961875947593	streaming
489.0707	0.0737515562213957	26	diastole	13	A	4062.961875947593	streaming
489.2181	0.0737515562213957	26	diastole	14	B	500.0	streaming
489.3657	0.0737515562213957	26	diastole	15	A	4062.961875947593	streaming
489.6506	0.0737515562213957	26	diastole	16	A	4062.961875947593	streaming
489.7981	0.0737515562213957	26	diastole	17	B	500.0	streaming
489.9457	0.0737515562213957	26	diastole	18	A	4062.961875947593	streaming
490.2425	0.0737515562213957	26	diastole	19	A	4062.961875947593	streaming
490.3899	0.0737515562213957	26	diastole	20	B	500.0	streaming
490.5375	0.0737515562213957	26	diastole	21	A	4062.961875947593	streaming
490.8343	0.0737515562213957	26	diastole	22	A	4062.961875947593	streaming
490.9817	0.0737515562213957	26	diastole	23	B	500.0	streaming
491.1293	0.0737515562213957	26	diastole	24	A	4062.961875947593	streaming
491.4459	0.0737515562213957	26	diastole	25	A	4062.961875947593	streaming
491.5933	0.0737515562213957	26	diastole	26	B	500.0	streaming
491.7409	0.0737515562213957	26	diastole	27	A	4062.961875947593	streaming
492.0572	0.0737515562213957	26	diastole	28	A	4062.961875947593	streaming
492.2048	0.0737515562213957	26	diastole	29	B	500.0	streaming
492.3526	0.0737515562213957	26	diastole	30	A	4062.961875947593	streaming
492.6552	0.0737515562213957	26	diastole	31	A	4062.961875947593	streaming
492.8029	0.0737515562213957	26	diastole	32	B	500.0	streaming
492.9507	0.0737515562213957	26	diastole	33	A	4062.961875947593	streaming
493.2533	0.0737515562213957	26	diastole	34	A	4062.961875947593	streaming
493.4009	0.0737515562213957	26	diastole	35	B	500.0	streaming
493.5487	0.0737515562213957	26	diastole	36	A	4062.961875947593	streaming
493.8594	0.0737515562213957	26	diastole	37	A	4062.961875947593	streaming
494.008	0.0737515562213957	26	diastole	38	B	500.0	streaming
494.1568	0.0737515562213957	26	diastole	39	A	4062.961875947593	streaming
494.449	0.0737515562213957	26	diastole	40	A	4062.961875947593	streaming
494.5976	0.0737515562213957	26	diastole	41	B	500.0	streaming
494.7465	0.0737515562213957	26	diastole	42	A	4062.961875947593	streaming
495.039	0.0737515562213957	26	diastole	43	A	4062.961875947593	streaming
495.1877	0.0737515562213957	26	diastole	44	B	500.0	streaming
495.3365	0.0737515562213957	26	diastole	45	A	4062.961875947593	streaming
495.629	0.0737515562213957	26	diastole	46	A	4062.961875947593	streaming
495.7777	0.0737515562213957	26	diastole	47	B	500.0	streaming
495.9265	0.0737515562213957	26	diastole	48	A	4062.961875947593	streaming
498.1764	0.072524358285591	27	systole	1	A	1169.7126981694591	streaming
498.3213	0.072524358285591	27	systole	2	B	500.0	streaming
498.4664	0.072524358285591	27	systole	3	A	1169.7126981694591	streaming
498.7462	0.072524358285591	27	systole	4	A	1169.7126981694591	streaming
498.891	0.072524358285591	27	systole	5	B	500.0	streaming
499.0361	0.072524358285591	27	systole	6	A	1169.7126981694591	streaming
499.3161	0.072524358285591	27	systole	7	A	1169.7126981694591	streaming
499.461	0.072524358285591	27	systole	8	B	500.0	streaming
499.606	0.072524358285591	27	systole	9	A	1169.7126981694591	streaming
499.8861	0.072524358285591	27	systole	10	A	1169.7126981694591	streaming
500.031	0.072524358285591	27	systole	11	B	500.0	streaming
500.176	0.072524358285591	27	systole	12	A	1169.7126981694591	streaming
500.4561	0.072524358285591	27	systole	13	A	1169.7126981694591	streaming
500.6009	0.072524358285591	27	systole	14	B	500.0	streaming
500.7459	0.072524358285591	27	systole	15	A	1169.7126981694591	streaming
501.0171	0.072524358285591	27	systole	16	A	1169.7126981694591	streaming
501.1595	0.072524358285591	27	systole	17	B	500.0	streaming
501.3021	0.072524358285591	27	systole	18	A	1169.7126981694591	streaming
501.6071	0.072524358285591	27	systole	19	A	1169.7126981694591	streaming
501.7495	0.072524358285591	27	systole	20	B	500.0	streaming
501.8921	0.072524358285591	27	systole	21	A	1169.7126981694591	streaming
502.1971	0.072524358285591	27	systole	22	A	1169.7126981694591	streaming
502.3395	0.072524358285591	27	systole	23	B	500.0	streaming
502.4821	0.072524358285591	27	systole	24	A	1169.7126981694591	streaming
502.7971	0.072524358285591	27	systole	25	A	1169.7126981694591	streaming
502.9395	0.072524358285591	27	systole	26	B	500.0	streaming
503.0821	0.072524358285591	27	systole	27	A	1169.7126981694591	streaming
503.4017	0.072524358285591	27	systole	28	A	1169.7126981694591	streaming
503.5454	0.072524358285591	27	systole	29	B	500.0	streaming
503.6892	0.072524358285591	27	systole	30	A	1169.7126981694591	streaming
504.011	0.072524358285591	27	systole	31	A	1169.7126981694591	streaming
504.1572	0.072524358285591	27	systole	32	B	500.0	streaming
504.3036	0.072524358285591	27	systole	33	A	1169.7126981694591	streaming
504.611	0.072524358285591	27	systole	34	A	1169.7126981694591	streaming
504.7572	0.072524358285591	27	systole	35	B	500.0	streaming
504.9036	0.072524358285591	27	systole	36	A	1169.7126981694591	streaming
505.211	0.072524358285591	27	systole	37	A	1169.7126981694591	streaming
505.3572	0.072524358285591	27	systole	38	B	500.0	streaming
505.5036	0.072524358285591	27	systole	39	A	1169.7126981694591	streaming
505.8109	0.072524358285591	27	systole	40	A	1169.7126981694591	streaming
505.9572	0.072524358285591	27	systole	41	B	500.0	streaming
506.1035	0.072524358285591	27	systole	42	A	1169.7126981694591	streaming
506.4054	0.072524358285591	27	systole	43	A	1169.7126981694591	streaming
506.5528	0.072524358285591	27	systole	44	B	500.0	streaming
506.7004	0.072524358285591	27	systole	45	A	1169.7126981694591	streaming
507.0098	0.072524358285591	27	systole	46	A	1169.7126981694591	streaming
507.1584	0.072524358285591	27	systole	47	B	500.0	streaming
507.3072	0.072524358285591	27	systole	48	A	1169.7126981694591	streaming
510.2407	0.0737961363047361	28	diastole	1	A	534.0703346994981	coherent
510.3883	0.0737961363047361	28	diastole	2	B	500.0	coherent
510.5358	0.0737961363047361	28	diastole	3	A	534.0703346994981	coherent
510.8187	0.0737961363047361	28	diastole	4	A	534.0703346994981	coherent
510.9663	0.0737961363047361	28	diastole	5	B	500.0	coherent
511.1138	0.0737961363047361	28	diastole	6	A	534.0703346994981	coherent
511.4086	0.0737961363047361	28	diastole	7	A	534.0703346994981	coherent
511.5561	0.0737961363047361	28	diastole	8	B	500.0	coherent
511.7036	0.0737961363047361	28	diastole	9	A	534.0703346994981	coherent
511.9986	0.0737961363047361	28	diastole	10	A	534.0703346994981	coherent
512.1461	0.0737961363047361	28	diastole	11	B	500.0	coherent
512.2936	0.0737961363047361	28	diastole	12	A	534.0703346994981	coherent
512.5787	0.0737961363047361	28	diastole	13	A	534.0703346994981	coherent
512.7263	0.0737961363047361	28	diastole	14	B	500.0	coherent
512.8737	0.0737961363047361	28	diastole	15	A	534.0703346994981	coherent
513.1589	0.0737961363047361	28	diastole	16	A	534.0703346994981	coherent
513.3065	0.0737961363047361	28	diastole	17	B	500.0	coherent
513.4539	0.0737961363047361	28	diastole	18	A	534.0703346994981	coherent
513.7388	0.0737961363047361	28	diastole	19	A	534.0703346994981	coherent
513.8863	0.0737961363047361	28	diastole	20	B	500.0	coherent
514.0337	0.0737961363047361	28	diastole	21	A	534.0703346994981	coherent
514.3188	0.0737961363047361	28	diastole	22	A	534.0703346994981	coherent
514.4663	0.0737961363047361	28	diastole	23	B	500.0	coherent
514.6137	0.0737961363047361	28	diastole	24	A	534.0703346994981	coherent
514.8921	0.0737961363047361	28	diastole	25	A	534.0703346994981	coherent
515.0384	0.0737961363047361	28	diastole	26	B	500.0	coherent
515.1846	0.0737961363047361	28	diastole	27	A	534.0703346994981	coherent
515.4551	0.0737961363047361	28	diastole	28	A	534.0703346994981	coherent
515.6002	0.0737961363047361	28	diastole	29	B	500.0	coherent
515.7452	0.0737961363047361	28	diastole	30	A	534.0703346994981	coherent
516.0249	0.0737961363047361	28	diastole	31	A	534.0703346994981	coherent
516.1699	0.0737961363047361	28	diastole	32	B	500.0	coherent
516.3149	0.0737961363047361	28	diastole	33	A	534.0703346994981	coherent
516.5948	0.0737961363047361	28	diastole	34	A	534.0703346994981	coherent
516.7399	0.0737961363047361	28	diastole	35	B	500.0	coherent
516.8848	0.0737961363047361	28	diastole	36	A	534.0703346994981	coherent
517.158	0.0737961363047361	28	diastole	37	A	534.0703346994981	coherent
517.3018	0.0737961363047361	28	diastole	38	B	500.0	coherent
517.4455	0.0737961363047361	28	diastole	39	A	534.0703346994981	coherent
517.7109	0.0737961363047361	28	diastole	40	A	534.0703346994981	coherent
517.8534	0.0737961363047361	28	diastole	41	B	500.0	coherent
517.9959	0.0737961363047361	28	diastole	42	A	534.0703346994981	coherent
518.2708	0.0737961363047361	28	diastole	43	A	534.0703346994981	coherent
518.4134	0.0737961363047361	28	diastole	44	B	500.0	coherent
518.5558	0.0737961363047361	28	diastole	45	A	534.0703346994981	coherent
518.8407	0.0737961363047361	28	diastole	46	A	534.0703346994981	coherent
518.9832	0.0737961363047361	28	diastole	47	B	500.0	coherent
519.1257	0.0737961363047361	28	diastole	48	A	534.0703346994981	coherent
521.3882	0.0712487626587972	29	systole	1	A	754.7629107028698	coherent
521.5299	0.0712487626587972	29	systole	2	B	500.0	coherent
521.6732	0.0712487626587972	29	systole	3	A	754.7629107028698	coherent
521.9481	0.0712487626587972	29	systole	4	A	754.7629107028698	coherent
522.0899	0.0712487626587972	29	systole	5	B	500.0	coherent
522.2331	0.0712487626587972	29	systole	6	A	754.7629107028698	coherent
522.5081	0.0712487626587972	29	systole	7	A	754.7629107028698	coherent
522.6498	0.0712487626587972	29	systole	8	B	500.0	coherent
522.7931	0.0712487626587972	29	systole	9	A	754.7629107028698	coherent
523.0681	0.0712487626587972	29	systole	10	A	754.7629107028698	coherent
523.2098	0.0712487626587972	29	systole	11	B	500.0	coherent
523.3531	0.0712487626587972	29	systole	12	A	754.7629107028698	coherent
523.6281	0.0712487626587972	29	systole	13	A	754.7629107028698	coherent
523.7698	0.0712487626587972	29	systole	14	B	500.0	coherent
523.9131	0.0712487626587972	29	systole	15	A	754.7629107028698	coherent
524.1881	0.0712487626587972	29	systole	16	A	754.7629107028698	coherent
524.3298	0.0712487626587972	29	systole	17	B	500.0	coherent
524.4731	0.0712487626587972	29	systole	18	A	754.7629107028698	coherent
524.7481	0.0712487626587972	29	systole	19	A	754.7629107028698	coherent
524.8898	0.0712487626587972	29	systole	20	B	500.0	coherent
525.0331	0.0712487626587972	29	systole	21	A	754.7629107028698	coherent
525.3035	0.0712487626587972	29	systole	22	A	754.7629107028698	coherent
525.4439	0.0712487626587972	29	systole	23	B	500.0	coherent
525.586	0.0712487626587972	29	systole	24	A	754.7629107028698	coherent
525.849	0.0712487626587972	29	systole	25	A	754.7629107028698	coherent
525.9882	0.0712487626587972	29	systole	26	B	500.0	coherent
526.129	0.0712487626587972	29	systole	27	A	754.7629107028698	coherent
526.419	0.0712487626587972	29	systole	28	A	754.7629107028698	coherent
526.5582	0.0712487626587972	29	systole	29	B	500.0	coherent
526.699	0.0712487626587972	29	systole	30	A	754.7629107028698	coherent
526.9788	0.0712487626587972	29	systole	31	A	754.7629107028698	coherent
527.118	0.0712487626587972	29	systole	32	B	500.0	coherent
527.2588	0.0712487626587972	29	systole	33	A	754.7629107028698	coherent
527.5386	0.0712487626587972	29	systole	34	A	754.7629107028698	coherent
527.6778	0.0712487626587972	29	systole	35	B	500.0	coherent
527.8186	0.0712487626587972	29	systole	36	A	754.7629107028698	coherent
528.0984	0.0712487626587972	29	systole	37	A	754.7629107028698	coherent
528.2376	0.0712487626587972	29	systole	38	B	500.0	coherent
528.3784	0.0712487626587972	29	systole	39	A	754.7629107028698	coherent
528.6583	0.0712487626587972	29	systole	40	A	754.7629107028698	coherent
528.7975	0.0712487626587972	29	systole	41	B	500.0	coherent
528.9383	0.0712487626587972	29	systole	42	A	754.7629107028698	coherent
529.2183	0.0712487626587972	29	systole	43	A	754.7629107028698	coherent
529.3575	0.0712487626587972	29	systole	44	B	500.0	coherent
529.4983	0.0712487626587972	29	systole	45	A	754.7629107028698	coherent
529.7783	0.0712487626587972	29	systole	46	A	754.7629107028698	coherent
529.9175	0.0712487626587972	29	systole	47	B	500.0	coherent
530.0583	0.0712487626587972	29	systole	48	A	754.7629107028698	coherent
530.3383	0.0712487626587972	29	systole	49	A	754.7629107028698	coherent
530.4775	0.0712487626587972	29	systole	50	B	500.0	coherent
530.6183	0.0712487626587972	29	systole	51	A	754.7629107028698	coherent
532.9234	0.0756260005291551	30	diastole	1	A	3970.34830453257	coherent
533.0782	0.0756260005291551	30	diastole	2	B	500.0	coherent
533.2334	0.0756260005291551	30	diastole	3	A	3970.34830453257	coherent
533.5675	0.0756260005291551	30	diastole	4	A	3970.34830453257	coherent
533.7249	0.0756260005291551	30	diastole	5	B	500.0	coherent
533.8825	0.0756260005291551	30	diastole	6	A	3970.34830453257	coherent
534.1875	0.0756260005291551	30	diastole	7	A	3970.34830453257	coherent
534.3449	0.0756260005291551	30	diastole	8	B	500.0	coherent
534.5025	0.0756260005291551	30	diastole	9	A	3970.34830453257	coherent
534.8076	0.0756260005291551	30	diastole	10	A	3970.34830453257	coherent
534.9649	0.0756260005291551	30	diastole	11	B	500.0	coherent
535.1225	0.0756260005291551	30	diastole	12	A	3970.34830453257	coherent
535.3972	0.0756260005291551	30	diastole	13	A	3970.34830453257	coherent
535.5546	0.0756260005291551	30	diastole	14	B	500.0	coherent
535.7122	0.0756260005291551	30	diastole	15	A	3970.34830453257	coherent
535.9672	0.0756260005291551	30	diastole	16	A	3970.34830453257	coherent
536.1246	0.0756260005291551	30	diastole	17	B	500.0	coherent
536.2822	0.0756260005291551	30	diastole	18	A	3970.34830453257	coherent
536.5373	0.0756260005291551	30	diastole	19	A	3970.34830453257	coherent
536.6946	0.0756260005291551	30	diastole	20	B	500.0	coherent
536.8522	0.0756260005291551	30	diastole	21	A	3970.34830453257	coherent
537.1073	0.0756260005291551	30	diastole	22	A	3970.34830453257	coherent
537.2647	0.0756260005291551	30	diastole	23	B	500.0	coherent
537.4223	0.0756260005291551	30	diastole	24	A	3970.34830453257	coherent
537.6773	0.0756260005291551	30	diastole	25	A	3970.34830453257	coherent
537.8347	0.0756260005291551	30	diastole	26	B	500.0	coherent
537.9923	0.0756260005291551	30	diastole	27	A	3970.34830453257	coherent
538.1879	0.0756260005291551	30	diastole	28	A	3970.34830453257	coherent
538.3365	0.0756260005291551	30	diastole	29	B	500.0	coherent
538.4853	0.0756260005291551	30	diastole	30	A	3970.34830453257	coherent
538.7837	0.0756260005291551	30	diastole	31	A	3970.34830453257	coherent
538.9298	0.0756260005291551	30	diastole	32	B	500.0	coherent
539.0761	0.0756260005291551	30	diastole	33	A	3970.34830453257	coherent
539.3937	0.0756260005291551	30	diastole	34	A	3970.34830453257	coherent
539.5398	0.0756260005291551	30	diastole	35	B	500.0	coherent
539.6861	0.0756260005291551	30	diastole	36	A	3970.34830453257	coherent
540.0537	0.0756260005291551	30	diastole	37	A	3970.34830453257	coherent
540.1998	0.0756260005291551	30	diastole	38	B	500.0	coherent
540.3461	0.0756260005291551	30	diastole	39	A	3970.34830453257	coherent
540.7152	0.0756260005291551	30	diastole	40	A	3970.34830453257	coherent
540.8613	0.0756260005291551	30	diastole	41	B	500.0	coherent
541.0076	0.0756260005291551	30	diastole	42	A	3970.34830453257	coherent
541.3767	0.0756260005291551	30	diastole	43	A	3970.34830453257	coherent
541.5228	0.0756260005291551	30	diastole	44	B	500.0	coherent
541.6692	0.0756260005291551	30	diastole	45	A	3970.34830453257	coherent
542.0383	0.0756260005291551	30	diastole	46	A	3970.34830453257	coherent
542.1844	0.0756260005291551	30	diastole	47	B	500.0	coherent
542.3307	0.0756260005291551	30	diastole	48	A	3970.34830453257	coherent
544.1066	0.0780049435561522	31	systole	1	A	4559.460373853269	coherent
544.2627	0.0780049435561522	31	systole	2	B	500.0	coherent
544.4186	0.0780049435561522	31	systole	3	A	4559.460373853269	coherent
544.6863	0.0780049435561522	31	systole	4	A	4559.460373853269	coherent
544.8424	0.0780049435561522	31	systole	5	B	500.0	coherent
544.9983	0.0780049435561522	31	systole	6	A	4559.460373853269	coherent
