onset	duration	trial_num	trial_type	tone_num	tone_type	frequency	response
39.055900000000065	0.1068805812392383	1	diastole	1	B	500	systole
39.97070000000008	0.1068805812392383	1	diastole	2	B	500	systole
40.86070000000018	0.1068805812392383	1	diastole	3	B	500	systole
41.76909999999998	0.1068805812392383	1	diastole	4	B	500	systole
42.69510000000014	0.1068805812392383	1	diastole	5	B	500	systole
43.60470000000009	0.1068805812392383	1	diastole	6	B	500	systole
44.58480000000009	0.1068805812392383	1	diastole	7	B	500	systole
45.60440000000017	0.1068805812392383	1	diastole	8	B	500	systole
46.62390000000005	0.1068805812392383	1	diastole	9	B	500	systole
47.64350000000013	0.1068805812392383	1	diastole	10	B	500	systole
53.09100000000012	0.1268258935306221	2	systole	1	B	500	systole
53.98109999999997	0.1268258935306221	2	systole	2	B	500	systole
54.721300000000156	0.1268258935306221	2	systole	3	B	500	systole
55.561300000000074	0.1268258935306221	2	systole	4	B	500	systole
56.50130000000013	0.1268258935306221	2	systole	5	B	500	systole
57.57140000000004	0.1268258935306221	2	systole	6	B	500	systole
58.66090000000008	0.1268258935306221	2	systole	7	B	500	systole
59.74750000000017	0.1268258935306221	2	systole	8	B	500	systole
60.78740000000016	0.1268258935306221	2	systole	9	B	500	systole
61.82330000000002	0.1268258935306221	2	systole	10	B	500	systole
65.20720000000006	0.1274997271248139	3	diastole	1	B	500	diastole
66.12710000000015	0.1274997271248139	3	diastole	2	B	500	diastole
67.06560000000013	0.1274997271248139	3	diastole	3	B	500	diastole
67.91560000000004	0.1274997271248139	3	diastole	4	B	500	diastole
68.81560000000013	0.1274997271248139	3	diastole	5	B	500	diastole
69.7156	0.1274997271248139	3	diastole	6	B	500	diastole
70.53050000000007	0.1274997271248139	3	diastole	7	B	500	diastole
71.36540000000014	0.1274997271248139	3	diastole	8	B	500	diastole
72.32550000000015	0.1274997271248139	3	diastole	9	B	500	diastole
73.3755000000001	0.1274997271248139	3	diastole	10	B	500	diastole
74.42550000000006	0.1274997271248139	3	diastole	11	B	500	diastole
77.52260000000001	0.1218837540363892	4	diastole	1	B	500	diastole
78.36260000000016	0.1218837540363892	4	diastole	2	B	500	diastole
79.20260000000007	0.1218837540363892	4	diastole	3	B	500	diastole
80.13260000000014	0.1218837540363892	4	diastole	4	B	500	diastole
81.14049999999997	0.1218837540363892	4	diastole	5	B	500	diastole
82.01089999999999	0.1218837540363892	4	diastole	6	B	500	diastole
82.93129999999996	0.1218837540363892	4	diastole	7	B	500	diastole
83.78999999999996	0.1218837540363892	4	diastole	8	B	500	diastole
84.69000000000005	0.1218837540363892	4	diastole	9	B	500	diastole
85.66000000000008	0.1218837540363892	4	diastole	10	B	500	diastole
89.03850000000011	0.1199974247720092	5	systole	1	B	500	systole
89.98850000000016	0.1199974247720092	5	systole	2	B	500	systole
90.99580000000014	0.1199974247720092	5	systole	3	B	500	systole
91.98580000000015	0.1199974247720092	5	systole	4	B	500	systole
92.97580000000016	0.1199974247720092	5	systole	5	B	500	systole
93.91579999999999	0.1199974247720092	5	systole	6	B	500	systole
94.92579999999998	0.1199974247720092	5	systole	7	B	500	systole
95.92590000000018	0.1199974247720092	5	systole	8	B	500	systole
96.93880000000013	0.1199974247720092	5	systole	9	B	500	systole
97.92860000000019	0.1199974247720092	5	systole	10	B	500	systole
100.82420000000002	0.1206116238026879	6	diastole	1	B	500	systole
101.80420000000004	0.1206116238026879	6	diastole	2	B	500	systole
102.7804000000001	0.1206116238026879	6	diastole	3	B	500	systole
103.74009999999998	0.1206116238026879	6	diastole	4	B	500	systole
104.62049999999999	0.1206116238026879	6	diastole	5	B	500	systole
105.5009	0.1206116238026879	6	diastole	6	B	500	systole
106.33280000000013	0.1206116238026879	6	diastole	7	B	500	systole
107.30240000000003	0.1206116238026879	6	diastole	8	B	500	systole
108.31240000000003	0.1206116238026879	6	diastole	9	B	500	systole
109.37049999999999	0.1206116238026879	6	diastole	10	B	500	systole
112.21870000000013	0.1187376353191211	7	diastole	1	B	500	diastole
113.18860000000018	0.1187376353191211	7	diastole	2	B	500	diastole
114.06870000000004	0.1187376353191211	7	diastole	3	B	500	diastole
114.88880000000017	0.1187376353191211	7	diastole	4	B	500	diastole
115.79500000000007	0.1187376353191211	7	diastole	5	B	500	diastole
116.7346	0.1187376353191211	7	diastole	6	B	500	diastole
117.69460000000004	0.1187376353191211	7	diastole	7	B	500	diastole
118.70929999999998	0.1187376353191211	7	diastole	8	B	500	diastole
119.69900000000007	0.1187376353191211	7	diastole	9	B	500	diastole
120.73430000000008	0.1187376353191211	7	diastole	10	B	500	diastole
123.42050000000017	0.1187234561657533	8	diastole	1	B	500	diastole
124.35010000000011	0.1187234561657533	8	diastole	2	B	500	diastole
125.27980000000002	0.1187234561657533	8	diastole	3	B	500	diastole
126.08699999999999	0.1187234561657533	8	diastole	4	B	500	diastole
126.92750000000001	0.1187234561657533	8	diastole	5	B	500	diastole
127.79380000000015	0.1187234561657533	8	diastole	6	B	500	diastole
128.78410000000008	0.1187234561657533	8	diastole	7	B	500	diastole
129.81380000000013	0.1187234561657533	8	diastole	8	B	500	diastole
130.84339999999997	0.1187234561657533	8	diastole	9	B	500	diastole
131.82380000000012	0.1187234561657533	8	diastole	10	B	500	diastole
132.7138	0.1187234561657533	8	diastole	11	B	500	diastole
136.0866000000001	0.1231455810484476	9	systole	1	B	500	systole
136.92669999999998	0.1231455810484476	9	systole	2	B	500	systole
137.69759999999997	0.1231455810484476	9	systole	3	B	500	systole
138.49490000000014	0.1231455810484476	9	systole	4	B	500	systole
139.34490000000005	0.1231455810484476	9	systole	5	B	500	systole
140.12250000000017	0.1231455810484476	9	systole	6	B	500	systole
140.95260000000007	0.1231455810484476	9	systole	7	B	500	systole
141.85260000000017	0.1231455810484476	9	systole	8	B	500	systole
142.75260000000003	0.1231455810484476	9	systole	9	B	500	systole
143.61110000000008	0.1231455810484476	9	systole	10	B	500	systole
144.48109999999997	0.1231455810484476	9	systole	11	B	500	systole
147.6333000000002	0.1118760312674567	10	systole	1	B	500	systole
148.60670000000005	0.1118760312674567	10	systole	2	B	500	systole
149.55660000000012	0.1118760312674567	10	systole	3	B	500	systole
150.5699000000002	0.1118760312674567	10	systole	4	B	500	systole
151.43990000000008	0.1118760312674567	10	systole	5	B	500	systole
152.2799	0.1118760312674567	10	systole	6	B	500	systole
153.17410000000018	0.1118760312674567	10	systole	7	B	500	systole
154.14409999999998	0.1118760312674567	10	systole	8	B	500	systole
155.1141	0.1118760312674567	10	systole	9	B	500	systole
156.00660000000016	0.1118760312674567	10	systole	10	B	500	systole
159.3293000000001	0.1156334003317169	11	diastole	1	B	500	diastole
160.32950000000005	0.1156334003317169	11	diastole	2	B	500	diastole
161.2328	0.1156334003317169	11	diastole	3	B	500	diastole
162.09440000000018	0.1156334003317169	11	diastole	4	B	500	diastole
163.08770000000004	0.1156334003317169	11	diastole	5	B	500	diastole
164.04780000000005	0.1156334003317169	11	diastole	6	B	500	diastole
164.9429	0.1156334003317169	11	diastole	7	B	500	diastole
165.86290000000008	0.1156334003317169	11	diastole	8	B	500	diastole
166.8678	0.1156334003317169	11	diastole	9	B	500	diastole
167.85630000000015	0.1156334003317169	11	diastole	10	B	500	diastole
170.33720000000017	0.1162450748961418	12	diastole	1	B	500	diastole
171.17720000000008	0.1162450748961418	12	diastole	2	B	500	diastole
172.01710000000003	0.1162450748961418	12	diastole	3	B	500	diastole
172.9172000000001	0.1162450748961418	12	diastole	4	B	500	diastole
173.74580000000014	0.1162450748961418	12	diastole	5	B	500	diastole
174.61599999999999	0.1162450748961418	12	diastole	6	B	500	diastole
175.4076	0.1162450748961418	12	diastole	7	B	500	diastole
176.3143	0.1162450748961418	12	diastole	8	B	500	diastole
177.29430000000002	0.1162450748961418	12	diastole	9	B	500	diastole
178.27430000000004	0.1162450748961418	12	diastole	10	B	500	diastole
179.25430000000006	0.1162450748961418	12	diastole	11	B	500	diastole
181.81540000000018	0.1176234544836916	13	systole	1	B	500	systole
182.71580000000017	0.1176234544836916	13	systole	2	B	500	systole
183.61620000000016	0.1176234544836916	13	systole	3	B	500	systole
184.4462000000001	0.1176234544836916	13	systole	4	B	500	systole
185.27620000000002	0.1176234544836916	13	systole	5	B	500	systole
186.10630000000015	0.1176234544836916	13	systole	6	B	500	systole
187.05380000000014	0.1176234544836916	13	systole	7	B	500	systole
187.9266	0.1176234544836916	13	systole	8	B	500	systole
188.87660000000005	0.1176234544836916	13	systole	9	B	500	systole
189.89620000000014	0.1176234544836916	13	systole	10	B	500	systole
190.9158	0.1176234544836916	13	systole	11	B	500	systole
193.67090000000007	0.1194020425900816	14	diastole	1	B	500	diastole
194.57090000000017	0.1194020425900816	14	diastole	2	B	500	diastole
195.47080000000005	0.1194020425900816	14	diastole	3	B	500	diastole
196.37080000000014	0.1194020425900816	14	diastole	4	B	500	diastole
197.0422000000001	0.1194020425900816	14	diastole	5	B	500	diastole
197.72230000000013	0.1194020425900816	14	diastole	6	B	500	diastole
198.38049999999998	0.1194020425900816	14	diastole	7	B	500	diastole
199.40049999999997	0.1194020425900816	14	diastole	8	B	500	diastole
200.42060000000015	0.1194020425900816	14	diastole	9	B	500	diastole
201.38390000000004	0.1194020425900816	14	diastole	10	B	500	diastole
202.36390000000006	0.1194020425900816	14	diastole	11	B	500	diastole
205.8424	0.1250030535738915	15	diastole	1	B	500	diastole
206.91240000000016	0.1250030535738915	15	diastole	2	B	500	diastole
207.9824000000001	0.1250030535738915	15	diastole	3	B	500	diastole
208.91250000000014	0.1250030535738915	15	diastole	4	B	500	diastole
209.80010000000016	0.1250030535738915	15	diastole	5	B	500	diastole
210.77970000000005	0.1250030535738915	15	diastole	6	B	500	diastole
211.75930000000017	0.1250030535738915	15	diastole	7	B	500	diastole
212.66290000000004	0.1250030535738915	15	diastole	8	B	500	diastole
213.58300000000008	0.1250030535738915	15	diastole	9	B	500	diastole
214.60300000000007	0.1250030535738915	15	diastole	10	B	500	diastole
216.88630000000012	0.1231015248922631	16	systole	1	B	500	systole
217.80640000000017	0.1231015248922631	16	systole	2	B	500	systole
218.81240000000003	0.1231015248922631	16	systole	3	B	500	systole
219.79240000000004	0.1231015248922631	16	systole	4	B	500	systole
220.69240000000013	0.1231015248922631	16	systole	5	B	500	systole
221.62660000000005	0.1231015248922631	16	systole	6	B	500	systole
222.61660000000006	0.1231015248922631	16	systole	7	B	500	systole
223.60660000000007	0.1231015248922631	16	systole	8	B	500	systole
224.48750000000018	0.1231015248922631	16	systole	9	B	500	systole
225.37580000000003	0.1231015248922631	16	systole	10	B	500	systole
226.2876000000001	0.1231015248922631	16	systole	11	B	500	systole
229.12250000000017	0.119275193370413	17	systole	1	B	500	systole
229.98250000000007	0.119275193370413	17	systole	2	B	500	systole
230.87599999999998	0.119275193370413	17	systole	3	B	500	systole
231.82600000000002	0.119275193370413	17	systole	4	B	500	systole
232.7759000000001	0.119275193370413	17	systole	5	B	500	systole
233.66010000000006	0.119275193370413	17	systole	6	B	500	systole
234.62490000000003	0.119275193370413	17	systole	7	B	500	systole
235.615	0.119275193370413	17	systole	8	B	500	systole
236.60500000000002	0.119275193370413	17	systole	9	B	500	systole
237.57500000000005	0.119275193370413	17	systole	10	B	500	systole
240.06330000000003	0.1125035500153899	18	systole	1	B	500	systole
240.8958	0.1125035500153899	18	systole	2	B	500	systole
241.74580000000014	0.1125035500153899	18	systole	3	B	500	systole
242.60580000000004	0.1125035500153899	18	systole	4	B	500	systole
243.46569999999997	0.1125035500153899	18	systole	5	B	500	systole
244.41560000000004	0.1125035500153899	18	systole	6	B	500	systole
245.31550000000016	0.1125035500153899	18	systole	7	B	500	systole
246.1739	0.1125035500153899	18	systole	8	B	500	systole
247.04380000000015	0.1125035500153899	18	systole	9	B	500	systole
247.97130000000016	0.1125035500153899	18	systole	10	B	500	systole
248.9629	0.1125035500153899	18	systole	11	B	500	systole
252.39600000000019	0.1156244280864484	19	diastole	1	B	500	systole
253.3362000000002	0.1156244280864484	19	diastole	2	B	500	systole
254.2763	0.1156244280864484	19	diastole	3	B	500	systole
255.03230000000008	0.1156244280864484	19	diastole	4	B	500	systole
255.8623	0.1156244280864484	19	diastole	5	B	500	systole
256.69900000000007	0.1156244280864484	19	diastole	6	B	500	systole
257.47760000000017	0.1156244280864484	19	diastole	7	B	500	systole
258.2976000000001	0.1156244280864484	19	diastole	8	B	500	systole
259.1876	0.1156244280864484	19	diastole	9	B	500	systole
260.1676	0.1156244280864484	19	diastole	10	B	500	systole
261.1477	0.1156244280864484	19	diastole	11	B	500	systole
263.6183000000001	0.1137528478284366	20	systole	1	B	500	systole
264.6083000000001	0.1137528478284366	20	systole	2	B	500	systole
265.5983000000001	0.1137528478284366	20	systole	3	B	500	systole
266.4383	0.1137528478284366	20	systole	4	B	500	systole
267.3283000000001	0.1137528478284366	20	systole	5	B	500	systole
268.30420000000004	0.1137528478284366	20	systole	6	B	500	systole
269.2083	0.1137528478284366	20	systole	7	B	500	systole
270.1183000000001	0.1137528478284366	20	systole	8	B	500	systole
271.0283000000002	0.1137528478284366	20	systole	9	B	500	systole
271.98670000000016	0.1137528478284366	20	systole	10	B	500	systole
272.9567000000002	0.1137528478284366	20	systole	11	B	500	systole
276.0606	0.1156249124323949	21	diastole	1	B	500	systole
277.0305000000001	0.1156249124323949	21	diastole	2	B	500	systole
277.9439	0.1156249124323949	21	diastole	3	B	500	systole
278.87390000000005	0.1156249124323949	21	diastole	4	B	500	systole
279.75400000000013	0.1156249124323949	21	diastole	5	B	500	systole
280.6341	0.1156249124323949	21	diastole	6	B	500	systole
281.6341	0.1156249124323949	21	diastole	7	B	500	systole
282.60400000000004	0.1156249124323949	21	diastole	8	B	500	systole
283.55410000000006	0.1156249124323949	21	diastole	9	B	500	systole
284.57090000000017	0.1156249124323949	21	diastole	10	B	500	systole
286.85000000000014	0.1175086779985576	22	systole	1	B	500	systole
287.79010000000017	0.1175086779985576	22	systole	2	B	500	systole
288.5802000000001	0.1175086779985576	22	systole	3	B	500	systole
289.37030000000004	0.1175086779985576	22	systole	4	B	500	systole
290.231	0.1175086779985576	22	systole	5	B	500	systole
291.231	0.1175086779985576	22	systole	6	B	500	systole
292.231	0.1175086779985576	22	systole	7	B	500	systole
293.1811	0.1175086779985576	22	systole	8	B	500	systole
294.13110000000006	0.1175086779985576	22	systole	9	B	500	systole
295.12710000000015	0.1175086779985576	22	systole	10	B	500	systole
296.13290000000006	0.1175086779985576	22	systole	11	B	500	systole
298.82590000000005	0.1174905078951269	23	systole	1	B	500	systole
299.7758000000001	0.1174905078951269	23	systole	2	B	500	systole
300.72580000000016	0.1174905078951269	23	systole	3	B	500	systole
301.6758	0.1174905078951269	23	systole	4	B	500	systole
302.5757000000001	0.1174905078951269	23	systole	5	B	500	systole
303.4557	0.1174905078951269	23	systole	6	B	500	systole
304.4756	0.1174905078951269	23	systole	7	B	500	systole
305.4954	0.1174905078951269	23	systole	8	B	500	systole
306.41370000000006	0.1174905078951269	23	systole	9	B	500	systole
307.3339000000001	0.1174905078951269	23	systole	10	B	500	systole
308.32550000000015	0.1174905078951269	23	systole	11	B	500	systole
311.02240000000006	0.1156349985394626	24	systole	1	B	500	systole
311.9525000000001	0.1156349985394626	24	systole	2	B	500	systole
312.88260000000014	0.1156349985394626	24	systole	3	B	500	systole
313.7325000000001	0.1156349985394626	24	systole	4	B	500	systole
314.6826000000001	0.1156349985394626	24	systole	5	B	500	systole
315.66420000000016	0.1156349985394626	24	systole	6	B	500	systole
316.63419999999996	0.1156349985394626	24	systole	7	B	500	systole
317.60429999999997	0.1156349985394626	24	systole	8	B	500	systole
318.58410000000003	0.1156349985394626	24	systole	9	B	500	systole
319.4426000000001	0.1156349985394626	24	systole	10	B	500	systole
320.3127000000002	0.1156349985394626	24	systole	11	B	500	systole
323.42970000000014	0.1143791127251461	25	diastole	1	B	500	diastole
324.39920000000006	0.1143791127251461	25	diastole	2	B	500	diastole
325.36879999999996	0.1143791127251461	25	diastole	3	B	500	diastole
326.3488	0.1143791127251461	25	diastole	4	B	500	diastole
327.2225000000001	0.1143791127251461	25	diastole	5	B	500	diastole
328.18870000000015	0.1143791127251461	25	diastole	6	B	500	diastole
329.1373000000001	0.1143791127251461	25	diastole	7	B	500	diastole
330.05870000000004	0.1143791127251461	25	diastole	8	B	500	diastole
330.90880000000016	0.1143791127251461	25	diastole	9	B	500	diastole
331.759	0.1143791127251461	25	diastole	10	B	500	diastole
335.6826000000001	0.1168783050961792	26	diastole	1	B	500	diastole
336.5626	0.1168783050961792	26	diastole	2	B	500	diastole
337.4426000000001	0.1168783050961792	26	diastole	3	B	500	diastole
338.2324000000001	0.1168783050961792	26	diastole	4	B	500	diastole
339.0725	0.1168783050961792	26	diastole	5	B	500	diastole
339.91250000000014	0.1168783050961792	26	diastole	6	B	500	diastole
340.8243	0.1168783050961792	26	diastole	7	B	500	diastole
341.6877000000002	0.1168783050961792	26	diastole	8	B	500	diastole
342.47450000000003	0.1168783050961792	26	diastole	9	B	500	diastole
343.32439999999997	0.1168783050961792	26	diastole	10	B	500	diastole
346.24080000000004	0.1099944007582962	27	diastole	1	B	500	systole
347.1408000000001	0.1099944007582962	27	diastole	2	B	500	systole
348.03750000000014	0.1099944007582962	27	diastole	3	B	500	systole
348.9175	0.1099944007582962	27	diastole	4	B	500	systole
349.68060000000014	0.1099944007582962	27	diastole	5	B	500	systole
350.46050000000014	0.1099944007582962	27	diastole	6	B	500	systole
351.22050000000013	0.1099944007582962	27	diastole	7	B	500	systole
351.9806000000001	0.1099944007582962	27	diastole	8	B	500	systole
352.8057000000001	0.1099944007582962	27	diastole	9	B	500	systole
353.72540000000004	0.1099944007582962	27	diastole	10	B	500	systole
354.5144	0.1099944007582962	27	diastole	11	B	500	systole
355.3448000000001	0.1099944007582962	27	diastole	12	B	500	systole
358.4866000000002	0.1081238249316811	28	systole	1	B	500	diastole
359.2665000000002	0.1081238249316811	28	systole	2	B	500	diastole
359.9883	0.1081238249316811	28	systole	3	B	500	diastole
360.6663000000001	0.1081238249316811	28	systole	4	B	500	diastole
361.3167000000001	0.1081238249316811	28	systole	5	B	500	diastole
362.17970000000014	0.1081238249316811	28	systole	6	B	500	diastole
363.1091000000001	0.1081238249316811	28	systole	7	B	500	diastole
364.0376000000001	0.1081238249316811	28	systole	8	B	500	diastole
364.9575	0.1081238249316811	28	systole	9	B	500	diastole
365.8272000000002	0.1081238249316811	28	systole	10	B	500	diastole
366.77	0.1081238249316811	28	systole	11	B	500	diastole
367.6605000000002	0.1081238249316811	28	systole	12	B	500	diastole
370.6014	0.1155275518540293	29	systole	1	B	500	systole
371.55150000000003	0.1155275518540293	29	systole	2	B	500	systole
372.50160000000005	0.1155275518540293	29	systole	3	B	500	systole
373.29650000000015	0.1155275518540293	29	systole	4	B	500	systole
374.10940000000005	0.1155275518540293	29	systole	5	B	500	systole
375.02380000000016	0.1155275518540293	29	systole	6	B	500	systole
375.9440000000002	0.1155275518540293	29	systole	7	B	500	systole
376.92820000000006	0.1155275518540293	29	systole	8	B	500	systole
377.87810000000013	0.1155275518540293	29	systole	9	B	500	systole
378.73670000000016	0.1155275518540293	29	systole	10	B	500	systole
379.6512	0.1155275518540293	29	systole	11	B	500	systole
382.42830000000004	0.1150183952413499	30	systole	1	B	500	systole
383.4284	0.1150183952413499	30	systole	2	B	500	systole
384.3958	0.1150183952413499	30	systole	3	B	500	systole
385.3142	0.1150183952413499	30	systole	4	B	500	systole
386.2958000000001	0.1150183952413499	30	systole	5	B	500	systole
387.2658000000001	0.1150183952413499	30	systole	6	B	500	systole
388.23580000000015	0.1150183952413499	30	systole	7	B	500	systole
389.20590000000016	0.1150183952413499	30	systole	8	B	500	systole
390.1758	0.1150183952413499	30	systole	9	B	500	systole
391.08580000000006	0.1150183952413499	30	systole	10	B	500	systole
395.00710000000004	0.1162478437181562	31	diastole	1	B	500	diastole
395.9571000000001	0.1162478437181562	31	diastole	2	B	500	diastole
396.85040000000004	0.1162478437181562	31	diastole	3	B	500	diastole
397.76020000000017	0.1162478437181562	31	diastole	4	B	500	diastole
398.5802000000001	0.1162478437181562	31	diastole	5	B	500	diastole
399.4003	0.1162478437181562	31	diastole	6	B	500	diastole
400.2754	0.1162478437181562	31	diastole	7	B	500	diastole
401.19550000000004	0.1162478437181562	31	diastole	8	B	500	diastole
402.05719999999997	0.1162478437181562	31	diastole	9	B	500	diastole
403.0156000000002	0.1162478437181562	31	diastole	10	B	500	diastole
405.8655000000001	0.1137378052226267	32	diastole	1	B	500	systole
406.7654	0.1137378052226267	32	diastole	2	B	500	systole
407.61540000000014	0.1137378052226267	32	diastole	3	B	500	systole
408.46530000000007	0.1137378052226267	32	diastole	4	B	500	systole
409.40229999999997	0.1137378052226267	32	diastole	5	B	500	systole
410.3225	0.1137378052226267	32	diastole	6	B	500	systole
411.0575000000001	0.1137378052226267	32	diastole	7	B	500	systole
411.7762	0.1137378052226267	32	diastole	8	B	500	systole
412.5364000000002	0.1137378052226267	32	diastole	9	B	500	systole
413.3144	0.1137378052226267	32	diastole	10	B	500	systole
414.1341	0.1137378052226267	32	diastole	11	B	500	systole
416.62840000000006	0.1093965999316424	33	systole	1	B	500	diastole
417.52840000000015	0.1093965999316424	33	systole	2	B	500	diastole
418.3135	0.1093965999316424	33	systole	3	B	500	diastole
419.13350000000014	0.1093965999316424	33	systole	4	B	500	diastole
420.0009	0.1093965999316424	33	systole	5	B	500	diastole
420.9184	0.1093965999316424	33	systole	6	B	500	diastole
421.81860000000006	0.1093965999316424	33	systole	7	B	500	diastole
422.66020000000003	0.1093965999316424	33	systole	8	B	500	diastole
423.5298	0.1093965999316424	33	systole	9	B	500	diastole
424.4897000000001	0.1093965999316424	33	systole	10	B	500	diastole
425.4299000000001	0.1093965999316424	33	systole	11	B	500	diastole
429.26840000000016	0.116889638477005	34	systole	1	B	500	diastole
430.14830000000006	0.116889638477005	34	systole	2	B	500	diastole
431.0283000000002	0.116889638477005	34	systole	3	B	500	diastole
431.81830000000014	0.116889638477005	34	systole	4	B	500	diastole
432.62840000000006	0.116889638477005	34	systole	5	B	500	diastole
433.4385	0.116889638477005	34	systole	6	B	500	diastole
434.3384000000001	0.116889638477005	34	systole	7	B	500	diastole
435.1368	0.116889638477005	34	systole	8	B	500	diastole
435.97530000000006	0.116889638477005	34	systole	9	B	500	diastole
436.82230000000004	0.116889638477005	34	systole	10	B	500	diastole
437.79179999999997	0.116889638477005	34	systole	11	B	500	diastole
441.6187	0.1138834123848937	35	systole	1	B	500	systole
442.4389000000001	0.1138834123848937	35	systole	2	B	500	systole
443.33860000000004	0.1138834123848937	35	systole	3	B	500	systole
444.1885	0.1138834123848937	35	systole	4	B	500	systole
445.03840000000014	0.1138834123848937	35	systole	5	B	500	systole
445.80899999999997	0.1138834123848937	35	systole	6	B	500	systole
446.67970000000014	0.1138834123848937	35	systole	7	B	500	systole
447.6296	0.1138834123848937	35	systole	8	B	500	systole
448.5196000000001	0.1138834123848937	35	systole	9	B	500	systole
449.3854000000001	0.1138834123848937	35	systole	10	B	500	systole
450.30870000000004	0.1138834123848937	35	systole	11	B	500	systole
453.8700000000001	0.1099958415143191	36	systole	1	B	500	diastole
454.85120000000006	0.1099958415143191	36	systole	2	B	500	diastole
455.8208000000002	0.1099958415143191	36	systole	3	B	500	diastole
456.72080000000005	0.1099958415143191	36	systole	4	B	500	diastole
457.6566	0.1099958415143191	36	systole	5	B	500	diastole
458.5866000000001	0.1099958415143191	36	systole	6	B	500	diastole
459.0083000000002	0.1099958415143191	36	systole	7	B	500	diastole
459.4184	0.1099958415143191	36	systole	8	B	500	diastole
459.76200000000017	0.1099958415143191	36	systole	9	B	500	diastole
459.96450000000004	0.1099958415143191	36	systole	10	B	500	diastole
460.6245000000001	0.1099958415143191	36	systole	11	B	500	diastole
461.3104000000001	0.1099958415143191	36	systole	12	B	500	diastole
462.1789000000001	0.1099958415143191	36	systole	13	B	500	diastole
465.4999	0.1031286610523238	37	systole	1	B	500	diastole
466.5258000000001	0.1031286610523238	37	systole	2	B	500	diastole
467.47580000000016	0.1031286610523238	37	systole	3	B	500	diastole
468.2958000000001	0.1031286610523238	37	systole	4	B	500	diastole
469.11580000000004	0.1031286610523238	37	systole	5	B	500	diastole
469.9456	0.1031286610523238	37	systole	6	B	500	diastole
470.77549999999997	0.1031286610523238	37	systole	7	B	500	diastole
471.6414	0.1031286610523238	37	systole	8	B	500	diastole
472.5015000000001	0.1031286610523238	37	systole	9	B	500	diastole
473.3049000000001	0.1031286610523238	37	systole	10	B	500	diastole
474.155	0.1031286610523238	37	systole	11	B	500	diastole
475.0549000000001	0.1031286610523238	37	systole	12	B	500	diastole
477.88160000000016	0.1118800259428098	38	systole	1	B	500	systole
478.664	0.1118800259428098	38	systole	2	B	500	systole
479.45500000000015	0.1118800259428098	38	systole	3	B	500	systole
480.2991000000002	0.1118800259428098	38	systole	4	B	500	systole
481.1490000000001	0.1118800259428098	38	systole	5	B	500	systole
481.9864	0.1118800259428098	38	systole	6	B	500	systole
482.76930000000016	0.1118800259428098	38	systole	7	B	500	systole
483.6192000000001	0.1118800259428098	38	systole	8	B	500	systole
484.4992	0.1118800259428098	38	systole	9	B	500	systole
485.37930000000006	0.1118800259428098	38	systole	10	B	500	systole
486.27930000000015	0.1118800259428098	38	systole	11	B	500	systole
487.1794	0.1118800259428098	38	systole	12	B	500	systole
494.4408000000001	0.0962563501670956	39	diastole	1	B	500	diastole
495.3809000000001	0.0962563501670956	39	diastole	2	B	500	diastole
496.1808000000001	0.0962563501670956	39	diastole	3	B	500	diastole
496.9691	0.0962563501670956	39	diastole	4	B	500	diastole
497.7491	0.0962563501670956	39	diastole	5	B	500	diastole
498.529	0.0962563501670956	39	diastole	6	B	500	diastole
499.43399999999997	0.0962563501670956	39	diastole	7	B	500	diastole
500.38740000000007	0.0962563501670956	39	diastole	8	B	500	diastole
501.3075000000001	0.0962563501670956	39	diastole	9	B	500	diastole
502.2175	0.0962563501670956	39	diastole	10	B	500	diastole
503.09270000000015	0.0962563501670956	39	diastole	11	B	500	diastole
506.87200000000007	0.1100919733289629	40	diastole	1	B	500	diastole
507.7520000000002	0.1100919733289629	40	diastole	2	B	500	diastole
508.60530000000017	0.1100919733289629	40	diastole	3	B	500	diastole
509.47530000000006	0.1100919733289629	40	diastole	4	B	500	diastole
510.27520000000004	0.1100919733289629	40	diastole	5	B	500	diastole
511.07529999999997	0.1100919733289629	40	diastole	6	B	500	diastole
511.91560000000004	0.1100919733289629	40	diastole	7	B	500	diastole
512.8157000000001	0.1100919733289629	40	diastole	8	B	500	diastole
513.7157	0.1100919733289629	40	diastole	9	B	500	diastole
514.5208	0.1100919733289629	40	diastole	10	B	500	diastole
515.3509000000001	0.1100919733289629	40	diastole	11	B	500	diastole
519.5276000000001	0.1125053478172048	41	systole	1	B	500	diastole
520.3678	0.1125053478172048	41	systole	2	B	500	diastole
521.1703	0.1125053478172048	41	systole	3	B	500	diastole
521.9904000000001	0.1125053478172048	41	systole	4	B	500	diastole
522.7603000000001	0.1125053478172048	41	systole	5	B	500	diastole
523.5253	0.1125053478172048	41	systole	6	B	500	diastole
524.4255	0.1125053478172048	41	systole	7	B	500	diastole
525.3771000000002	0.1125053478172048	41	systole	8	B	500	diastole
526.3287	0.1125053478172048	41	systole	9	B	500	diastole
527.1672000000001	0.1125053478172048	41	systole	10	B	500	diastole
528.0172	0.1125053478172048	41	systole	11	B	500	diastole
528.9762000000001	0.1125053478172048	41	systole	12	B	500	diastole
532.5807	0.1117825946421362	42	systole	1	B	500	systole
533.4508000000001	0.1117825946421362	42	systole	2	B	500	systole
534.3708000000001	0.1117825946421362	42	systole	3	B	500	systole
535.2358000000002	0.1117825946421362	42	systole	4	B	500	systole
536.0859	0.1117825946421362	42	systole	5	B	500	systole
536.9361000000001	0.1117825946421362	42	systole	6	B	500	systole
537.8877	0.1117825946421362	42	systole	7	B	500	systole
538.8277	0.1117825946421362	42	systole	8	B	500	systole
539.7478000000001	0.1117825946421362	42	systole	9	B	500	systole
540.5861	0.1117825946421362	42	systole	10	B	500	systole
541.4361000000001	0.1117825946421362	42	systole	11	B	500	systole
546.654	0.115629012347199	43	diastole	1	B	500	systole
547.4074	0.115629012347199	43	diastole	2	B	500	systole
548.1373000000001	0.115629012347199	43	diastole	3	B	500	systole
548.8372000000002	0.115629012347199	43	diastole	4	B	500	systole
549.5371	0.115629012347199	43	diastole	5	B	500	systole
550.1658	0.115629012347199	43	diastole	6	B	500	systole
550.8707000000002	0.115629012347199	43	diastole	7	B	500	systole
551.7007000000001	0.115629012347199	43	diastole	8	B	500	systole
552.6707000000001	0.115629012347199	43	diastole	9	B	500	systole
553.6407000000002	0.115629012347199	43	diastole	10	B	500	systole
554.6207000000002	0.115629012347199	43	diastole	11	B	500	systole
557.8271	0.1199946144479326	44	diastole	1	B	500	systole
558.7171000000001	0.1199946144479326	44	diastole	2	B	500	systole
559.4971	0.1199946144479326	44	diastole	3	B	500	systole
560.2772	0.1199946144479326	44	diastole	4	B	500	systole
561.0571	0.1199946144479326	44	diastole	5	B	500	systole
561.8569	0.1199946144479326	44	diastole	6	B	500	systole
562.6567	0.1199946144479326	44	diastole	7	B	500	systole
563.4566	0.1199946144479326	44	diastole	8	B	500	systole
564.298	0.1199946144479326	44	diastole	9	B	500	systole
565.1481000000001	0.1199946144479326	44	diastole	10	B	500	systole
566.0734	0.1199946144479326	44	diastole	11	B	500	systole
569.1876	0.1124877561815083	45	diastole	1	B	500	diastole
570.1157000000001	0.1124877561815083	45	diastole	2	B	500	diastole
571.0358000000001	0.1124877561815083	45	diastole	3	B	500	diastole
571.9724000000001	0.1124877561815083	45	diastole	4	B	500	diastole
572.8023000000001	0.1124877561815083	45	diastole	5	B	500	diastole
573.5823	0.1124877561815083	45	diastole	6	B	500	diastole
574.4576000000002	0.1124877561815083	45	diastole	7	B	500	diastole
575.4376	0.1124877561815083	45	diastole	8	B	500	diastole
576.4177	0.1124877561815083	45	diastole	9	B	500	diastole
577.4024000000002	0.1124877561815083	45	diastole	10	B	500	diastole
580.8157000000001	0.1187344167847186	46	systole	1	B	500	systole
581.6357	0.1187344167847186	46	systole	2	B	500	systole
582.4657	0.1187344167847186	46	systole	3	B	500	systole
583.4216000000001	0.1187344167847186	46	systole	4	B	500	systole
584.3399000000002	0.1187344167847186	46	systole	5	B	500	systole
585.2041000000002	0.1187344167847186	46	systole	6	B	500	systole
586.0739000000001	0.1187344167847186	46	systole	7	B	500	systole
586.9009000000001	0.1187344167847186	46	systole	8	B	500	systole
587.8515	0.1187344167847186	46	systole	9	B	500	systole
588.8209000000002	0.1187344167847186	46	systole	10	B	500	systole
592.6055000000001	0.113104028685484	47	diastole	1	B	500	diastole
593.3901000000001	0.113104028685484	47	diastole	2	B	500	diastole
594.1997000000001	0.113104028685484	47	diastole	3	B	500	diastole
594.9750000000001	0.113104028685484	47	diastole	4	B	500	diastole
595.7252000000001	0.113104028685484	47	diastole	5	B	500	diastole
596.4753000000001	0.113104028685484	47	diastole	6	B	500	diastole
597.1482000000001	0.113104028685484	47	diastole	7	B	500	diastole
597.8387	0.113104028685484	47	diastole	8	B	500	diastole
598.6688000000001	0.113104028685484	47	diastole	9	B	500	diastole
599.499	0.113104028685484	47	diastole	10	B	500	diastole
600.3988000000002	0.113104028685484	47	diastole	11	B	500	diastole
601.2986000000001	0.113104028685484	47	diastole	12	B	500	diastole
604.2955000000002	0.1018634350621141	48	systole	1	B	500	diastole
605.2448000000002	0.1018634350621141	48	systole	2	B	500	diastole
606.1064000000001	0.1018634350621141	48	systole	3	B	500	diastole
606.9064000000001	0.1018634350621141	48	systole	4	B	500	diastole
607.7064	0.1018634350621141	48	systole	5	B	500	diastole
608.6189000000002	0.1018634350621141	48	systole	6	B	500	diastole
609.5690000000002	0.1018634350621141	48	systole	7	B	500	diastole
610.5191	0.1018634350621141	48	systole	8	B	500	diastole
611.4457	0.1018634350621141	48	systole	9	B	500	diastole
612.3890000000001	0.1018634350621141	48	systole	10	B	500	diastole
613.3091000000002	0.1018634350621141	48	systole	11	B	500	diastole
616.6889000000001	0.1150054644676856	49	diastole	1	B	500	diastole
617.6639	0.1150054644676856	49	diastole	2	B	500	diastole
618.6139000000001	0.1150054644676856	49	diastole	3	B	500	diastole
619.5056000000002	0.1150054644676856	49	diastole	4	B	500	diastole
620.4055000000001	0.1150054644676856	49	diastole	5	B	500	diastole
621.3438000000001	0.1150054644676856	49	diastole	6	B	500	diastole
622.2738000000002	0.1150054644676856	49	diastole	7	B	500	diastole
623.2038	0.1150054644676856	49	diastole	8	B	500	diastole
624.1342	0.1150054644676856	49	diastole	9	B	500	diastole
625.1001000000001	0.1150054644676856	49	diastole	10	B	500	diastole
628.4442000000001	0.1174953709705732	50	systole	1	B	500	diastole
629.2942	0.1174953709705732	50	systole	2	B	500	diastole
630.2398000000001	0.1174953709705732	50	systole	3	B	500	diastole
631.2019	0.1174953709705732	50	systole	4	B	500	diastole
632.164	0.1174953709705732	50	systole	5	B	500	diastole
633.0324	0.1174953709705732	50	systole	6	B	500	diastole
633.9125000000001	0.1174953709705732	50	systole	7	B	500	diastole
634.8210000000001	0.1174953709705732	50	systole	8	B	500	diastole
635.8108	0.1174953709705732	50	systole	9	B	500	diastole
636.8007	0.1174953709705732	50	systole	10	B	500	diastole
637.8106	0.1174953709705732	50	systole	11	B	500	diastole
641.9260000000002	0.1168981945957057	51	diastole	1	B	500	diastole
642.6961000000001	0.1168981945957057	51	diastole	2	B	500	diastole
643.4661000000001	0.1168981945957057	51	diastole	3	B	500	diastole
643.9494	0.1168981945957057	51	diastole	4	B	500	diastole
644.3035	0.1168981945957057	51	diastole	5	B	500	diastole
644.4860000000001	0.1168981945957057	51	diastole	6	B	500	diastole
645.0259000000001	0.1168981945957057	51	diastole	7	B	500	diastole
645.5876000000001	0.1168981945957057	51	diastole	8	B	500	diastole
646.2542000000001	0.1168981945957057	51	diastole	9	B	500	diastole
647.1358	0.1168981945957057	51	diastole	10	B	500	diastole
648.0640000000001	0.1168981945957057	51	diastole	11	B	500	diastole
649.0358000000001	0.1168981945957057	51	diastole	12	B	500	diastole
650.0075000000002	0.1168981945957057	51	diastole	13	B	500	diastole
654.5388	0.1126062909606844	52	diastole	1	B	500	systole
655.4188000000001	0.1126062909606844	52	diastole	2	B	500	systole
656.1338000000001	0.1126062909606844	52	diastole	3	B	500	systole
656.8837000000001	0.1126062909606844	52	diastole	4	B	500	systole
657.6006	0.1126062909606844	52	diastole	5	B	500	systole
658.3288	0.1126062909606844	52	diastole	6	B	500	systole
659.1789000000001	0.1126062909606844	52	diastole	7	B	500	systole
660.0289	0.1126062909606844	52	diastole	8	B	500	systole
660.9586000000002	0.1126062909606844	52	diastole	9	B	500	systole
661.7839000000001	0.1126062909606844	52	diastole	10	B	500	systole
662.6339	0.1126062909606844	52	diastole	11	B	500	systole
663.6088	0.1126062909606844	52	diastole	12	B	500	systole
666.9773	0.1125013861455954	53	systole	1	B	500	systole
667.8473000000001	0.1125013861455954	53	systole	2	B	500	systole
668.7873000000002	0.1125013861455954	53	systole	3	B	500	systole
669.7387000000001	0.1125013861455954	53	systole	4	B	500	systole
670.7323000000001	0.1125013861455954	53	systole	5	B	500	systole
671.6836000000001	0.1125013861455954	53	systole	6	B	500	systole
672.6234000000002	0.1125013861455954	53	systole	7	B	500	systole
673.5121000000001	0.1125013861455954	53	systole	8	B	500	systole
674.4124000000002	0.1125013861455954	53	systole	9	B	500	systole
675.249	0.1125013861455954	53	systole	10	B	500	systole
676.1688000000001	0.1125013861455954	53	systole	11	B	500	systole
679.9767000000002	0.1156143942498602	54	systole	1	B	500	diastole
680.9270000000001	0.1156143942498602	54	systole	2	B	500	diastole
681.7615000000001	0.1156143942498602	54	systole	3	B	500	diastole
682.6019000000001	0.1156143942498602	54	systole	4	B	500	diastole
683.462	0.1156143942498602	54	systole	5	B	500	diastole
684.4174	0.1156143942498602	54	systole	6	B	500	diastole
685.3669	0.1156143942498602	54	systole	7	B	500	diastole
686.25	0.1156143942498602	54	systole	8	B	500	diastole
687.1181000000001	0.1156143942498602	54	systole	9	B	500	diastole
687.998	0.1156143942498602	54	systole	10	B	500	diastole
688.8780000000002	0.1156143942498602	54	systole	11	B	500	diastole
692.4355	0.1125185437267646	55	systole	1	B	500	systole
693.3155000000002	0.1125185437267646	55	systole	2	B	500	systole
694.1955	0.1125185437267646	55	systole	3	B	500	systole
694.9637	0.1125185437267646	55	systole	4	B	500	systole
695.8079	0.1125185437267646	55	systole	5	B	500	systole
696.6579000000002	0.1125185437267646	55	systole	6	B	500	systole
697.508	0.1125185437267646	55	systole	7	B	500	systole
698.4180000000001	0.1125185437267646	55	systole	8	B	500	systole
699.2305000000001	0.1125185437267646	55	systole	9	B	500	systole
700.1004	0.1125185437267646	55	systole	10	B	500	systole
700.9704000000002	0.1125185437267646	55	systole	11	B	500	systole
705.7457000000002	0.110010499949567	56	diastole	1	B	500	systole
706.5757000000001	0.110010499949567	56	diastole	2	B	500	systole
707.3888000000002	0.110010499949567	56	diastole	3	B	500	systole
708.2873999999999	0.110010499949567	56	diastole	4	B	500	systole
709.1490000000001	0.110010499949567	56	diastole	5	B	500	systole
710.019	0.110010499949567	56	diastole	6	B	500	systole
710.8524	0.110010499949567	56	diastole	7	B	500	systole
711.8089000000002	0.110010499949567	56	diastole	8	B	500	systole
712.7488000000001	0.110010499949567	56	diastole	9	B	500	systole
713.6288000000002	0.110010499949567	56	diastole	10	B	500	systole
717.1639000000002	0.1099880750989541	57	diastole	1	B	500	diastole
718.0838999999999	0.1099880750989541	57	diastole	2	B	500	diastole
718.8939000000003	0.1099880750989541	57	diastole	3	B	500	diastole
719.7239999999999	0.1099880750989541	57	diastole	4	B	500	diastole
720.6539	0.1099880750989541	57	diastole	5	B	500	diastole
721.5539999999999	0.1099880750989541	57	diastole	6	B	500	diastole
722.4541000000002	0.1099880750989541	57	diastole	7	B	500	diastole
723.3159000000003	0.1099880750989541	57	diastole	8	B	500	diastole
724.1859999999999	0.1099880750989541	57	diastole	9	B	500	diastole
725.1027000000001	0.1099880750989541	57	diastole	10	B	500	diastole
725.9878999999999	0.1099880750989541	57	diastole	11	B	500	diastole
729.2273000000002	0.1125006499933078	58	systole	1	B	500	diastole
730.0725	0.1125006499933078	58	systole	2	B	500	diastole
730.9224999999999	0.1125006499933078	58	systole	3	B	500	diastole
731.7925000000002	0.1125006499933078	58	systole	4	B	500	diastole
732.6769999999999	0.1125006499933078	58	systole	5	B	500	diastole
733.5672000000002	0.1125006499933078	58	systole	6	B	500	diastole
734.4404999999999	0.1125006499933078	58	systole	7	B	500	diastole
735.3151	0.1125006499933078	58	systole	8	B	500	diastole
736.2549000000001	0.1125006499933078	58	systole	9	B	500	diastole
737.2048000000002	0.1125006499933078	58	systole	10	B	500	diastole
738.0489	0.1125006499933078	58	systole	11	B	500	diastole
742.0809000000002	0.1106619961210526	59	diastole	1	B	500	systole
742.8608999999999	0.1106619961210526	59	diastole	2	B	500	systole
743.6409000000001	0.1106619961210526	59	diastole	3	B	500	systole
744.421	0.1106619961210526	59	diastole	4	B	500	systole
745.3557000000003	0.1106619961210526	59	diastole	5	B	500	systole
746.2657000000002	0.1106619961210526	59	diastole	6	B	500	systole
747.1389999999999	0.1106619961210526	59	diastole	7	B	500	systole
748.0290000000002	0.1106619961210526	59	diastole	8	B	500	systole
748.8790999999999	0.1106619961210526	59	diastole	9	B	500	systole
749.7791	0.1106619961210526	59	diastole	10	B	500	systole
750.6791000000001	0.1106619961210526	59	diastole	11	B	500	systole
753.8439000000001	0.1100015004049055	60	systole	1	B	500	diastole
754.7439000000002	0.1100015004049055	60	systole	2	B	500	diastole
755.4723000000001	0.1100015004049055	60	systole	3	B	500	diastole
756.2023000000002	0.1100015004049055	60	systole	4	B	500	diastole
756.9323000000002	0.1100015004049055	60	systole	5	B	500	diastole
757.5980999999999	0.1100015004049055	60	systole	6	B	500	diastole
758.3016	0.1100015004049055	60	systole	7	B	500	diastole
759.0516	0.1100015004049055	60	systole	8	B	500	diastole
759.8017000000002	0.1100015004049055	60	systole	9	B	500	diastole
760.5525	0.1100015004049055	60	systole	10	B	500	diastole
761.2866000000001	0.1100015004049055	60	systole	11	B	500	diastole
761.9909	0.1100015004049055	60	systole	12	B	500	diastole
762.7708	0.1100015004049055	60	systole	13	B	500	diastole
765.2199000000003	0.095624582550954	61	systole	1	B	500	diastole
765.5128000000002	0.095624582550954	61	systole	2	B	500	diastole
765.6728	0.095624582550954	61	systole	3	B	500	diastole
765.8327999999999	0.095624582550954	61	systole	4	B	500	diastole
766.4241	0.095624582550954	61	systole	5	B	500	diastole
767.1407000000002	0.095624582550954	61	systole	6	B	500	diastole
767.8806999999999	0.095624582550954	61	systole	7	B	500	diastole
768.8333	0.095624582550954	61	systole	8	B	500	diastole
769.7333000000001	0.095624582550954	61	systole	9	B	500	diastole
770.5865999999999	0.095624582550954	61	systole	10	B	500	diastole
771.5099000000002	0.095624582550954	61	systole	11	B	500	diastole
772.4098999999999	0.095624582550954	61	systole	12	B	500	diastole
773.2656	0.095624582550954	61	systole	13	B	500	diastole
774.1270000000002	0.095624582550954	61	systole	14	B	500	diastole
775.0287000000001	0.095624582550954	61	systole	15	B	500	diastole
778.3507000000002	0.1075065431650728	62	diastole	1	B	500	systole
779.0838000000001	0.1075065431650728	62	diastole	2	B	500	systole
779.8338000000001	0.1075065431650728	62	diastole	3	B	500	systole
780.5838000000001	0.1075065431650728	62	diastole	4	B	500	systole
781.3837000000001	0.1075065431650728	62	diastole	5	B	500	systole
782.2837999999999	0.1075065431650728	62	diastole	6	B	500	systole
783.1839000000002	0.1075065431650728	62	diastole	7	B	500	systole
784.1926000000001	0.1075065431650728	62	diastole	8	B	500	systole
785.171	0.1075065431650728	62	diastole	9	B	500	systole
786.1413	0.1075065431650728	62	diastole	10	B	500	systole
787.113	0.1075065431650728	62	diastole	11	B	500	systole
789.7695000000001	0.1181170332129113	63	systole	1	B	500	systole
790.6279999999999	0.1181170332129113	63	systole	2	B	500	systole
791.4981	0.1181170332129113	63	systole	3	B	500	systole
792.4481000000003	0.1181170332129113	63	systole	4	B	500	systole
793.3979999999999	0.1181170332129113	63	systole	5	B	500	systole
794.2509000000002	0.1181170332129113	63	systole	6	B	500	systole
795.1209999999999	0.1181170332129113	63	systole	7	B	500	systole
796.0510000000002	0.1181170332129113	63	systole	8	B	500	systole
796.9023	0.1181170332129113	63	systole	9	B	500	systole
797.7720999999999	0.1181170332129113	63	systole	10	B	500	systole
798.6834999999999	0.1181170332129113	63	systole	11	B	500	systole
801.4458000000002	0.1131434211274609	64	systole	1	B	500	diastole
802.2958000000001	0.1131434211274609	64	systole	2	B	500	diastole
803.2572000000002	0.1131434211274609	64	systole	3	B	500	diastole
804.1571000000001	0.1131434211274609	64	systole	4	B	500	diastole
805.0573000000002	0.1131434211274609	64	systole	5	B	500	diastole
806.0372	0.1131434211274609	64	systole	6	B	500	diastole
807.017	0.1131434211274609	64	systole	7	B	500	diastole
807.9968999999999	0.1131434211274609	64	systole	8	B	500	diastole
808.9586000000002	0.1131434211274609	64	systole	9	B	500	diastole
809.9087000000002	0.1131434211274609	64	systole	10	B	500	diastole
813.2309000000002	0.1187522066757083	65	diastole	1	B	500	diastole
814.1407000000002	0.1187522066757083	65	diastole	2	B	500	diastole
815.0506000000003	0.1187522066757083	65	diastole	3	B	500	diastole
815.8722	0.1187522066757083	65	diastole	4	B	500	diastole
816.7023999999999	0.1187522066757083	65	diastole	5	B	500	diastole
817.539	0.1187522066757083	65	diastole	6	B	500	diastole
818.4089999999999	0.1187522066757083	65	diastole	7	B	500	diastole
819.3506	0.1187522066757083	65	diastole	8	B	500	diastole
820.1991	0.1187522066757083	65	diastole	9	B	500	diastole
820.9739999999999	0.1187522066757083	65	diastole	10	B	500	diastole
821.7942	0.1187522066757083	65	diastole	11	B	500	diastole
825.6121	0.1113662188872695	66	diastole	1	B	500	diastole
826.3958	0.1113662188872695	66	diastole	2	B	500	diastole
827.1958999999999	0.1113662188872695	66	diastole	3	B	500	diastole
827.9393000000002	0.1113662188872695	66	diastole	4	B	500	diastole
828.6393	0.1113662188872695	66	diastole	5	B	500	diastole
829.3725999999999	0.1113662188872695	66	diastole	6	B	500	diastole
830.1225999999999	0.1113662188872695	66	diastole	7	B	500	diastole
830.7862000000002	0.1113662188872695	66	diastole	8	B	500	diastole
831.5861000000002	0.1113662188872695	66	diastole	9	B	500	diastole
832.5058000000001	0.1113662188872695	66	diastole	10	B	500	diastole
833.3958	0.1113662188872695	66	diastole	11	B	500	diastole
834.3159000000003	0.1113662188872695	66	diastole	12	B	500	diastole
836.9928000000002	0.1131070748670026	67	systole	1	B	500	systole
837.7731999999999	0.1131070748670026	67	systole	2	B	500	systole
838.5536	0.1131070748670026	67	systole	3	B	500	systole
839.3840000000002	0.1131070748670026	67	systole	4	B	500	systole
840.2250000000001	0.1131070748670026	67	systole	5	B	500	systole
841.0633	0.1131070748670026	67	systole	6	B	500	systole
841.8831000000002	0.1131070748670026	67	systole	7	B	500	systole
842.7815000000003	0.1131070748670026	67	systole	8	B	500	systole
843.6798000000001	0.1131070748670026	67	systole	9	B	500	systole
844.6198999999999	0.1131070748670026	67	systole	10	B	500	systole
845.5600000000002	0.1131070748670026	67	systole	11	B	500	systole
848.3507999999999	0.1111289095133543	68	systole	1	B	500	diastole
849.2307000000003	0.1111289095133543	68	systole	2	B	500	diastole
850.1106000000002	0.1111289095133543	68	systole	3	B	500	diastole
850.9305000000002	0.1111289095133543	68	systole	4	B	500	diastole
851.6699000000001	0.1111289095133543	68	systole	5	B	500	diastole
852.4200000000003	0.1111289095133543	68	systole	6	B	500	diastole
853.2140999999999	0.1111289095133543	68	systole	7	B	500	diastole
854.0643000000002	0.1111289095133543	68	systole	8	B	500	diastole
854.9639	0.1111289095133543	68	systole	9	B	500	diastole
855.8635000000002	0.1111289095133543	68	systole	10	B	500	diastole
856.7277000000001	0.1111289095133543	68	systole	11	B	500	diastole
857.5976000000003	0.1111289095133543	68	systole	12	B	500	diastole
860.7488000000001	0.108121425146237	69	diastole	1	B	500	diastole
861.5988	0.108121425146237	69	diastole	2	B	500	diastole
862.4188000000001	0.108121425146237	69	diastole	3	B	500	diastole
863.2022	0.108121425146237	69	diastole	4	B	500	diastole
864.0022999999999	0.108121425146237	69	diastole	5	B	500	diastole
864.8240000000003	0.108121425146237	69	diastole	6	B	500	diastole
865.6540000000002	0.108121425146237	69	diastole	7	B	500	diastole
866.4840000000002	0.108121425146237	69	diastole	8	B	500	diastole
867.4541000000002	0.108121425146237	69	diastole	9	B	500	diastole
868.452	0.108121425146237	69	diastole	10	B	500	diastole
869.4499000000003	0.108121425146237	69	diastole	11	B	500	diastole
873.1490999999999	0.1212587415939197	70	systole	1	B	500	systole
873.9292000000003	0.1212587415939197	70	systole	2	B	500	systole
874.7791	0.1212587415939197	70	systole	3	B	500	systole
875.6290000000001	0.1212587415939197	70	systole	4	B	500	systole
876.6789000000001	0.1212587415939197	70	systole	5	B	500	systole
877.6786	0.1212587415939197	70	systole	6	B	500	systole
878.6784	0.1212587415939197	70	systole	7	B	500	systole
879.6780999999999	0.1212587415939197	70	systole	8	B	500	systole
880.7185000000002	0.1212587415939197	70	systole	9	B	500	systole
881.7484000000002	0.1212587415939197	70	systole	10	B	500	systole
885.7239999999999	0.1237458060495555	71	systole	1	B	500	systole
886.6247000000001	0.1237458060495555	71	systole	2	B	500	systole
887.6747000000003	0.1237458060495555	71	systole	3	B	500	systole
888.7247	0.1237458060495555	71	systole	4	B	500	systole
889.7250999999999	0.1237458060495555	71	systole	5	B	500	systole
890.7255000000002	0.1237458060495555	71	systole	6	B	500	systole
891.7256	0.1237458060495555	71	systole	7	B	500	systole
892.7257000000002	0.1237458060495555	71	systole	8	B	500	systole
893.7941000000003	0.1237458060495555	71	systole	9	B	500	systole
894.8151	0.1237458060495555	71	systole	10	B	500	systole
898.0706000000002	0.1237583683105185	72	systole	1	B	500	systole
898.7239000000002	0.1237583683105185	72	systole	2	B	500	systole
899.4239	0.1237583683105185	72	systole	3	B	500	systole
900.0925	0.1237583683105185	72	systole	4	B	500	systole
901.0924000000002	0.1237583683105185	72	systole	5	B	500	systole
902.0924000000002	0.1237583683105185	72	systole	6	B	500	systole
903.1425000000002	0.1237583683105185	72	systole	7	B	500	systole
904.1623999999999	0.1237583683105185	72	systole	8	B	500	systole
905.2124000000001	0.1237583683105185	72	systole	9	B	500	systole
906.3207	0.1237583683105185	72	systole	10	B	500	systole
907.4890000000003	0.1237583683105185	72	systole	11	B	500	systole
911.2540000000001	0.1287546116509474	73	diastole	1	B	500	systole
912.017	0.1287546116509474	73	diastole	2	B	500	systole
912.7337	0.1287546116509474	73	diastole	3	B	500	systole
913.4838000000002	0.1287546116509474	73	diastole	4	B	500	systole
914.1922999999999	0.1287546116509474	73	diastole	5	B	500	systole
914.8206000000002	0.1287546116509474	73	diastole	6	B	500	systole
915.3923000000002	0.1287546116509474	73	diastole	7	B	500	systole
916.0971000000002	0.1287546116509474	73	diastole	8	B	500	systole
917.0672000000002	0.1287546116509474	73	diastole	9	B	500	systole
918.0872999999999	0.1287546116509474	73	diastole	10	B	500	systole
919.1074000000001	0.1287546116509474	73	diastole	11	B	500	systole
923.4073000000001	0.1275092945434153	74	systole	1	B	500	diastole
924.2573	0.1275092945434153	74	systole	2	B	500	diastole
925.0373000000002	0.1275092945434153	74	systole	3	B	500	diastole
925.7573	0.1275092945434153	74	systole	4	B	500	diastole
926.4774	0.1275092945434153	74	systole	5	B	500	diastole
927.1448000000003	0.1275092945434153	74	systole	6	B	500	diastole
927.8554999999999	0.1275092945434153	74	systole	7	B	500	diastole
928.8354999999999	0.1275092945434153	74	systole	8	B	500	diastole
929.7655000000002	0.1275092945434153	74	systole	9	B	500	diastole
930.6317999999999	0.1275092945434153	74	systole	10	B	500	diastole
931.5215000000001	0.1275092945434153	74	systole	11	B	500	diastole
935.5175000000002	0.118131844792515	75	diastole	1	B	500	systole
936.4876000000002	0.118131844792515	75	diastole	2	B	500	systole
937.3176000000001	0.118131844792515	75	diastole	3	B	500	systole
938.1476	0.118131844792515	75	diastole	4	B	500	systole
938.9775999999999	0.118131844792515	75	diastole	5	B	500	systole
939.8224000000002	0.118131844792515	75	diastole	6	B	500	systole
940.6922999999999	0.118131844792515	75	diastole	7	B	500	systole
941.6439000000003	0.118131844792515	75	diastole	8	B	500	systole
942.6472000000001	0.118131844792515	75	diastole	9	B	500	systole
943.6171000000002	0.118131844792515	75	diastole	10	B	500	systole
946.7491000000002	0.1200015288195572	76	diastole	1	B	500	diastole
947.6807000000001	0.1200015288195572	76	diastole	2	B	500	diastole
948.4307999999999	0.1200015288195572	76	diastole	3	B	500	diastole
949.1807999999999	0.1200015288195572	76	diastole	4	B	500	diastole
949.9206000000001	0.1200015288195572	76	diastole	5	B	500	diastole
950.7371	0.1200015288195572	76	diastole	6	B	500	diastole
951.7372000000003	0.1200015288195572	76	diastole	7	B	500	diastole
952.7955	0.1200015288195572	76	diastole	8	B	500	diastole
953.8252	0.1200015288195572	76	diastole	9	B	500	diastole
954.8252	0.1200015288195572	76	diastole	10	B	500	diastole
955.7585999999999	0.1200015288195572	76	diastole	11	B	500	diastole
959.2421999999999	0.1124994065030478	77	diastole	1	B	500	systole
959.9921000000002	0.1124994065030478	77	diastole	2	B	500	systole
960.9123999999999	0.1124994065030478	77	diastole	3	B	500	systole
961.8824999999999	0.1124994065030478	77	diastole	4	B	500	systole
962.8527000000001	0.1124994065030478	77	diastole	5	B	500	systole
963.8696000000002	0.1124994065030478	77	diastole	6	B	500	systole
964.9447000000002	0.1124994065030478	77	diastole	7	B	500	systole
965.8947000000001	0.1124994065030478	77	diastole	8	B	500	systole
966.7594999999999	0.1124994065030478	77	diastole	9	B	500	systole
967.5996000000002	0.1124994065030478	77	diastole	10	B	500	systole
970.2976000000001	0.1118787365267053	78	diastole	1	B	500	systole
971.0458000000001	0.1118787365267053	78	diastole	2	B	500	systole
971.8358000000001	0.1118787365267053	78	diastole	3	B	500	systole
972.8558	0.1118787365267053	78	diastole	4	B	500	systole
973.8757000000003	0.1118787365267053	78	diastole	5	B	500	systole
974.8757000000003	0.1118787365267053	78	diastole	6	B	500	systole
975.8757000000003	0.1118787365267053	78	diastole	7	B	500	systole
977.1090000000002	0.1118787365267053	78	diastole	8	B	500	systole
978.3138000000001	0.1118787365267053	78	diastole	9	B	500	systole
979.3437000000001	0.1118787365267053	78	diastole	10	B	500	systole
982.5337000000002	0.1250051878159865	79	systole	1	B	500	diastole
983.2639999999999	0.1250051878159865	79	systole	2	B	500	diastole
983.9941999999999	0.1250051878159865	79	systole	3	B	500	diastole
984.6553000000001	0.1250051878159865	79	systole	4	B	500	diastole
985.3498999999999	0.1250051878159865	79	systole	5	B	500	diastole
986.3082999999999	0.1250051878159865	79	systole	6	B	500	diastole
987.2668000000001	0.1250051878159865	79	systole	7	B	500	diastole
988.2567999999999	0.1250051878159865	79	systole	8	B	500	diastole
989.2468999999999	0.1250051878159865	79	systole	9	B	500	diastole
990.2916000000002	0.1250051878159865	79	systole	10	B	500	diastole
991.3967	0.1250051878159865	79	systole	11	B	500	diastole
994.9592	0.123130987980403	80	diastole	1	B	500	diastole
995.7091000000003	0.123130987980403	80	diastole	2	B	500	diastole
996.4590000000001	0.123130987980403	80	diastole	3	B	500	diastole
997.1791000000001	0.123130987980403	80	diastole	4	B	500	diastole
997.8992000000001	0.123130987980403	80	diastole	5	B	500	diastole
998.7077999999999	0.123130987980403	80	diastole	6	B	500	diastole
999.6578000000002	0.123130987980403	80	diastole	7	B	500	diastole
1000.6578000000002	0.123130987980403	80	diastole	8	B	500	diastole
1001.6578000000002	0.123130987980403	80	diastole	9	B	500	diastole
1002.7079000000001	0.123130987980403	80	diastole	10	B	500	diastole
1007.9422999999999	0.1256304546259343	81	diastole	1	B	500	diastole
1008.6922999999999	0.1256304546259343	81	diastole	2	B	500	diastole
1009.4422999999999	0.1256304546259343	81	diastole	3	B	500	diastole
1010.1922999999999	0.1256304546259343	81	diastole	4	B	500	diastole
1010.9005	0.1256304546259343	81	diastole	5	B	500	diastole
1011.7088000000001	0.1256304546259343	81	diastole	6	B	500	diastole
1012.7185999999999	0.1256304546259343	81	diastole	7	B	500	diastole
1013.7284999999999	0.1256304546259343	81	diastole	8	B	500	diastole
1014.7785999999999	0.1256304546259343	81	diastole	9	B	500	diastole
1015.8287000000003	0.1256304546259343	81	diastole	10	B	500	diastole
1020.0386000000001	0.1268614732543938	82	diastole	1	B	500	systole
1020.8087000000003	0.1268614732543938	82	diastole	2	B	500	systole
1021.5787000000003	0.1268614732543938	82	diastole	3	B	500	systole
1022.1538000000003	0.1268614732543938	82	diastole	4	B	500	systole
1022.7704000000001	0.1268614732543938	82	diastole	5	B	500	systole
1023.5705	0.1268614732543938	82	diastole	6	B	500	systole
1024.2241000000001	0.1268614732543938	82	diastole	7	B	500	systole
1024.9442000000001	0.1268614732543938	82	diastole	8	B	500	systole
1025.8708	0.1268614732543938	82	diastole	9	B	500	systole
1026.874	0.1268614732543938	82	diastole	10	B	500	systole
1027.8238	0.1268614732543938	82	diastole	11	B	500	systole
1028.7737	0.1268614732543938	82	diastole	12	B	500	systole
1031.9482	0.1126106938463635	83	systole	1	B	500	diastole
1032.7079999999999	0.1126106938463635	83	systole	2	B	500	diastole
1033.428	0.1126106938463635	83	systole	3	B	500	diastole
1034.128	0.1126106938463635	83	systole	4	B	500	diastole
1034.7686999999999	0.1126106938463635	83	systole	5	B	500	diastole
1035.5106000000003	0.1126106938463635	83	systole	6	B	500	diastole
1036.3107000000002	0.1126106938463635	83	systole	7	B	500	diastole
1037.2106	0.1126106938463635	83	systole	8	B	500	diastole
1038.0104	0.1126106938463635	83	systole	9	B	500	diastole
1038.8102000000001	0.1126106938463635	83	systole	10	B	500	diastole
1039.6804	0.1126106938463635	83	systole	11	B	500	diastole
1040.6304000000002	0.1126106938463635	83	systole	12	B	500	diastole
1043.7313000000001	0.1100094693829305	84	systole	1	B	500	systole
1044.6513000000002	0.1100094693829305	84	systole	2	B	500	systole
1045.4914	0.1100094693829305	84	systole	3	B	500	systole
1046.3315	0.1100094693829305	84	systole	4	B	500	systole
1047.1316	0.1100094693829305	84	systole	5	B	500	systole
1048.0315000000003	0.1100094693829305	84	systole	6	B	500	systole
1048.9816000000003	0.1100094693829305	84	systole	7	B	500	systole
1049.9075	0.1100094693829305	84	systole	8	B	500	systole
1050.8831000000002	0.1100094693829305	84	systole	9	B	500	systole
1051.8529	0.1100094693829305	84	systole	10	B	500	systole
1052.8144	0.1100094693829305	84	systole	11	B	500	systole
1055.7989	0.113750456366688	85	systole	1	B	500	diastole
1056.5191000000002	0.113750456366688	85	systole	2	B	500	diastole
1057.2402	0.113750456366688	85	systole	3	B	500	diastole
1058.1670000000001	0.113750456366688	85	systole	4	B	500	diastole
1059.137	0.113750456366688	85	systole	5	B	500	diastole
1060.1070000000002	0.113750456366688	85	systole	6	B	500	diastole
1060.9713	0.113750456366688	85	systole	7	B	500	diastole
1061.8414	0.113750456366688	85	systole	8	B	500	diastole
1062.8361000000002	0.113750456366688	85	systole	9	B	500	diastole
1063.7963000000002	0.113750456366688	85	systole	10	B	500	diastole
1064.8161000000002	0.113750456366688	85	systole	11	B	500	diastole
1068.8783	0.1193540105596184	86	diastole	1	B	500	systole
1069.6281999999999	0.1193540105596184	86	diastole	2	B	500	systole
1070.398	0.1193540105596184	86	diastole	3	B	500	systole
1071.1779	0.1193540105596184	86	diastole	4	B	500	systole
1071.9449000000002	0.1193540105596184	86	diastole	5	B	500	systole
1072.8268	0.1193540105596184	86	diastole	6	B	500	systole
1073.5602999999999	0.1193540105596184	86	diastole	7	B	500	systole
1074.3605	0.1193540105596184	86	diastole	8	B	500	systole
1075.3605	0.1193540105596184	86	diastole	9	B	500	systole
1076.3606000000002	0.1193540105596184	86	diastole	10	B	500	systole
1077.3606000000002	0.1193540105596184	86	diastole	11	B	500	systole
1081.4819	0.1150095278862863	87	diastole	1	B	500	systole
1082.4619	0.1150095278862863	87	diastole	2	B	500	systole
1083.2819000000002	0.1150095278862863	87	diastole	3	B	500	systole
1084.0619	0.1150095278862863	87	diastole	4	B	500	systole
1084.8504	0.1150095278862863	87	diastole	5	B	500	systole
1085.8204000000003	0.1150095278862863	87	diastole	6	B	500	systole
1086.8619999999999	0.1150095278862863	87	diastole	7	B	500	systole
1087.8621	0.1150095278862863	87	diastole	8	B	500	systole
1088.9367	0.1150095278862863	87	diastole	9	B	500	systole
1089.9363	0.1150095278862863	87	diastole	10	B	500	systole
1092.4739000000002	0.1218866880517453	88	diastole	1	B	500	diastole
1093.2755	0.1218866880517453	88	diastole	2	B	500	diastole
1094.0336	0.1218866880517453	88	diastole	3	B	500	diastole
1094.8988000000002	0.1218866880517453	88	diastole	4	B	500	diastole
1095.7888	0.1218866880517453	88	diastole	5	B	500	diastole
1096.6587000000002	0.1218866880517453	88	diastole	6	B	500	diastole
1097.5787000000003	0.1218866880517453	88	diastole	7	B	500	diastole
1098.4273	0.1218866880517453	88	diastole	8	B	500	diastole
1099.3668	0.1218866880517453	88	diastole	9	B	500	diastole
1100.3669000000002	0.1218866880517453	88	diastole	10	B	500	diastole
1101.3669000000002	0.1218866880517453	88	diastole	11	B	500	diastole
1104.0446	0.1212362560909241	89	systole	1	B	500	diastole
1105.0247000000002	0.1212362560909241	89	systole	2	B	500	diastole
1106.0048	0.1212362560909241	89	systole	3	B	500	diastole
1106.7486999999999	0.1212362560909241	89	systole	4	B	500	diastole
1107.4986999999999	0.1212362560909241	89	systole	5	B	500	diastole
1108.2486999999999	0.1212362560909241	89	systole	6	B	500	diastole
1108.9986000000001	0.1212362560909241	89	systole	7	B	500	diastole
1109.7486000000001	0.1212362560909241	89	systole	8	B	500	diastole
1110.3506	0.1212362560909241	89	systole	9	B	500	diastole
1111.2205999999999	0.1212362560909241	89	systole	10	B	500	diastole
1112.0004999999999	0.1212362560909241	89	systole	11	B	500	diastole
1112.8504	0.1212362560909241	89	systole	12	B	500	diastole
1115.6604	0.1031269534723833	90	systole	1	B	500	systole
1116.5106000000003	0.1031269534723833	90	systole	2	B	500	systole
1117.3607	0.1031269534723833	90	systole	3	B	500	systole
1118.3281	0.1031269534723833	90	systole	4	B	500	systole
1119.3846	0.1031269534723833	90	systole	5	B	500	systole
1120.3256	0.1031269534723833	90	systole	6	B	500	systole
1121.1356000000003	0.1031269534723833	90	systole	7	B	500	systole
1121.9456000000002	0.1031269534723833	90	systole	8	B	500	systole
1122.718	0.1031269534723833	90	systole	9	B	500	systole
1123.4955000000002	0.1031269534723833	90	systole	10	B	500	systole
1124.4863000000003	0.1031269534723833	90	systole	11	B	500	systole
1127.5892999999999	0.1138661378063261	91	diastole	1	B	500	diastole
1128.3594	0.1138661378063261	91	diastole	2	B	500	diastole
1129.0143	0.1138661378063261	91	diastole	3	B	500	diastole
1129.7441999999999	0.1138661378063261	91	diastole	4	B	500	diastole
1130.7023000000002	0.1138661378063261	91	diastole	5	B	500	diastole
1131.669	0.1138661378063261	91	diastole	6	B	500	diastole
1132.5690000000002	0.1138661378063261	91	diastole	7	B	500	diastole
1133.3784000000003	0.1138661378063261	91	diastole	8	B	500	diastole
1134.2024	0.1138661378063261	91	diastole	9	B	500	diastole
1135.0525	0.1138661378063261	91	diastole	10	B	500	diastole
1135.9725	0.1138661378063261	91	diastole	11	B	500	diastole
1139.6272000000001	0.108757886395324	92	diastole	1	B	500	diastole
1140.4624000000001	0.108757886395324	92	diastole	2	B	500	diastole
1141.3226000000002	0.108757886395324	92	diastole	3	B	500	diastole
1142.2939	0.108757886395324	92	diastole	4	B	500	diastole
1143.2439000000002	0.108757886395324	92	diastole	5	B	500	diastole
1144.0973999999999	0.108757886395324	92	diastole	6	B	500	diastole
1144.9675	0.108757886395324	92	diastole	7	B	500	diastole
1145.8376	0.108757886395324	92	diastole	8	B	500	diastole
1146.7077000000002	0.108757886395324	92	diastole	9	B	500	diastole
1147.6596000000002	0.108757886395324	92	diastole	10	B	500	diastole
1148.5431	0.108757886395324	92	diastole	11	B	500	diastole
1151.5954	0.1131294504157267	93	diastole	1	B	500	diastole
1152.4573000000003	0.1131294504157267	93	diastole	2	B	500	diastole
1153.3273000000002	0.1131294504157267	93	diastole	3	B	500	diastole
1154.1573	0.1131294504157267	93	diastole	4	B	500	diastole
1154.9973000000002	0.1131294504157267	93	diastole	5	B	500	diastole
1155.9705999999999	0.1131294504157267	93	diastole	6	B	500	diastole
1156.9604000000002	0.1131294504157267	93	diastole	7	B	500	diastole
1157.8700000000001	0.1131294504157267	93	diastole	8	B	500	diastole
1158.7616	0.1131294504157267	93	diastole	9	B	500	diastole
1159.7716000000003	0.1131294504157267	93	diastole	10	B	500	diastole
1160.7815000000003	0.1131294504157267	93	diastole	11	B	500	diastole
1163.2763000000002	0.1180259663960896	94	systole	1	B	500	systole
1164.2271000000003	0.1180259663960896	94	systole	2	B	500	systole
1165.0844	0.1180259663960896	94	systole	3	B	500	systole
1165.9543	0.1180259663960896	94	systole	4	B	500	systole
1166.8543000000002	0.1180259663960896	94	systole	5	B	500	systole
1167.7794000000001	0.1180259663960896	94	systole	6	B	500	systole
1168.7095000000002	0.1180259663960896	94	systole	7	B	500	systole
1169.568	0.1180259663960896	94	systole	8	B	500	systole
1170.4381	0.1180259663960896	94	systole	9	B	500	systole
1171.2648000000002	0.1180259663960896	94	systole	10	B	500	systole
1172.3446999999999	0.1180259663960896	94	systole	11	B	500	systole
1175.9505000000001	0.1174969286075793	95	diastole	1	B	500	diastole
1176.8006000000003	0.1174969286075793	95	diastole	2	B	500	diastole
1177.6507	0.1174969286075793	95	diastole	3	B	500	diastole
1178.4507	0.1174969286075793	95	diastole	4	B	500	diastole
1179.2506	0.1174969286075793	95	diastole	5	B	500	diastole
1180.2556000000002	0.1174969286075793	95	diastole	6	B	500	diastole
1181.2355	0.1174969286075793	95	diastole	7	B	500	diastole
1182.269	0.1174969286075793	95	diastole	8	B	500	diastole
1183.0602999999999	0.1174969286075793	95	diastole	9	B	500	diastole
1183.9602000000002	0.1174969286075793	95	diastole	10	B	500	diastole
1184.8601	0.1174969286075793	95	diastole	11	B	500	diastole
1188.207	0.1199915312463417	96	systole	1	B	500	systole
1189.0870000000002	0.1199915312463417	96	systole	2	B	500	systole
1189.9669999999999	0.1199915312463417	96	systole	3	B	500	systole
1190.7369	0.1199915312463417	96	systole	4	B	500	systole
1191.5769000000003	0.1199915312463417	96	systole	5	B	500	systole
1192.4952	0.1199915312463417	96	systole	6	B	500	systole
1193.465	0.1199915312463417	96	systole	7	B	500	systole
1194.4349	0.1199915312463417	96	systole	8	B	500	systole
1195.405	0.1199915312463417	96	systole	9	B	500	systole
1196.2769	0.1199915312463417	96	systole	10	B	500	systole
1199.6551000000002	0.115615509042982	97	diastole	1	B	500	diastole
1200.4851999999998	0.115615509042982	97	diastole	2	B	500	diastole
1201.3353	0.115615509042982	97	diastole	3	B	500	diastole
1202.3019000000002	0.115615509042982	97	diastole	4	B	500	diastole
1203.2518000000002	0.115615509042982	97	diastole	5	B	500	diastole
1204.2718000000002	0.115615509042982	97	diastole	6	B	500	diastole
1205.2917	0.115615509042982	97	diastole	7	B	500	diastole
1206.3117	0.115615509042982	97	diastole	8	B	500	diastole
1207.3302999999999	0.115615509042982	97	diastole	9	B	500	diastole
1208.3404000000003	0.115615509042982	97	diastole	10	B	500	diastole
1210.9497	0.1218739750329405	98	systole	1	B	500	systole
1211.7500000000002	0.1218739750329405	98	systole	2	B	500	systole
1212.4133	0.1218739750329405	98	systole	3	B	500	systole
1213.1307	0.1218739750329405	98	systole	4	B	500	systole
1213.9008000000001	0.1218739750329405	98	systole	5	B	500	systole
1214.6888999999999	0.1218739750329405	98	systole	6	B	500	systole
1215.6288000000002	0.1218739750329405	98	systole	7	B	500	systole
1216.5890000000002	0.1218739750329405	98	systole	8	B	500	systole
1217.5908000000002	0.1218739750329405	98	systole	9	B	500	systole
1218.5924000000002	0.1218739750329405	98	systole	10	B	500	systole
1219.5941	0.1218739750329405	98	systole	11	B	500	systole
1222.5457	0.1124057269189506	99	diastole	1	B	500	systole
1223.3957000000003	0.1124057269189506	99	diastole	2	B	500	systole
1224.2457000000002	0.1124057269189506	99	diastole	3	B	500	systole
1224.9958	0.1124057269189506	99	diastole	4	B	500	systole
1225.7459000000001	0.1124057269189506	99	diastole	5	B	500	systole
1226.5490000000002	0.1124057269189506	99	diastole	6	B	500	systole
1227.5085000000001	0.1124057269189506	99	diastole	7	B	500	systole
1228.4289	0.1124057269189506	99	diastole	8	B	500	systole
1229.3494000000003	0.1124057269189506	99	diastole	9	B	500	systole
1230.3208000000002	0.1124057269189506	99	diastole	10	B	500	systole
1231.2908	0.1124057269189506	99	diastole	11	B	500	systole
1233.7108	0.1144109044107608	100	systole	1	B	500	systole
1234.5346000000002	0.1144109044107608	100	systole	2	B	500	systole
1235.3644000000002	0.1144109044107608	100	systole	3	B	500	systole
1236.1796000000002	0.1144109044107608	100	systole	4	B	500	systole
1237.1497000000002	0.1144109044107608	100	systole	5	B	500	systole
1238.1197	0.1144109044107608	100	systole	6	B	500	systole
1239.0899000000002	0.1144109044107608	100	systole	7	B	500	systole
1240.0748	0.1144109044107608	100	systole	8	B	500	systole
1241.0248	0.1144109044107608	100	systole	9	B	500	systole
1241.9048	0.1144109044107608	100	systole	10	B	500	systole
1242.8191	0.1144109044107608	100	systole	11	B	500	systole
