onset	duration	trial_num	trial_type	tone_num	tone_type	frequency	response
57.63090000000011	0.0924996375106275	1	systole	1	B	500	systole
58.310900000000174	0.0924996375106275	1	systole	2	B	500	systole
59.00330000000008	0.0924996375106275	1	systole	3	B	500	systole
59.75290000000018	0.0924996375106275	1	systole	4	B	500	systole
60.62300000000005	0.0924996375106275	1	systole	5	B	500	systole
61.49310000000014	0.0924996375106275	1	systole	6	B	500	systole
62.26310000000012	0.0924996375106275	1	systole	7	B	500	systole
63.11790000000019	0.0924996375106275	1	systole	8	B	500	systole
63.93780000000015	0.0924996375106275	1	systole	9	B	500	systole
64.79970000000003	0.0924996375106275	1	systole	10	B	500	systole
65.51130000000012	0.0924996375106275	1	systole	11	B	500	systole
66.24170000000004	0.0924996375106275	1	systole	12	B	500	systole
66.97199999999998	0.0924996375106275	1	systole	13	B	500	systole
74.80910000000017	0.0938924786169081	2	diastole	1	B	500	diastole
75.6889000000001	0.0938924786169081	2	diastole	2	B	500	diastole
76.43730000000005	0.0938924786169081	2	diastole	3	B	500	diastole
77.16710000000012	0.0938924786169081	2	diastole	4	B	500	diastole
77.94700000000012	0.0938924786169081	2	diastole	5	B	500	diastole
78.72690000000011	0.0938924786169081	2	diastole	6	B	500	diastole
79.51530000000002	0.0938924786169081	2	diastole	7	B	500	diastole
80.20050000000015	0.0938924786169081	2	diastole	8	B	500	diastole
80.91039999999998	0.0938924786169081	2	diastole	9	B	500	diastole
81.74720000000002	0.0938924786169081	2	diastole	10	B	500	diastole
82.56720000000018	0.0938924786169081	2	diastole	11	B	500	diastole
85.76369999999997	0.0962349104811437	3	systole	1	B	500	systole
86.5136	0.0962349104811437	3	systole	2	B	500	systole
87.3152	0.0962349104811437	3	systole	3	B	500	systole
88.17110000000002	0.0962349104811437	3	systole	4	B	500	systole
89.02110000000016	0.0962349104811437	3	systole	5	B	500	systole
89.73530000000005	0.0962349104811437	3	systole	6	B	500	systole
90.50549999999998	0.0962349104811437	3	systole	7	B	500	systole
91.34300000000007	0.0962349104811437	3	systole	8	B	500	systole
92.14139999999998	0.0962349104811437	3	systole	9	B	500	systole
92.90129999999999	0.0962349104811437	3	systole	10	B	500	systole
93.62310000000002	0.0962349104811437	3	systole	11	B	500	systole
94.34480000000008	0.0962349104811437	3	systole	12	B	500	systole
95.15480000000002	0.0962349104811437	3	systole	13	B	500	systole
99.23980000000006	0.0956245749839581	4	systole	1	B	500	systole
100.15970000000016	0.0956245749839581	4	systole	2	B	500	systole
100.98180000000002	0.0956245749839581	4	systole	3	B	500	systole
101.78150000000005	0.0956245749839581	4	systole	4	B	500	systole
102.50170000000003	0.0956245749839581	4	systole	5	B	500	systole
103.16600000000017	0.0956245749839581	4	systole	6	B	500	systole
103.8759	0.0956245749839581	4	systole	7	B	500	systole
104.58580000000006	0.0956245749839581	4	systole	8	B	500	systole
105.22649999999999	0.0956245749839581	4	systole	9	B	500	systole
105.92690000000016	0.0956245749839581	4	systole	10	B	500	systole
107.12890000000016	0.0956245749839581	4	systole	11	B	500	systole
107.99890000000005	0.0956245749839581	4	systole	12	B	500	systole
108.86880000000019	0.0956245749839581	4	systole	13	B	500	systole
113.77020000000016	0.1062252999981865	5	diastole	1	B	500	diastole
114.52890000000002	0.1062252999981865	5	diastole	2	B	500	diastole
115.31100000000015	0.1062252999981865	5	diastole	3	B	500	diastole
116.04600000000005	0.1062252999981865	5	diastole	4	B	500	diastole
116.8143	0.1062252999981865	5	diastole	5	B	500	diastole
117.63250000000016	0.1062252999981865	5	diastole	6	B	500	diastole
118.45240000000013	0.1062252999981865	5	diastole	7	B	500	diastole
119.16450000000009	0.1062252999981865	5	diastole	8	B	500	diastole
119.9248	0.1062252999981865	5	diastole	9	B	500	diastole
120.68510000000015	0.1062252999981865	5	diastole	10	B	500	diastole
121.44540000000006	0.1062252999981865	5	diastole	11	B	500	diastole
122.27370000000019	0.1062252999981865	5	diastole	12	B	500	diastole
127.18050000000017	0.1000004688976332	6	diastole	1	B	500	diastole
128.0101000000002	0.1000004688976332	6	diastole	2	B	500	diastole
128.7804000000001	0.1000004688976332	6	diastole	3	B	500	diastole
129.49360000000001	0.1000004688976332	6	diastole	4	B	500	diastole
130.24360000000001	0.1000004688976332	6	diastole	5	B	500	diastole
130.99360000000001	0.1000004688976332	6	diastole	6	B	500	diastole
131.78539999999998	0.1000004688976332	6	diastole	7	B	500	diastole
132.4923000000001	0.1000004688976332	6	diastole	8	B	500	diastole
133.21530000000007	0.1000004688976332	6	diastole	9	B	500	diastole
133.92700000000013	0.1000004688976332	6	diastole	10	B	500	diastole
134.6472000000001	0.1000004688976332	6	diastole	11	B	500	diastole
135.36900000000014	0.1000004688976332	6	diastole	12	B	500	diastole
136.09910000000013	0.1000004688976332	6	diastole	13	B	500	diastole
139.17730000000006	0.0943806626601144	7	diastole	1	B	500	diastole
139.9072000000001	0.0943806626601144	7	diastole	2	B	500	diastole
140.7106000000001	0.0943806626601144	7	diastole	3	B	500	diastole
141.4607000000001	0.0943806626601144	7	diastole	4	B	500	diastole
142.16420000000016	0.0943806626601144	7	diastole	5	B	500	diastole
142.8782000000001	0.0943806626601144	7	diastole	6	B	500	diastole
143.62239999999997	0.0943806626601144	7	diastole	7	B	500	diastole
144.4755	0.0943806626601144	7	diastole	8	B	500	diastole
145.3053	0.0943806626601144	7	diastole	9	B	500	diastole
146.0386000000001	0.0943806626601144	7	diastole	10	B	500	diastole
146.7885000000001	0.0943806626601144	7	diastole	11	B	500	diastole
147.55840000000012	0.0943806626601144	7	diastole	12	B	500	diastole
148.3284000000001	0.0943806626601144	7	diastole	13	B	500	diastole
154.3315	0.0968689985747914	8	systole	1	B	500	diastole
155.08140000000003	0.0968689985747914	8	systole	2	B	500	diastole
155.8112000000001	0.0968689985747914	8	systole	3	B	500	diastole
156.55130000000008	0.0968689985747914	8	systole	4	B	500	diastole
157.2799	0.0968689985747914	8	systole	5	B	500	diastole
158.01999999999998	0.0968689985747914	8	systole	6	B	500	diastole
158.83000000000015	0.0968689985747914	8	systole	7	B	500	diastole
159.68939999999998	0.0968689985747914	8	systole	8	B	500	diastole
160.39190000000008	0.0968689985747914	8	systole	9	B	500	diastole
161.09699999999998	0.0968689985747914	8	systole	10	B	500	diastole
161.84680000000003	0.0968689985747914	8	systole	11	B	500	diastole
162.69740000000002	0.0968689985747914	8	systole	12	B	500	diastole
163.4475	0.0968689985747914	8	systole	13	B	500	diastole
166.70230000000015	0.095626164053101	9	systole	1	B	500	diastole
167.40229999999997	0.095626164053101	9	systole	2	B	500	diastole
168.1023	0.095626164053101	9	systole	3	B	500	diastole
168.91240000000016	0.095626164053101	9	systole	4	B	500	diastole
169.75340000000006	0.095626164053101	9	systole	5	B	500	diastole
170.52729999999997	0.095626164053101	9	systole	6	B	500	diastole
171.30719999999997	0.095626164053101	9	systole	7	B	500	diastole
171.9973	0.095626164053101	9	systole	8	B	500	diastole
172.6599000000001	0.095626164053101	9	systole	9	B	500	diastole
173.2931000000001	0.095626164053101	9	systole	10	B	500	diastole
173.92820000000006	0.095626164053101	9	systole	11	B	500	diastole
174.62810000000013	0.095626164053101	9	systole	12	B	500	diastole
175.32810000000018	0.095626164053101	9	systole	13	B	500	diastole
177.35820000000012	0.0868794941343367	10	systole	1	B	500	systole
178.27800000000002	0.0868794941343367	10	systole	2	B	500	systole
179.19790000000012	0.0868794941343367	10	systole	3	B	500	systole
180.00300000000016	0.0868794941343367	10	systole	4	B	500	systole
180.85370000000012	0.0868794941343367	10	systole	5	B	500	systole
181.70870000000014	0.0868794941343367	10	systole	6	B	500	systole
182.49770000000012	0.0868794941343367	10	systole	7	B	500	systole
183.26790000000005	0.0868794941343367	10	systole	8	B	500	systole
184.0246000000002	0.0868794941343367	10	systole	9	B	500	systole
184.80470000000014	0.0868794941343367	10	systole	10	B	500	systole
185.5232000000001	0.0868794941343367	10	systole	11	B	500	systole
186.26490000000013	0.0868794941343367	10	systole	12	B	500	systole
187.14790000000016	0.0868794941343367	10	systole	13	B	500	systole
190.9257	0.1018736136320512	11	diastole	1	B	500	systole
191.6658	0.1018736136320512	11	diastole	2	B	500	systole
192.42590000000018	0.1018736136320512	11	diastole	3	B	500	systole
193.26070000000004	0.1018736136320512	11	diastole	4	B	500	systole
193.96230000000014	0.1018736136320512	11	diastole	5	B	500	systole
194.87900000000013	0.1018736136320512	11	diastole	6	B	500	systole
195.779	0.1018736136320512	11	diastole	7	B	500	systole
196.58889999999997	0.1018736136320512	11	diastole	8	B	500	systole
197.36250000000018	0.1018736136320512	11	diastole	9	B	500	systole
198.20890000000009	0.1018736136320512	11	diastole	10	B	500	systole
199.08730000000014	0.1018736136320512	11	diastole	11	B	500	systole
202.65660000000003	0.1018747184134554	12	systole	1	B	500	systole
203.45659999999998	0.1018747184134554	12	systole	2	B	500	systole
204.19330000000014	0.1018747184134554	12	systole	3	B	500	systole
204.95330000000013	0.1018747184134554	12	systole	4	B	500	systole
205.83889999999997	0.1018747184134554	12	systole	5	B	500	systole
206.5657000000001	0.1018747184134554	12	systole	6	B	500	systole
207.38900000000012	0.1018747184134554	12	systole	7	B	500	systole
208.1889000000001	0.1018747184134554	12	systole	8	B	500	systole
208.98880000000008	0.1018747184134554	12	systole	9	B	500	systole
209.74030000000016	0.1018747184134554	12	systole	10	B	500	systole
210.4674	0.1018747184134554	12	systole	11	B	500	systole
211.21780000000012	0.1018747184134554	12	systole	12	B	500	systole
214.80110000000013	0.0956227864080574	13	diastole	1	B	500	diastole
215.62130000000002	0.0956227864080574	13	diastole	2	B	500	diastole
216.40139999999997	0.0956227864080574	13	diastole	3	B	500	diastole
217.1812	0.0956227864080574	13	diastole	4	B	500	diastole
217.9611	0.0956227864080574	13	diastole	5	B	500	diastole
218.7409	0.0956227864080574	13	diastole	6	B	500	diastole
219.53790000000004	0.0956227864080574	13	diastole	7	B	500	diastole
220.2881	0.0956227864080574	13	diastole	8	B	500	diastole
221.0862000000002	0.0956227864080574	13	diastole	9	B	500	diastole
221.87610000000018	0.0956227864080574	13	diastole	10	B	500	diastole
222.68450000000007	0.0956227864080574	13	diastole	11	B	500	diastole
223.48450000000003	0.0956227864080574	13	diastole	12	B	500	diastole
228.77580000000012	0.1006211313069798	14	diastole	1	B	500	systole
229.5458000000001	0.1006211313069798	14	diastole	2	B	500	systole
230.3157000000001	0.1006211313069798	14	diastole	3	B	500	systole
231.0856000000001	0.1006211313069798	14	diastole	4	B	500	systole
231.8873000000001	0.1006211313069798	14	diastole	5	B	500	systole
232.72580000000016	0.1006211313069798	14	diastole	6	B	500	systole
233.5558000000001	0.1006211313069798	14	diastole	7	B	500	systole
234.37580000000003	0.1006211313069798	14	diastole	8	B	500	systole
235.12400000000002	0.1006211313069798	14	diastole	9	B	500	systole
235.99410000000012	0.1006211313069798	14	diastole	10	B	500	systole
236.86450000000013	0.1006211313069798	14	diastole	11	B	500	systole
239.8556000000001	0.0999862875032704	15	diastole	1	B	500	diastole
240.6159	0.0999862875032704	15	diastole	2	B	500	diastole
241.50099999999998	0.0999862875032704	15	diastole	3	B	500	diastole
242.21580000000017	0.0999862875032704	15	diastole	4	B	500	diastole
242.95550000000003	0.0999862875032704	15	diastole	5	B	500	diastole
243.75549999999998	0.0999862875032704	15	diastole	6	B	500	diastole
244.55560000000014	0.0999862875032704	15	diastole	7	B	500	diastole
245.44230000000016	0.0999862875032704	15	diastole	8	B	500	diastole
246.15570000000002	0.0999862875032704	15	diastole	9	B	500	diastole
246.8859	0.0999862875032704	15	diastole	10	B	500	diastole
247.64660000000003	0.0999862875032704	15	diastole	11	B	500	diastole
248.41600000000017	0.0999862875032704	15	diastole	12	B	500	diastole
251.23559999999998	0.0968616161262616	16	systole	1	B	500	diastole
252.01510000000007	0.0968616161262616	16	systole	2	B	500	diastole
252.81100000000015	0.0968616161262616	16	systole	3	B	500	diastole
253.6011000000001	0.0968616161262616	16	systole	4	B	500	diastole
254.41740000000004	0.0968616161262616	16	systole	5	B	500	diastole
255.1315000000002	0.0968616161262616	16	systole	6	B	500	diastole
255.88160000000016	0.0968616161262616	16	systole	7	B	500	diastole
256.6672000000001	0.0968616161262616	16	systole	8	B	500	diastole
257.4470000000001	0.0968616161262616	16	systole	9	B	500	diastole
258.1609000000001	0.0968616161262616	16	systole	10	B	500	diastole
258.91560000000004	0.0968616161262616	16	systole	11	B	500	diastole
259.6500000000001	0.0968616161262616	16	systole	12	B	500	diastole
260.45960000000014	0.0968616161262616	16	systole	13	B	500	diastole
263.826	0.0956542936619371	17	diastole	1	B	500	diastole
264.5758000000001	0.0956542936619371	17	diastole	2	B	500	diastole
265.3256000000001	0.0956542936619371	17	diastole	3	B	500	diastole
266.06740000000013	0.0956542936619371	17	diastole	4	B	500	diastole
266.86760000000004	0.0956542936619371	17	diastole	5	B	500	diastole
267.5806	0.0956542936619371	17	diastole	6	B	500	diastole
268.3022000000001	0.0956542936619371	17	diastole	7	B	500	diastole
269.0603000000001	0.0956542936619371	17	diastole	8	B	500	diastole
269.83540000000016	0.0956542936619371	17	diastole	9	B	500	diastole
270.59540000000015	0.0956542936619371	17	diastole	10	B	500	diastole
271.33720000000017	0.0956542936619371	17	diastole	11	B	500	diastole
272.0974000000001	0.0956542936619371	17	diastole	12	B	500	diastole
275.3824000000002	0.0950090562109835	18	diastole	1	B	500	systole
276.15240000000017	0.0950090562109835	18	diastole	2	B	500	systole
276.9905000000001	0.0950090562109835	18	diastole	3	B	500	systole
277.82040000000006	0.0950090562109835	18	diastole	4	B	500	systole
278.6503	0.0950090562109835	18	diastole	5	B	500	systole
279.4204	0.0950090562109835	18	diastole	6	B	500	systole
280.25880000000006	0.0950090562109835	18	diastole	7	B	500	systole
281.16859999999997	0.0950090562109835	18	diastole	8	B	500	systole
282.0286000000001	0.0950090562109835	18	diastole	9	B	500	systole
282.7384000000002	0.0950090562109835	18	diastole	10	B	500	systole
283.49800000000005	0.0950090562109835	18	diastole	11	B	500	systole
284.26070000000004	0.0950090562109835	18	diastole	12	B	500	systole
287.6333000000002	0.0981115254980977	19	systole	1	B	500	diastole
288.36969999999997	0.0981115254980977	19	systole	2	B	500	diastole
289.1178	0.0981115254980977	19	systole	3	B	500	diastole
289.9294	0.0981115254980977	19	systole	4	B	500	diastole
290.6499000000001	0.0981115254980977	19	systole	5	B	500	diastole
291.36890000000017	0.0981115254980977	19	systole	6	B	500	diastole
292.1341	0.0981115254980977	19	systole	7	B	500	diastole
292.9046000000001	0.0981115254980977	19	systole	8	B	500	diastole
293.72450000000003	0.0981115254980977	19	systole	9	B	500	diastole
294.45140000000015	0.0981115254980977	19	systole	10	B	500	diastole
295.1913000000002	0.0981115254980977	19	systole	11	B	500	diastole
295.9830000000002	0.0981115254980977	19	systole	12	B	500	diastole
296.7629000000002	0.0981115254980977	19	systole	13	B	500	diastole
300.8216	0.0981291421339847	20	systole	1	B	500	systole
301.6074000000001	0.0981291421339847	20	systole	2	B	500	systole
302.38740000000007	0.0981291421339847	20	systole	3	B	500	systole
303.12750000000005	0.0981291421339847	20	systole	4	B	500	systole
303.9335000000001	0.0981291421339847	20	systole	5	B	500	systole
304.7334000000001	0.0981291421339847	20	systole	6	B	500	systole
305.53340000000003	0.0981291421339847	20	systole	7	B	500	systole
306.365	0.0981291421339847	20	systole	8	B	500	systole
307.12760000000003	0.0981291421339847	20	systole	9	B	500	systole
307.9077	0.0981291421339847	20	systole	10	B	500	systole
308.7877000000001	0.0981291421339847	20	systole	11	B	500	systole
309.56820000000016	0.0981291421339847	20	systole	12	B	500	systole
312.75890000000004	0.0987759957206435	21	systole	1	B	500	systole
313.5588	0.0987759957206435	21	systole	2	B	500	systole
314.3904	0.0987759957206435	21	systole	3	B	500	systole
315.14070000000015	0.0987759957206435	21	systole	4	B	500	systole
315.8891000000001	0.0987759957206435	21	systole	5	B	500	systole
316.64890000000014	0.0987759957206435	21	systole	6	B	500	systole
317.4172000000001	0.0987759957206435	21	systole	7	B	500	systole
318.2487000000001	0.0987759957206435	21	systole	8	B	500	systole
318.90020000000004	0.0987759957206435	21	systole	9	B	500	systole
319.5880000000002	0.0987759957206435	21	systole	10	B	500	systole
320.28830000000016	0.0987759957206435	21	systole	11	B	500	systole
320.9884000000002	0.0987759957206435	21	systole	12	B	500	systole
321.7327	0.0987759957206435	21	systole	13	B	500	systole
325.5589	0.088128718722146	22	diastole	1	B	500	diastole
326.2387000000001	0.088128718722146	22	diastole	2	B	500	diastole
326.9185	0.088128718722146	22	diastole	3	B	500	diastole
327.5788	0.088128718722146	22	diastole	4	B	500	diastole
328.23900000000003	0.088128718722146	22	diastole	5	B	500	diastole
328.9546	0.088128718722146	22	diastole	6	B	500	diastole
329.69500000000016	0.088128718722146	22	diastole	7	B	500	diastole
330.5133000000001	0.088128718722146	22	diastole	8	B	500	diastole
331.3928000000001	0.088128718722146	22	diastole	9	B	500	diastole
332.22270000000003	0.088128718722146	22	diastole	10	B	500	diastole
332.9262000000001	0.088128718722146	22	diastole	11	B	500	diastole
333.6460000000002	0.088128718722146	22	diastole	12	B	500	diastole
336.6745000000001	0.0974960986641235	23	systole	1	B	500	systole
337.4543000000001	0.0974960986641235	23	systole	2	B	500	systole
338.31600000000003	0.0974960986641235	23	systole	3	B	500	systole
339.0509000000002	0.0974960986641235	23	systole	4	B	500	systole
339.8208000000002	0.0974960986641235	23	systole	5	B	500	systole
340.5911000000001	0.0974960986641235	23	systole	6	B	500	systole
341.53520000000003	0.0974960986641235	23	systole	7	B	500	systole
342.28610000000003	0.0974960986641235	23	systole	8	B	500	systole
343.0661	0.0974960986641235	23	systole	9	B	500	systole
343.80680000000007	0.0974960986641235	23	systole	10	B	500	systole
344.6500000000001	0.0974960986641235	23	systole	11	B	500	systole
345.46990000000005	0.0974960986641235	23	systole	12	B	500	systole
346.3292000000001	0.0974960986641235	23	systole	13	B	500	systole
349.11390000000006	0.1012432605202775	24	diastole	1	B	500	systole
349.87390000000005	0.1012432605202775	24	diastole	2	B	500	systole
350.67370000000005	0.1012432605202775	24	diastole	3	B	500	systole
351.47350000000006	0.1012432605202775	24	diastole	4	B	500	systole
352.29060000000004	0.1012432605202775	24	diastole	5	B	500	systole
353.0407	0.1012432605202775	24	diastole	6	B	500	systole
353.7853	0.1012432605202775	24	diastole	7	B	500	systole
354.5739000000001	0.1012432605202775	24	diastole	8	B	500	systole
355.3538000000001	0.1012432605202775	24	diastole	9	B	500	systole
356.0776000000001	0.1012432605202775	24	diastole	10	B	500	systole
356.8289	0.1012432605202775	24	diastole	11	B	500	systole
357.5689	0.1012432605202775	24	diastole	12	B	500	systole
358.30899999999997	0.1012432605202775	24	diastole	13	B	500	systole
360.40139999999997	0.0962273374025244	25	systole	1	B	500	diastole
361.2514000000001	0.0962273374025244	25	systole	2	B	500	diastole
362.0314000000001	0.0962273374025244	25	systole	3	B	500	diastole
362.80140000000006	0.0962273374025244	25	systole	4	B	500	diastole
363.6372000000001	0.0962273374025244	25	systole	5	B	500	diastole
364.46720000000005	0.0962273374025244	25	systole	6	B	500	diastole
365.279	0.0962273374025244	25	systole	7	B	500	diastole
366.0171	0.0962273374025244	25	systole	8	B	500	diastole
366.76700000000005	0.0962273374025244	25	systole	9	B	500	diastole
367.52700000000004	0.0962273374025244	25	systole	10	B	500	diastole
368.28700000000003	0.0962273374025244	25	systole	11	B	500	diastole
369.08310000000006	0.0962273374025244	25	systole	12	B	500	diastole
369.9546	0.0962273374025244	25	systole	13	B	500	diastole
372.55510000000004	0.0993872312246821	26	systole	1	B	500	systole
373.3551	0.0993872312246821	26	systole	2	B	500	systole
374.12840000000006	0.0993872312246821	26	systole	3	B	500	systole
374.87840000000006	0.0993872312246821	26	systole	4	B	500	systole
375.61850000000004	0.0993872312246821	26	systole	5	B	500	systole
376.35850000000005	0.0993872312246821	26	systole	6	B	500	systole
377.0915	0.0993872312246821	26	systole	7	B	500	systole
377.8420000000001	0.0993872312246821	26	systole	8	B	500	systole
378.66200000000003	0.0993872312246821	26	systole	9	B	500	systole
379.4821000000002	0.0993872312246821	26	systole	10	B	500	systole
380.3176000000001	0.0993872312246821	26	systole	11	B	500	systole
381.1123	0.0993872312246821	26	systole	12	B	500	systole
384.9575	0.101112893607933	27	diastole	1	B	500	systole
385.75750000000016	0.101112893607933	27	diastole	2	B	500	systole
386.5941	0.101112893607933	27	diastole	3	B	500	systole
387.3478	0.101112893607933	27	diastole	4	B	500	systole
388.1105	0.101112893607933	27	diastole	5	B	500	systole
388.8801000000001	0.101112893607933	27	diastole	6	B	500	systole
389.68010000000004	0.101112893607933	27	diastole	7	B	500	systole
390.45000000000005	0.101112893607933	27	diastole	8	B	500	systole
391.21990000000005	0.101112893607933	27	diastole	9	B	500	systole
391.94540000000006	0.101112893607933	27	diastole	10	B	500	systole
392.77520000000004	0.101112893607933	27	diastole	11	B	500	systole
393.6304	0.101112893607933	27	diastole	12	B	500	systole
396.70900000000006	0.0987366371846292	28	diastole	1	B	500	systole
397.4673	0.0987366371846292	28	diastole	2	B	500	systole
398.21900000000005	0.0987366371846292	28	diastole	3	B	500	systole
398.97900000000004	0.0987366371846292	28	diastole	4	B	500	systole
399.7438000000002	0.0987366371846292	28	diastole	5	B	500	systole
400.52210000000014	0.0987366371846292	28	diastole	6	B	500	systole
401.3118000000002	0.0987366371846292	28	diastole	7	B	500	systole
402.1015	0.0987366371846292	28	diastole	8	B	500	systole
402.9766000000002	0.0987366371846292	28	diastole	9	B	500	systole
403.7016000000001	0.0987366371846292	28	diastole	10	B	500	systole
404.47990000000004	0.0987366371846292	28	diastole	11	B	500	systole
405.2499	0.0987366371846292	28	diastole	12	B	500	systole
406.0467000000001	0.0987366371846292	28	diastole	13	B	500	systole
409.0223000000001	0.0987278188404161	29	systole	1	B	500	diastole
409.9026000000001	0.0987278188404161	29	systole	2	B	500	diastole
410.63779999999997	0.0987278188404161	29	systole	3	B	500	diastole
411.40790000000015	0.0987278188404161	29	systole	4	B	500	diastole
412.1780000000001	0.0987278188404161	29	systole	5	B	500	diastole
412.94810000000007	0.0987278188404161	29	systole	6	B	500	diastole
413.7481	0.0987278188404161	29	systole	7	B	500	diastole
414.5481	0.0987278188404161	29	systole	8	B	500	diastole
415.2345	0.0987278188404161	29	systole	9	B	500	diastole
415.8614	0.0987278188404161	29	systole	10	B	500	diastole
416.4963	0.0987278188404161	29	systole	11	B	500	diastole
417.21050000000014	0.0987278188404161	29	systole	12	B	500	diastole
417.9304000000002	0.0987278188404161	29	systole	13	B	500	diastole
421.3727000000001	0.0906217718729749	30	diastole	1	B	500	diastole
422.23260000000005	0.0906217718729749	30	diastole	2	B	500	diastole
423.0825	0.0906217718729749	30	diastole	3	B	500	diastole
423.88250000000016	0.0906217718729749	30	diastole	4	B	500	diastole
424.6025000000002	0.0906217718729749	30	diastole	5	B	500	diastole
425.3224	0.0906217718729749	30	diastole	6	B	500	diastole
426.16880000000015	0.0906217718729749	30	diastole	7	B	500	diastole
426.9090000000001	0.0906217718729749	30	diastole	8	B	500	diastole
427.64920000000006	0.0906217718729749	30	diastole	9	B	500	diastole
428.44060000000013	0.0906217718729749	30	diastole	10	B	500	diastole
429.26070000000004	0.0906217718729749	30	diastole	11	B	500	diastole
430.11900000000014	0.0906217718729749	30	diastole	12	B	500	diastole
432.8909000000001	0.1006231437204405	31	systole	1	B	500	systole
433.6110000000001	0.1006231437204405	31	systole	2	B	500	systole
434.3312000000001	0.1006231437204405	31	systole	3	B	500	systole
435.1811	0.1006231437204405	31	systole	4	B	500	systole
435.9652000000001	0.1006231437204405	31	systole	5	B	500	systole
436.8353000000002	0.1006231437204405	31	systole	6	B	500	systole
437.70540000000005	0.1006231437204405	31	systole	7	B	500	systole
438.47540000000004	0.1006231437204405	31	systole	8	B	500	systole
439.2454	0.1006231437204405	31	systole	9	B	500	systole
440.0294000000001	0.1006231437204405	31	systole	10	B	500	systole
440.8194000000001	0.1006231437204405	31	systole	11	B	500	systole
441.5793000000001	0.1006231437204405	31	systole	12	B	500	systole
442.33910000000014	0.1006231437204405	31	systole	13	B	500	systole
446.09490000000005	0.0993871501414105	32	systole	1	B	500	diastole
446.885	0.0993871501414105	32	systole	2	B	500	diastole
447.7374	0.0993871501414105	32	systole	3	B	500	diastole
448.5373000000002	0.0993871501414105	32	systole	4	B	500	diastole
449.3171	0.0993871501414105	32	systole	5	B	500	diastole
450.0971000000002	0.0993871501414105	32	systole	6	B	500	diastole
450.7671	0.0993871501414105	32	systole	7	B	500	diastole
451.4348	0.0993871501414105	32	systole	8	B	500	diastole
452.1247000000001	0.0993871501414105	32	systole	9	B	500	diastole
452.76279999999997	0.0993871501414105	32	systole	10	B	500	diastole
453.4126000000001	0.0993871501414105	32	systole	11	B	500	diastole
454.0624	0.0993871501414105	32	systole	12	B	500	diastole
454.9773	0.0993871501414105	32	systole	13	B	500	diastole
458.1354000000001	0.0981005436915438	33	diastole	1	B	500	systole
458.86530000000016	0.0981005436915438	33	diastole	2	B	500	systole
459.55550000000017	0.0981005436915438	33	diastole	3	B	500	systole
460.3054000000002	0.0981005436915438	33	diastole	4	B	500	systole
461.14070000000015	0.0981005436915438	33	diastole	5	B	500	systole
461.9667000000002	0.0981005436915438	33	diastole	6	B	500	systole
462.80650000000014	0.0981005436915438	33	diastole	7	B	500	systole
463.7565000000002	0.0981005436915438	33	diastole	8	B	500	systole
464.7065	0.0981005436915438	33	diastole	9	B	500	systole
465.5866000000001	0.0981005436915438	33	diastole	10	B	500	systole
466.32320000000004	0.0981005436915438	33	diastole	11	B	500	systole
470.7067000000002	0.1031279369199182	34	systole	1	B	500	diastole
471.41340000000014	0.1031279369199182	34	systole	2	B	500	diastole
472.14340000000016	0.1031279369199182	34	systole	3	B	500	diastole
472.83720000000017	0.1031279369199182	34	systole	4	B	500	diastole
473.5368000000001	0.1031279369199182	34	systole	5	B	500	diastole
474.5158000000001	0.1031279369199182	34	systole	6	B	500	diastole
475.50160000000005	0.1031279369199182	34	systole	7	B	500	diastole
476.49350000000004	0.1031279369199182	34	systole	8	B	500	diastole
477.4892	0.1031279369199182	34	systole	9	B	500	diastole
478.40920000000006	0.1031279369199182	34	systole	10	B	500	diastole
479.0635	0.1031279369199182	34	systole	11	B	500	diastole
483.1273000000001	0.1100083508354146	35	diastole	1	B	500	diastole
484.0772000000002	0.1100083508354146	35	diastole	2	B	500	diastole
485.0271	0.1100083508354146	35	diastole	3	B	500	diastole
485.6854000000001	0.1100083508354146	35	diastole	4	B	500	diastole
486.4353000000001	0.1100083508354146	35	diastole	5	B	500	diastole
487.1953000000001	0.1100083508354146	35	diastole	6	B	500	diastole
488.1786000000002	0.1100083508354146	35	diastole	7	B	500	diastole
489.1286	0.1100083508354146	35	diastole	8	B	500	diastole
489.94939999999997	0.1100083508354146	35	diastole	9	B	500	diastole
490.779	0.1100083508354146	35	diastole	10	B	500	diastole
491.6086	0.1100083508354146	35	diastole	11	B	500	diastole
494.34310000000005	0.1043478102656081	36	systole	1	B	500	systole
495.203	0.1043478102656081	36	systole	2	B	500	systole
495.93090000000007	0.1043478102656081	36	systole	3	B	500	systole
496.69360000000006	0.1043478102656081	36	systole	4	B	500	systole
497.4737	0.1043478102656081	36	systole	5	B	500	systole
498.30370000000016	0.1043478102656081	36	systole	6	B	500	systole
499.05460000000016	0.1043478102656081	36	systole	7	B	500	systole
499.83450000000016	0.1043478102656081	36	systole	8	B	500	systole
500.69360000000006	0.1043478102656081	36	systole	9	B	500	systole
501.605	0.1043478102656081	36	systole	10	B	500	systole
502.5051000000001	0.1043478102656081	36	systole	11	B	500	systole
503.2934	0.1043478102656081	36	systole	12	B	500	systole
507.6725000000001	0.1012568426376674	37	diastole	1	B	500	diastole
508.5029000000002	0.1012568426376674	37	diastole	2	B	500	diastole
509.3733	0.1012568426376674	37	diastole	3	B	500	diastole
510.0979	0.1012568426376674	37	diastole	4	B	500	diastole
510.83090000000016	0.1012568426376674	37	diastole	5	B	500	diastole
511.5757000000001	0.1012568426376674	37	diastole	6	B	500	diastole
512.3391000000001	0.1012568426376674	37	diastole	7	B	500	diastole
513.0724	0.1012568426376674	37	diastole	8	B	500	diastole
513.8522	0.1012568426376674	37	diastole	9	B	500	diastole
514.7173	0.1012568426376674	37	diastole	10	B	500	diastole
515.5574000000001	0.1012568426376674	37	diastole	11	B	500	diastole
518.5303000000001	0.1000016040052287	38	systole	1	B	500	systole
519.3003999999999	0.1000016040052287	38	systole	2	B	500	systole
520.0808	0.1000016040052287	38	systole	3	B	500	systole
520.8612	0.1000016040052287	38	systole	4	B	500	systole
521.5912000000001	0.1000016040052287	38	systole	5	B	500	systole
522.3511000000001	0.1000016040052287	38	systole	6	B	500	systole
523.133	0.1000016040052287	38	systole	7	B	500	systole
523.9150000000002	0.1000016040052287	38	systole	8	B	500	systole
524.6733999999999	0.1000016040052287	38	systole	9	B	500	systole
525.4174	0.1000016040052287	38	systole	10	B	500	systole
526.1673000000003	0.1000016040052287	38	systole	11	B	500	systole
527.0074999999999	0.1000016040052287	38	systole	12	B	500	systole
527.7935	0.1000016040052287	38	systole	13	B	500	systole
531.3503000000003	0.0980317999783437	39	diastole	1	B	500	diastole
532.0903000000001	0.0980317999783437	39	diastole	2	B	500	diastole
532.954	0.0980317999783437	39	diastole	3	B	500	diastole
533.7839999999999	0.0980317999783437	39	diastole	4	B	500	diastole
534.6756000000003	0.0980317999783437	39	diastole	5	B	500	diastole
535.4322	0.0980317999783437	39	diastole	6	B	500	diastole
536.1855000000003	0.0980317999783437	39	diastole	7	B	500	diastole
536.9869000000001	0.0980317999783437	39	diastole	8	B	500	diastole
537.8235999999999	0.0980317999783437	39	diastole	9	B	500	diastole
538.5536	0.0980317999783437	39	diastole	10	B	500	diastole
539.2554000000002	0.0980317999783437	39	diastole	11	B	500	diastole
539.9655	0.0980317999783437	39	diastole	12	B	500	diastole
544.0602999999999	0.0962432624946814	40	diastole	1	B	500	systole
544.8806000000002	0.0962432624946814	40	diastole	2	B	500	systole
545.6306000000002	0.0962432624946814	40	diastole	3	B	500	systole
546.3806000000002	0.0962432624946814	40	diastole	4	B	500	systole
547.1305	0.0962432624946814	40	diastole	5	B	500	systole
547.8905000000002	0.0962432624946814	40	diastole	6	B	500	systole
548.6787999999999	0.0962432624946814	40	diastole	7	B	500	systole
549.4404000000002	0.0962432624946814	40	diastole	8	B	500	systole
550.2104000000002	0.0962432624946814	40	diastole	9	B	500	systole
550.9802999999999	0.0962432624946814	40	diastole	10	B	500	systole
551.8803	0.0962432624946814	40	diastole	11	B	500	systole
552.7402	0.0962432624946814	40	diastole	12	B	500	systole
553.6000999999999	0.0962432624946814	40	diastole	13	B	500	systole
556.1371000000001	0.0975091379659716	41	diastole	1	B	500	diastole
556.9770000000001	0.0975091379659716	41	diastole	2	B	500	diastole
557.9134999999999	0.0975091379659716	41	diastole	3	B	500	diastole
558.6533999999999	0.0975091379659716	41	diastole	4	B	500	diastole
559.3934000000002	0.0975091379659716	41	diastole	5	B	500	diastole
560.1186	0.0975091379659716	41	diastole	6	B	500	diastole
560.9037000000001	0.0975091379659716	41	diastole	7	B	500	diastole
561.7136000000003	0.0975091379659716	41	diastole	8	B	500	diastole
562.4685999999999	0.0975091379659716	41	diastole	9	B	500	diastole
563.2484999999999	0.0975091379659716	41	diastole	10	B	500	diastole
564.0886000000003	0.0975091379659716	41	diastole	11	B	500	diastole
564.9287000000002	0.0975091379659716	41	diastole	12	B	500	diastole
567.1565000000003	0.1000109895830974	42	systole	1	B	500	diastole
567.9863000000003	0.1000109895830974	42	systole	2	B	500	diastole
568.8336000000002	0.1000109895830974	42	systole	3	B	500	diastole
569.7653000000003	0.1000109895830974	42	systole	4	B	500	diastole
570.6852000000001	0.1000109895830974	42	systole	5	B	500	diastole
571.4651999999999	0.1000109895830974	42	systole	6	B	500	diastole
572.2452000000001	0.1000109895830974	42	systole	7	B	500	diastole
573.028	0.1000109895830974	42	systole	8	B	500	diastole
573.8282000000002	0.1000109895830974	42	systole	9	B	500	diastole
574.6081000000001	0.1000109895830974	42	systole	10	B	500	diastole
575.3579000000002	0.1000109895830974	42	systole	11	B	500	diastole
576.0806	0.1000109895830974	42	systole	12	B	500	diastole
576.8805	0.1000109895830974	42	systole	13	B	500	diastole
580.2769000000001	0.0981266812596004	43	diastole	1	B	500	diastole
581.0368000000001	0.0981266812596004	43	diastole	2	B	500	diastole
581.7601000000002	0.0981266812596004	43	diastole	3	B	500	diastole
582.4905000000001	0.0981266812596004	43	diastole	4	B	500	diastole
583.2203999999999	0.0981266812596004	43	diastole	5	B	500	diastole
583.8769	0.0981266812596004	43	diastole	6	B	500	diastole
584.6368	0.0981266812596004	43	diastole	7	B	500	diastole
585.3967	0.0981266812596004	43	diastole	8	B	500	diastole
586.0922000000003	0.0981266812596004	43	diastole	9	B	500	diastole
586.7740000000001	0.0981266812596004	43	diastole	10	B	500	diastole
587.4833000000001	0.0981266812596004	43	diastole	11	B	500	diastole
588.1951999999999	0.0981266812596004	43	diastole	12	B	500	diastole
588.9152999999999	0.0981266812596004	43	diastole	13	B	500	diastole
590.8249000000003	0.0925356361258309	44	systole	1	B	500	diastole
591.4974	0.0925356361258309	44	systole	2	B	500	diastole
592.2174000000002	0.0925356361258309	44	systole	3	B	500	diastole
592.9374	0.0925356361258309	44	systole	4	B	500	diastole
593.7106000000001	0.0925356361258309	44	systole	5	B	500	diastole
594.4307000000001	0.0925356361258309	44	systole	6	B	500	diastole
595.1508000000001	0.0925356361258309	44	systole	7	B	500	diastole
595.9390000000001	0.0925356361258309	44	systole	8	B	500	diastole
596.7607	0.0925356361258309	44	systole	9	B	500	diastole
597.5824	0.0925356361258309	44	systole	10	B	500	diastole
598.4606999999999	0.0925356361258309	44	systole	11	B	500	diastole
599.2524000000001	0.0925356361258309	44	systole	12	B	500	diastole
600.1406	0.0925356361258309	44	systole	13	B	500	diastole
603.2403999999999	0.099997550016269	45	systole	1	B	500	systole
604.1124000000002	0.099997550016269	45	systole	2	B	500	systole
604.8404000000003	0.099997550016269	45	systole	3	B	500	systole
605.7007000000001	0.099997550016269	45	systole	4	B	500	systole
606.6623000000002	0.099997550016269	45	systole	5	B	500	systole
607.6122000000003	0.099997550016269	45	systole	6	B	500	systole
608.4005	0.099997550016269	45	systole	7	B	500	systole
609.2005000000001	0.099997550016269	45	systole	8	B	500	systole
610.0598000000002	0.099997550016269	45	systole	9	B	500	systole
610.8196	0.099997550016269	45	systole	10	B	500	systole
611.5597	0.099997550016269	45	systole	11	B	500	systole
612.2997000000003	0.099997550016269	45	systole	12	B	500	systole
615.7321	0.0963583189004566	46	diastole	1	B	500	diastole
616.5806	0.0963583189004566	46	diastole	2	B	500	diastole
617.3120999999999	0.0963583189004566	46	diastole	3	B	500	diastole
618.0925	0.0963583189004566	46	diastole	4	B	500	diastole
618.8729000000001	0.0963583189004566	46	diastole	5	B	500	diastole
619.6533000000002	0.0963583189004566	46	diastole	6	B	500	diastole
620.4134999999999	0.0963583189004566	46	diastole	7	B	500	diastole
621.2103	0.0963583189004566	46	diastole	8	B	500	diastole
621.9102	0.0963583189004566	46	diastole	9	B	500	diastole
622.6501000000001	0.0963583189004566	46	diastole	10	B	500	diastole
623.3756000000001	0.0963583189004566	46	diastole	11	B	500	diastole
624.1259000000002	0.0963583189004566	46	diastole	12	B	500	diastole
624.8372000000002	0.0963583189004566	46	diastole	13	B	500	diastole
626.8225	0.0937762624234892	47	systole	1	B	500	diastole
627.6143	0.0937762624234892	47	systole	2	B	500	diastole
628.3945000000001	0.0937762624234892	47	systole	3	B	500	diastole
629.1958000000002	0.0937762624234892	47	systole	4	B	500	diastole
629.9359000000002	0.0937762624234892	47	systole	5	B	500	diastole
630.6559	0.0937762624234892	47	systole	6	B	500	diastole
631.4059	0.0937762624234892	47	systole	7	B	500	diastole
632.144	0.0937762624234892	47	systole	8	B	500	diastole
632.8939000000003	0.0937762624234892	47	systole	9	B	500	diastole
633.5826	0.0937762624234892	47	systole	10	B	500	diastole
634.3421000000001	0.0937762624234892	47	systole	11	B	500	diastole
635.1016000000002	0.0937762624234892	47	systole	12	B	500	diastole
635.9017999999999	0.0937762624234892	47	systole	13	B	500	diastole
636.6613	0.0937762624234892	47	systole	14	B	500	diastole
639.6931999999999	0.0949415962677449	48	systole	1	B	500	diastole
640.4431999999999	0.0949415962677449	48	systole	2	B	500	diastole
641.2435000000003	0.0949415962677449	48	systole	3	B	500	diastole
641.9882	0.0949415962677449	48	systole	4	B	500	diastole
642.818	0.0949415962677449	48	systole	5	B	500	diastole
643.6881000000001	0.0949415962677449	48	systole	6	B	500	diastole
644.5474000000002	0.0949415962677449	48	systole	7	B	500	diastole
645.3775000000003	0.0949415962677449	48	systole	8	B	500	diastole
646.0629999999999	0.0949415962677449	48	systole	9	B	500	diastole
646.8604000000003	0.0949415962677449	48	systole	10	B	500	diastole
647.6403000000003	0.0949415962677449	48	systole	11	B	500	diastole
648.3703000000003	0.0949415962677449	48	systole	12	B	500	diastole
651.6202000000001	0.092477357131429	49	diastole	1	B	500	systole
652.5000000000002	0.092477357131429	49	diastole	2	B	500	systole
653.3797999999999	0.092477357131429	49	diastole	3	B	500	systole
654.1463000000001	0.092477357131429	49	diastole	4	B	500	systole
654.9765	0.092477357131429	49	diastole	5	B	500	systole
655.7837999999999	0.092477357131429	49	diastole	6	B	500	systole
656.5739000000001	0.092477357131429	49	diastole	7	B	500	systole
657.3235999999999	0.092477357131429	49	diastole	8	B	500	systole
658.1284000000003	0.092477357131429	49	diastole	9	B	500	systole
658.9447000000002	0.092477357131429	49	diastole	10	B	500	systole
659.6768	0.092477357131429	49	diastole	11	B	500	systole
660.4173000000003	0.092477357131429	49	diastole	12	B	500	systole
665.4385	0.0987503667129203	50	systole	1	B	500	diastole
666.1413	0.0987503667129203	50	systole	2	B	500	diastole
666.8713	0.0987503667129203	50	systole	3	B	500	diastole
667.6212000000003	0.0987503667129203	50	systole	4	B	500	diastole
668.3037000000002	0.0987503667129203	50	systole	5	B	500	diastole
669.0036000000002	0.0987503667129203	50	systole	6	B	500	diastole
669.6630000000002	0.0987503667129203	50	systole	7	B	500	diastole
670.4629000000002	0.0987503667129203	50	systole	8	B	500	diastole
671.3428000000001	0.0987503667129203	50	systole	9	B	500	diastole
672.2227	0.0987503667129203	50	systole	10	B	500	diastole
672.9932000000001	0.0987503667129203	50	systole	11	B	500	diastole
673.7636	0.0987503667129203	50	systole	12	B	500	diastole
677.2459000000001	0.0981454250868409	51	diastole	1	B	500	diastole
678.0337000000002	0.0981454250868409	51	diastole	2	B	500	diastole
678.7092	0.0981454250868409	51	diastole	3	B	500	diastole
679.4092000000003	0.0981454250868409	51	diastole	4	B	500	diastole
680.0759	0.0981454250868409	51	diastole	5	B	500	diastole
680.8093000000001	0.0981454250868409	51	diastole	6	B	500	diastole
681.5144000000003	0.0981454250868409	51	diastole	7	B	500	diastole
682.3127000000002	0.0981454250868409	51	diastole	8	B	500	diastole
683.1991	0.0981454250868409	51	diastole	9	B	500	diastole
684.0689	0.0981454250868409	51	diastole	10	B	500	diastole
684.9322	0.0981454250868409	51	diastole	11	B	500	diastole
685.7621999999999	0.0981454250868409	51	diastole	12	B	500	diastole
689.3205	0.1000158937822561	52	systole	1	B	500	systole
690.0505	0.1000158937822561	52	systole	2	B	500	systole
690.713	0.1000158937822561	52	systole	3	B	500	systole
691.3933	0.1000158937822561	52	systole	4	B	500	systole
692.0735999999999	0.1000158937822561	52	systole	5	B	500	systole
692.8303000000003	0.1000158937822561	52	systole	6	B	500	systole
693.6603000000002	0.1000158937822561	52	systole	7	B	500	systole
694.4802999999999	0.1000158937822561	52	systole	8	B	500	systole
695.2918999999999	0.1000158937822561	52	systole	9	B	500	systole
696.1395	0.1000158937822561	52	systole	10	B	500	systole
696.9694999999999	0.1000158937822561	52	systole	11	B	500	systole
697.7812999999999	0.1000158937822561	52	systole	12	B	500	systole
702.8979999999999	0.1012533249158877	53	systole	1	B	500	diastole
703.7477999999999	0.1012533249158877	53	systole	2	B	500	diastole
704.6153999999999	0.1012533249158877	53	systole	3	B	500	diastole
705.3820000000003	0.1012533249158877	53	systole	4	B	500	diastole
706.1719	0.1012533249158877	53	systole	5	B	500	diastole
707.1623000000002	0.1012533249158877	53	systole	6	B	500	diastole
708.1122000000003	0.1012533249158877	53	systole	7	B	500	diastole
708.9150000000002	0.1012533249158877	53	systole	8	B	500	diastole
709.6558000000002	0.1012533249158877	53	systole	9	B	500	diastole
710.4258000000002	0.1012533249158877	53	systole	10	B	500	diastole
711.2474	0.1012533249158877	53	systole	11	B	500	diastole
712.0734	0.1012533249158877	53	systole	12	B	500	diastole
715.1864000000003	0.1018762207822874	54	systole	1	B	500	diastole
715.9606999999999	0.1018762207822874	54	systole	2	B	500	diastole
716.7963000000002	0.1018762207822874	54	systole	3	B	500	diastole
717.7023000000002	0.1018762207822874	54	systole	4	B	500	diastole
718.6023000000002	0.1018762207822874	54	systole	5	B	500	diastole
719.5022999999999	0.1018762207822874	54	systole	6	B	500	diastole
720.2104999999999	0.1018762207822874	54	systole	7	B	500	diastole
720.9304	0.1018762207822874	54	systole	8	B	500	diastole
721.6105	0.1018762207822874	54	systole	9	B	500	diastole
722.3386000000003	0.1018762207822874	54	systole	10	B	500	diastole
723.1070000000002	0.1018762207822874	54	systole	11	B	500	diastole
723.887	0.1018762207822874	54	systole	12	B	500	diastole
726.2169999999999	0.0974975875287782	55	systole	1	B	500	diastole
726.9372000000001	0.0974975875287782	55	systole	2	B	500	diastole
727.6574000000003	0.0974975875287782	55	systole	3	B	500	diastole
728.4372000000001	0.0974975875287782	55	systole	4	B	500	diastole
729.2372000000003	0.0974975875287782	55	systole	5	B	500	diastole
729.9573000000003	0.0974975875287782	55	systole	6	B	500	diastole
730.6874	0.0974975875287782	55	systole	7	B	500	diastole
731.4175000000002	0.0974975875287782	55	systole	8	B	500	diastole
732.1497999999999	0.0974975875287782	55	systole	9	B	500	diastole
732.9143999999999	0.0974975875287782	55	systole	10	B	500	diastole
733.6209000000001	0.0974975875287782	55	systole	11	B	500	diastole
734.3707999999999	0.0974975875287782	55	systole	12	B	500	diastole
735.1324000000002	0.0974975875287782	55	systole	13	B	500	diastole
737.5224000000001	0.0937463513982947	56	systole	1	B	500	diastole
738.3122000000001	0.0937463513982947	56	systole	2	B	500	diastole
739.1021000000003	0.0937463513982947	56	systole	3	B	500	diastole
739.8217000000002	0.0937463513982947	56	systole	4	B	500	diastole
740.5218000000002	0.0937463513982947	56	systole	5	B	500	diastole
741.2218	0.0937463513982947	56	systole	6	B	500	diastole
741.988	0.0937463513982947	56	systole	7	B	500	diastole
742.7097999999999	0.0937463513982947	56	systole	8	B	500	diastole
743.3853000000001	0.0937463513982947	56	systole	9	B	500	diastole
744.0832000000003	0.0937463513982947	56	systole	10	B	500	diastole
744.8632	0.0937463513982947	56	systole	11	B	500	diastole
745.6533999999999	0.0937463513982947	56	systole	12	B	500	diastole
746.4559000000002	0.0937463513982947	56	systole	13	B	500	diastole
749.9586000000002	0.0968673976603895	57	diastole	1	B	500	systole
750.6783000000003	0.0968673976603895	57	diastole	2	B	500	systole
751.4283000000003	0.0968673976603895	57	diastole	3	B	500	systole
752.1786	0.0968673976603895	57	diastole	4	B	500	systole
752.8541000000002	0.0968673976603895	57	diastole	5	B	500	systole
753.6272999999999	0.0968673976603895	57	diastole	6	B	500	systole
754.4172000000001	0.0968673976603895	57	diastole	7	B	500	systole
755.1873000000003	0.0968673976603895	57	diastole	8	B	500	systole
755.9672000000003	0.0968673976603895	57	diastole	9	B	500	systole
756.7737	0.0968673976603895	57	diastole	10	B	500	systole
757.5634000000002	0.0968673976603895	57	diastole	11	B	500	systole
758.3680999999999	0.0968673976603895	57	diastole	12	B	500	systole
761.4588999999999	0.0974951535754371	58	diastole	1	B	500	diastole
762.1560000000002	0.0974951535754371	58	diastole	2	B	500	diastole
762.8860000000002	0.0974951535754371	58	diastole	3	B	500	diastole
763.6942000000001	0.0974951535754371	58	diastole	4	B	500	diastole
764.4192	0.0974951535754371	58	diastole	5	B	500	diastole
765.1692	0.0974951535754371	58	diastole	6	B	500	diastole
765.9197000000001	0.0974951535754371	58	diastole	7	B	500	diastole
766.6494	0.0974951535754371	58	diastole	8	B	500	diastole
767.3694000000003	0.0974951535754371	58	diastole	9	B	500	diastole
768.0894000000001	0.0974951535754371	58	diastole	10	B	500	diastole
768.7893999999999	0.0974951535754371	58	diastole	11	B	500	diastole
769.4727	0.0974951535754371	58	diastole	12	B	500	diastole
770.2403000000002	0.0974951535754371	58	diastole	13	B	500	diastole
773.0192	0.0906122102751396	59	systole	1	B	500	diastole
773.7866000000001	0.0906122102751396	59	systole	2	B	500	diastole
774.5364999999999	0.0906122102751396	59	systole	3	B	500	diastole
775.3279	0.0906122102751396	59	systole	4	B	500	diastole
776.0181	0.0906122102751396	59	systole	5	B	500	diastole
776.7083	0.0906122102751396	59	systole	6	B	500	diastole
777.4424999999999	0.0906122102751396	59	systole	7	B	500	diastole
778.2144000000001	0.0906122102751396	59	systole	8	B	500	diastole
778.9828	0.0906122102751396	59	systole	9	B	500	diastole
779.7068999999999	0.0906122102751396	59	systole	10	B	500	diastole
780.4368000000002	0.0906122102751396	59	systole	11	B	500	diastole
781.2432000000001	0.0906122102751396	59	systole	12	B	500	diastole
781.9574	0.0906122102751396	59	systole	13	B	500	diastole
785.1859999999999	0.0906239327450748	60	diastole	1	B	500	diastole
786.0360000000003	0.0906239327450748	60	diastole	2	B	500	diastole
786.8471000000002	0.0906239327450748	60	diastole	3	B	500	diastole
787.6569000000002	0.0906239327450748	60	diastole	4	B	500	diastole
788.4238000000003	0.0906239327450748	60	diastole	5	B	500	diastole
789.0724000000002	0.0906239327450748	60	diastole	6	B	500	diastole
789.7625	0.0906239327450748	60	diastole	7	B	500	diastole
790.3291999999999	0.0906239327450748	60	diastole	8	B	500	diastole
791.0091	0.0906239327450748	60	diastole	9	B	500	diastole
791.6290999999999	0.0906239327450748	60	diastole	10	B	500	diastole
792.2492	0.0906239327450748	60	diastole	11	B	500	diastole
792.9191000000003	0.0906239327450748	60	diastole	12	B	500	diastole
793.5890000000002	0.0906239327450748	60	diastole	13	B	500	diastole
797.1569000000002	0.0918846179556567	61	systole	1	B	500	diastole
797.9564000000003	0.0918846179556567	61	systole	2	B	500	diastole
798.6863000000001	0.0918846179556567	61	systole	3	B	500	diastole
799.4163000000001	0.0918846179556567	61	systole	4	B	500	diastole
800.1162000000002	0.0918846179556567	61	systole	5	B	500	diastole
800.8260000000002	0.0918846179556567	61	systole	6	B	500	diastole
801.6486000000002	0.0918846179556567	61	systole	7	B	500	diastole
802.4286	0.0918846179556567	61	systole	8	B	500	diastole
803.2546	0.0918846179556567	61	systole	9	B	500	diastole
804.0746000000001	0.0918846179556567	61	systole	10	B	500	diastole
804.8947000000001	0.0918846179556567	61	systole	11	B	500	diastole
805.6704000000002	0.0918846179556567	61	systole	12	B	500	diastole
806.4403	0.0918846179556567	61	systole	13	B	500	diastole
809.5958000000003	0.1012438187317457	62	diastole	1	B	500	systole
810.4759000000001	0.1012438187317457	62	diastole	2	B	500	systole
811.2272	0.1012438187317457	62	diastole	3	B	500	systole
811.9971000000003	0.1012438187317457	62	diastole	4	B	500	systole
812.767	0.1012438187317457	62	diastole	5	B	500	systole
813.6668999999999	0.1012438187317457	62	diastole	6	B	500	systole
814.4386999999999	0.1012438187317457	62	diastole	7	B	500	systole
815.2185999999999	0.1012438187317457	62	diastole	8	B	500	systole
816.1490000000001	0.1012438187317457	62	diastole	9	B	500	systole
816.9406000000001	0.1012438187317457	62	diastole	10	B	500	systole
817.7603999999999	0.1012438187317457	62	diastole	11	B	500	systole
818.5800999999999	0.1012438187317457	62	diastole	12	B	500	systole
821.0672000000002	0.1012372617260553	63	diastole	1	B	500	diastole
821.8871000000001	0.1012372617260553	63	diastole	2	B	500	diastole
822.7070999999999	0.1012372617260553	63	diastole	3	B	500	diastole
823.4939999999999	0.1012372617260553	63	diastole	4	B	500	diastole
824.2643	0.1012372617260553	63	diastole	5	B	500	diastole
824.9939000000002	0.1012372617260553	63	diastole	6	B	500	diastole
825.7273000000002	0.1012372617260553	63	diastole	7	B	500	diastole
826.4774	0.1012372617260553	63	diastole	8	B	500	diastole
827.2274	0.1012372617260553	63	diastole	9	B	500	diastole
827.9296000000002	0.1012372617260553	63	diastole	10	B	500	diastole
828.6627000000001	0.1012372617260553	63	diastole	11	B	500	diastole
829.4125999999999	0.1012372617260553	63	diastole	12	B	500	diastole
830.1929000000002	0.1012372617260553	63	diastole	13	B	500	diastole
833.1643999999999	0.0974122899060603	64	systole	1	B	500	systole
834.0258000000001	0.0974122899060603	64	systole	2	B	500	systole
834.8405	0.0974122899060603	64	systole	3	B	500	systole
835.6504000000002	0.0974122899060603	64	systole	4	B	500	systole
836.5503000000001	0.0974122899060603	64	systole	5	B	500	systole
837.4262000000001	0.0974122899060603	64	systole	6	B	500	systole
838.2964	0.0974122899060603	64	systole	7	B	500	systole
839.0761	0.0974122899060603	64	systole	8	B	500	systole
839.8410000000001	0.0974122899060603	64	systole	9	B	500	systole
840.6559	0.0974122899060603	64	systole	10	B	500	systole
841.4463000000003	0.0974122899060603	64	systole	11	B	500	systole
844.9729	0.1005996361200232	65	diastole	1	B	500	diastole
845.7155	0.1005996361200232	65	diastole	2	B	500	diastole
846.4750999999999	0.1005996361200232	65	diastole	3	B	500	diastole
847.2077000000002	0.1005996361200232	65	diastole	4	B	500	diastole
847.9376	0.1005996361200232	65	diastole	5	B	500	diastole
848.6418000000001	0.1005996361200232	65	diastole	6	B	500	diastole
849.3443	0.1005996361200232	65	diastole	7	B	500	diastole
850.095	0.1005996361200232	65	diastole	8	B	500	diastole
850.8452	0.1005996361200232	65	diastole	9	B	500	diastole
851.5328000000002	0.1005996361200232	65	diastole	10	B	500	diastole
852.3232	0.1005996361200232	65	diastole	11	B	500	diastole
853.0829000000001	0.1005996361200232	65	diastole	12	B	500	diastole
853.8614	0.1005996361200232	65	diastole	13	B	500	diastole
856.6811	0.0956205546390265	66	systole	1	B	500	diastole
857.4930000000002	0.0956205546390265	66	systole	2	B	500	diastole
858.2629	0.0956205546390265	66	systole	3	B	500	diastole
858.9974	0.0956205546390265	66	systole	4	B	500	diastole
859.6756000000003	0.0956205546390265	66	systole	5	B	500	diastole
860.4057	0.0956205546390265	66	systole	6	B	500	diastole
861.1439000000003	0.0956205546390265	66	systole	7	B	500	diastole
861.8939000000003	0.0956205546390265	66	systole	8	B	500	diastole
862.6263000000001	0.0956205546390265	66	systole	9	B	500	diastole
863.3761999999999	0.0956205546390265	66	systole	10	B	500	diastole
864.262	0.0956205546390265	66	systole	11	B	500	diastole
865.0620000000001	0.0956205546390265	66	systole	12	B	500	diastole
865.8421000000001	0.0956205546390265	66	systole	13	B	500	diastole
869.8889000000001	0.0987544753879774	67	systole	1	B	500	diastole
870.6288999999999	0.0987544753879774	67	systole	2	B	500	diastole
871.3390000000002	0.0987544753879774	67	systole	3	B	500	diastole
872.0231000000001	0.0987544753879774	67	systole	4	B	500	diastole
872.7300000000002	0.0987544753879774	67	systole	5	B	500	diastole
873.4602000000002	0.0987544753879774	67	systole	6	B	500	diastole
874.1668999999999	0.0987544753879774	67	systole	7	B	500	diastole
874.8970000000002	0.0987544753879774	67	systole	8	B	500	diastole
875.7673000000002	0.0987544753879774	67	systole	9	B	500	diastole
876.6704000000002	0.0987544753879774	67	systole	10	B	500	diastole
877.5501999999999	0.0987544753879774	67	systole	11	B	500	diastole
878.2943000000002	0.0987544753879774	67	systole	12	B	500	diastole
879.0917000000002	0.0987544753879774	67	systole	13	B	500	diastole
882.3587	0.0968784570577554	68	systole	1	B	500	diastole
883.1906000000001	0.0968784570577554	68	systole	2	B	500	diastole
883.9314000000002	0.0968784570577554	68	systole	3	B	500	diastole
884.7013	0.0968784570577554	68	systole	4	B	500	diastole
885.5013999999999	0.0968784570577554	68	systole	5	B	500	diastole
886.3189	0.0968784570577554	68	systole	6	B	500	diastole
887.0833	0.0968784570577554	68	systole	7	B	500	diastole
887.9006999999999	0.0968784570577554	68	systole	8	B	500	diastole
888.7005999999999	0.0968784570577554	68	systole	9	B	500	diastole
889.4606999999999	0.0968784570577554	68	systole	10	B	500	diastole
890.2032000000002	0.0968784570577554	68	systole	11	B	500	diastole
890.9359000000002	0.0968784570577554	68	systole	12	B	500	diastole
891.6859999999999	0.0968784570577554	68	systole	13	B	500	diastole
895.3102000000001	0.0956364701269194	69	diastole	1	B	500	diastole
896.1103	0.0956364701269194	69	diastole	2	B	500	diastole
896.8338999999999	0.0956364701269194	69	diastole	3	B	500	diastole
897.5740000000003	0.0956364701269194	69	diastole	4	B	500	diastole
898.3687000000002	0.0956364701269194	69	diastole	5	B	500	diastole
899.0988	0.0956364701269194	69	diastole	6	B	500	diastole
899.8039999999999	0.0956364701269194	69	diastole	7	B	500	diastole
900.5342000000003	0.0956364701269194	69	diastole	8	B	500	diastole
901.3204000000003	0.0956364701269194	69	diastole	9	B	500	diastole
902.0539000000001	0.0956364701269194	69	diastole	10	B	500	diastole
902.8039000000001	0.0956364701269194	69	diastole	11	B	500	diastole
903.5840000000001	0.0956364701269194	69	diastole	12	B	500	diastole
904.3840000000002	0.0956364701269194	69	diastole	13	B	500	diastole
907.3273999999999	0.093753873166861	70	diastole	1	B	500	diastole
908.039	0.093753873166861	70	diastole	2	B	500	diastole
908.7590000000002	0.093753873166861	70	diastole	3	B	500	diastole
909.4789000000003	0.093753873166861	70	diastole	4	B	500	diastole
910.3269000000003	0.093753873166861	70	diastole	5	B	500	diastole
911.0404000000001	0.093753873166861	70	diastole	6	B	500	diastole
911.8568000000002	0.093753873166861	70	diastole	7	B	500	diastole
912.6538000000003	0.093753873166861	70	diastole	8	B	500	diastole
913.354	0.093753873166861	70	diastole	9	B	500	diastole
914.0541000000001	0.093753873166861	70	diastole	10	B	500	diastole
914.7192000000002	0.093753873166861	70	diastole	11	B	500	diastole
915.4394	0.093753873166861	70	diastole	12	B	500	diastole
916.1392000000003	0.093753873166861	70	diastole	13	B	500	diastole
918.5940000000003	0.0876082000031601	71	systole	1	B	500	diastole
919.2439999999999	0.0876082000031601	71	systole	2	B	500	diastole
919.9379000000001	0.0876082000031601	71	systole	3	B	500	diastole
920.6379	0.0876082000031601	71	systole	4	B	500	diastole
921.4438000000002	0.0876082000031601	71	systole	5	B	500	diastole
922.2438	0.0876082000031601	71	systole	6	B	500	diastole
923.0139000000001	0.0876082000031601	71	systole	7	B	500	diastole
923.8646000000001	0.0876082000031601	71	systole	8	B	500	diastole
924.7647	0.0876082000031601	71	systole	9	B	500	diastole
925.6429	0.0876082000031601	71	systole	10	B	500	diastole
926.4130000000002	0.0876082000031601	71	systole	11	B	500	diastole
927.2605000000001	0.0876082000031601	71	systole	12	B	500	diastole
928.1519000000001	0.0876082000031601	71	systole	13	B	500	diastole
930.4748000000002	0.0993772437795996	72	systole	1	B	500	systole
931.2630999999999	0.0993772437795996	72	systole	2	B	500	systole
932.0631000000001	0.0993772437795996	72	systole	3	B	500	systole
932.923	0.0993772437795996	72	systole	4	B	500	systole
933.7629	0.0993772437795996	72	systole	5	B	500	systole
934.6682000000003	0.0993772437795996	72	systole	6	B	500	systole
935.5384000000001	0.0993772437795996	72	systole	7	B	500	systole
936.4141000000002	0.0993772437795996	72	systole	8	B	500	systole
937.1458	0.0993772437795996	72	systole	9	B	500	systole
937.999	0.0993772437795996	72	systole	10	B	500	systole
938.8190000000002	0.0993772437795996	72	systole	11	B	500	systole
939.5817	0.0993772437795996	72	systole	12	B	500	systole
944.5806	0.1000104375707451	73	diastole	1	B	500	diastole
945.3306	0.1000104375707451	73	diastole	2	B	500	diastole
946.0867000000001	0.1000104375707451	73	diastole	3	B	500	diastole
946.8368000000003	0.1000104375707451	73	diastole	4	B	500	diastole
947.6168	0.1000104375707451	73	diastole	5	B	500	diastole
948.4768000000001	0.1000104375707451	73	diastole	6	B	500	diastole
949.2569000000001	0.1000104375707451	73	diastole	7	B	500	diastole
950.037	0.1000104375707451	73	diastole	8	B	500	diastole
950.8171	0.1000104375707451	73	diastole	9	B	500	diastole
951.6071	0.1000104375707451	73	diastole	10	B	500	diastole
952.4073000000001	0.1000104375707451	73	diastole	11	B	500	diastole
953.1771999999999	0.1000104375707451	73	diastole	12	B	500	diastole
956.4521000000002	0.0999949372489936	74	diastole	1	B	500	systole
957.2702999999999	0.0999949372489936	74	diastole	2	B	500	systole
958.0988	0.0999949372489936	74	diastole	3	B	500	systole
958.9190000000001	0.0999949372489936	74	diastole	4	B	500	systole
959.6987999999999	0.0999949372489936	74	diastole	5	B	500	systole
960.4786000000001	0.0999949372489936	74	diastole	6	B	500	systole
961.3286	0.0999949372489936	74	diastole	7	B	500	systole
962.1956000000002	0.0999949372489936	74	diastole	8	B	500	systole
962.9485000000002	0.0999949372489936	74	diastole	9	B	500	systole
963.7181000000003	0.0999949372489936	74	diastole	10	B	500	systole
964.5285000000001	0.0999949372489936	74	diastole	11	B	500	systole
965.3655000000001	0.0999949372489936	74	diastole	12	B	500	systole
968.8769	0.1018970920995343	75	systole	1	B	500	diastole
969.6349000000002	0.1018970920995343	75	systole	2	B	500	diastole
970.4048	0.1018970920995343	75	systole	3	B	500	diastole
971.2968000000003	0.1018970920995343	75	systole	4	B	500	diastole
972.0899999999999	0.1018970920995343	75	systole	5	B	500	diastole
972.8895	0.1018970920995343	75	systole	6	B	500	diastole
973.6234999999999	0.1018970920995343	75	systole	7	B	500	diastole
974.3480000000002	0.1018970920995343	75	systole	8	B	500	diastole
975.0508000000002	0.1018970920995343	75	systole	9	B	500	diastole
975.7709000000002	0.1018970920995343	75	systole	10	B	500	diastole
976.6205000000002	0.1018970920995343	75	systole	11	B	500	diastole
977.4334999999999	0.1018970920995343	75	systole	12	B	500	diastole
980.3592000000001	0.0993539223563857	76	systole	1	B	500	diastole
981.1493000000003	0.0993539223563857	76	systole	2	B	500	diastole
982.057	0.0993539223563857	76	systole	3	B	500	diastole
982.8875	0.0993539223563857	76	systole	4	B	500	diastole
983.6573000000001	0.0993539223563857	76	systole	5	B	500	diastole
984.4260000000002	0.0993539223563857	76	systole	6	B	500	diastole
985.2061999999999	0.0993539223563857	76	systole	7	B	500	diastole
985.9228	0.0993539223563857	76	systole	8	B	500	diastole
986.6727000000003	0.0993539223563857	76	systole	9	B	500	diastole
987.3736999999999	0.0993539223563857	76	systole	10	B	500	diastole
988.1320000000003	0.0993539223563857	76	systole	11	B	500	diastole
988.9419	0.0993539223563857	76	systole	12	B	500	diastole
991.7924	0.0956134946900419	77	diastole	1	B	500	diastole
992.5723	0.0956134946900419	77	diastole	2	B	500	diastole
993.3522	0.0956134946900419	77	diastole	3	B	500	diastole
994.0923	0.0956134946900419	77	diastole	4	B	500	diastole
994.9156	0.0956134946900419	77	diastole	5	B	500	diastole
995.6654000000001	0.0956134946900419	77	diastole	6	B	500	diastole
996.3707999999999	0.0956134946900419	77	diastole	7	B	500	diastole
997.1668999999999	0.0956134946900419	77	diastole	8	B	500	diastole
997.9370999999999	0.0956134946900419	77	diastole	9	B	500	diastole
998.7073000000003	0.0956134946900419	77	diastole	10	B	500	diastole
999.5591999999999	0.0956134946900419	77	diastole	11	B	500	diastole
1000.4691	0.0956134946900419	77	diastole	12	B	500	diastole
1002.9260000000002	0.0981238624081015	78	diastole	1	B	500	diastole
1003.7760000000001	0.0981238624081015	78	diastole	2	B	500	diastole
1004.626	0.0981238624081015	78	diastole	3	B	500	diastole
1005.5226	0.0981238624081015	78	diastole	4	B	500	diastole
1006.2724000000001	0.0981238624081015	78	diastole	5	B	500	diastole
1007.0220999999999	0.0981238624081015	78	diastole	6	B	500	diastole
1007.7719	0.0981238624081015	78	diastole	7	B	500	diastole
1008.5217	0.0981238624081015	78	diastole	8	B	500	diastole
1009.3664999999999	0.0981238624081015	78	diastole	9	B	500	diastole
1010.1717000000001	0.0981238624081015	78	diastole	10	B	500	diastole
1011.0016000000003	0.0981238624081015	78	diastole	11	B	500	diastole
1011.941	0.0981238624081015	78	diastole	12	B	500	diastole
1014.8957000000003	0.1031260437739547	79	systole	1	B	500	diastole
1015.7259999999999	0.1031260437739547	79	systole	2	B	500	diastole
1016.5161	0.1031260437739547	79	systole	3	B	500	diastole
1017.3062000000002	0.1031260437739547	79	systole	4	B	500	diastole
1018.0962999999999	0.1031260437739547	79	systole	5	B	500	diastole
1018.8972000000001	0.1031260437739547	79	systole	6	B	500	diastole
1019.6397	0.1031260437739547	79	systole	7	B	500	diastole
1020.4139000000002	0.1031260437739547	79	systole	8	B	500	diastole
1021.2596000000001	0.1031260437739547	79	systole	9	B	500	diastole
1022.0695000000003	0.1031260437739547	79	systole	10	B	500	diastole
1022.8037999999999	0.1031260437739547	79	systole	11	B	500	diastole
1023.6036999999999	0.1031260437739547	79	systole	12	B	500	diastole
1026.6214000000002	0.0981251873890869	80	systole	1	B	500	diastole
1027.4075	0.0981251873890869	80	systole	2	B	500	diastole
1028.1877000000002	0.0981251873890869	80	systole	3	B	500	diastole
1028.9316000000001	0.0981251873890869	80	systole	4	B	500	diastole
1029.6815	0.0981251873890869	80	systole	5	B	500	diastole
1030.5514	0.0981251873890869	80	systole	6	B	500	diastole
1031.4773000000002	0.0981251873890869	80	systole	7	B	500	diastole
1032.2441999999999	0.0981251873890869	80	systole	8	B	500	diastole
1033.0159	0.0981251873890869	80	systole	9	B	500	diastole
1033.8513	0.0981251873890869	80	systole	10	B	500	diastole
1034.6816999999999	0.0981251873890869	80	systole	11	B	500	diastole
1035.4615999999999	0.0981251873890869	80	systole	12	B	500	diastole
1036.2915	0.0981251873890869	80	systole	13	B	500	diastole
1039.8709999999999	0.0992890114721376	81	diastole	1	B	500	diastole
1040.6410000000003	0.0992890114721376	81	diastole	2	B	500	diastole
1041.3455999999999	0.0992890114721376	81	diastole	3	B	500	diastole
1042.079	0.0992890114721376	81	diastole	4	B	500	diastole
1042.8294000000003	0.0992890114721376	81	diastole	5	B	500	diastole
1043.6089	0.0992890114721376	81	diastole	6	B	500	diastole
1044.3992	0.0992890114721376	81	diastole	7	B	500	diastole
1045.1894	0.0992890114721376	81	diastole	8	B	500	diastole
1045.9226	0.0992890114721376	81	diastole	9	B	500	diastole
1046.7025	0.0992890114721376	81	diastole	10	B	500	diastole
1047.459	0.0992890114721376	81	diastole	11	B	500	diastole
1048.1988	0.0992890114721376	81	diastole	12	B	500	diastole
1051.6263999999999	0.0943755687621887	82	systole	1	B	500	diastole
1052.3882	0.0943755687621887	82	systole	2	B	500	diastole
1053.1302000000003	0.0943755687621887	82	systole	3	B	500	diastole
1053.8799999999999	0.0943755687621887	82	systole	4	B	500	diastole
1054.6200000000001	0.0943755687621887	82	systole	5	B	500	diastole
1055.4576	0.0943755687621887	82	systole	6	B	500	diastole
1056.1959	0.0943755687621887	82	systole	7	B	500	diastole
1056.9359000000002	0.0943755687621887	82	systole	8	B	500	diastole
1057.7158000000002	0.0943755687621887	82	systole	9	B	500	diastole
1058.4659	0.0943755687621887	82	systole	10	B	500	diastole
1059.2160999999999	0.0943755687621887	82	systole	11	B	500	diastole
1059.997	0.0943755687621887	82	systole	12	B	500	diastole
1062.7221000000002	0.0974876308464445	83	diastole	1	B	500	diastole
1063.5220000000002	0.0974876308464445	83	diastole	2	B	500	diastole
1064.2903	0.0974876308464445	83	diastole	3	B	500	diastole
1064.9855	0.0974876308464445	83	diastole	4	B	500	diastole
1065.6756000000003	0.0974876308464445	83	diastole	5	B	500	diastole
1066.3658000000003	0.0974876308464445	83	diastole	6	B	500	diastole
1067.0872000000002	0.0974876308464445	83	diastole	7	B	500	diastole
1067.8075000000001	0.0974876308464445	83	diastole	8	B	500	diastole
1068.4658000000002	0.0974876308464445	83	diastole	9	B	500	diastole
1069.178	0.0974876308464445	83	diastole	10	B	500	diastole
1069.8981999999999	0.0974876308464445	83	diastole	11	B	500	diastole
1070.6780999999999	0.0974876308464445	83	diastole	12	B	500	diastole
1071.4282	0.0974876308464445	83	diastole	13	B	500	diastole
1072.1484000000003	0.0974876308464445	83	diastole	14	B	500	diastole
1075.0676	0.090028529317351	84	diastole	1	B	500	diastole
1075.7677	0.090028529317351	84	diastole	2	B	500	diastole
1076.4678000000001	0.090028529317351	84	diastole	3	B	500	diastole
1077.2522999999999	0.090028529317351	84	diastole	4	B	500	diastole
1077.9657	0.090028529317351	84	diastole	5	B	500	diastole
1078.6956000000002	0.090028529317351	84	diastole	6	B	500	diastole
1079.4656000000002	0.090028529317351	84	diastole	7	B	500	diastole
1080.2355	0.090028529317351	84	diastole	8	B	500	diastole
1081.012	0.090028529317351	84	diastole	9	B	500	diastole
1081.7153	0.090028529317351	84	diastole	10	B	500	diastole
1082.4352000000001	0.090028529317351	84	diastole	11	B	500	diastole
1083.142	0.090028529317351	84	diastole	12	B	500	diastole
1083.8632	0.090028529317351	84	diastole	13	B	500	diastole
1086.3163000000002	0.0900079687417019	85	systole	1	B	500	diastole
1087.0346000000002	0.0900079687417019	85	systole	2	B	500	diastole
1087.7663	0.0900079687417019	85	systole	3	B	500	diastole
1088.5146000000002	0.0900079687417019	85	systole	4	B	500	diastole
1089.2629	0.0900079687417019	85	systole	5	B	500	diastole
1089.9330000000002	0.0900079687417019	85	systole	6	B	500	diastole
1090.6031	0.0900079687417019	85	systole	7	B	500	diastole
1091.2731	0.0900079687417019	85	systole	8	B	500	diastole
1091.9431000000002	0.0900079687417019	85	systole	9	B	500	diastole
1092.5454000000002	0.0900079687417019	85	systole	10	B	500	diastole
1093.1654	0.0900079687417019	85	systole	11	B	500	diastole
1093.8262000000002	0.0900079687417019	85	systole	12	B	500	diastole
1094.4838000000002	0.0900079687417019	85	systole	13	B	500	diastole
1095.1823000000002	0.0900079687417019	85	systole	14	B	500	diastole
1099.5940000000003	0.0875013411859981	86	systole	1	B	500	diastole
1100.2736000000002	0.0875013411859981	86	systole	2	B	500	diastole
1100.8930000000003	0.0875013411859981	86	systole	3	B	500	diastole
1101.5134	0.0875013411859981	86	systole	4	B	500	diastole
1102.2104000000002	0.0875013411859981	86	systole	5	B	500	diastole
1102.9184000000002	0.0875013411859981	86	systole	6	B	500	diastole
1103.6263999999999	0.0875013411859981	86	systole	7	B	500	diastole
1104.3565	0.0875013411859981	86	systole	8	B	500	diastole
1105.0865000000001	0.0875013411859981	86	systole	9	B	500	diastole
1105.8165000000001	0.0875013411859981	86	systole	10	B	500	diastole
1106.5266	0.0875013411859981	86	systole	11	B	500	diastole
1107.2112	0.0875013411859981	86	systole	12	B	500	diastole
1107.8817000000001	0.0875013411859981	86	systole	13	B	500	diastole
1108.5617	0.0875013411859981	86	systole	14	B	500	diastole
1110.5290000000002	0.0912501832062844	87	systole	1	B	500	systole
1111.5647999999999	0.0912501832062844	87	systole	2	B	500	systole
1112.5946999999999	0.0912501832062844	87	systole	3	B	500	systole
1113.6272999999999	0.0912501832062844	87	systole	4	B	500	systole
1114.5076000000001	0.0912501832062844	87	systole	5	B	500	systole
1115.3576	0.0912501832062844	87	systole	6	B	500	systole
1116.1575	0.0912501832062844	87	systole	7	B	500	systole
1116.9575000000002	0.0912501832062844	87	systole	8	B	500	systole
1117.9576	0.0912501832062844	87	systole	9	B	500	systole
1118.9576	0.0912501832062844	87	systole	10	B	500	systole
1119.9576	0.0912501832062844	87	systole	11	B	500	systole
1125.6769000000002	0.1099982318119145	88	diastole	1	B	500	systole
1126.6267	0.1099982318119145	88	diastole	2	B	500	systole
1127.5267999999999	0.1099982318119145	88	diastole	3	B	500	systole
1128.3950000000002	0.1099982318119145	88	diastole	4	B	500	systole
1129.3048000000001	0.1099982318119145	88	diastole	5	B	500	systole
1130.1868000000002	0.1099982318119145	88	diastole	6	B	500	systole
1131.0337000000002	0.1099982318119145	88	diastole	7	B	500	systole
1131.9037	0.1099982318119145	88	diastole	8	B	500	systole
1132.7531999999999	0.1099982318119145	88	diastole	9	B	500	systole
1133.6312	0.1099982318119145	88	diastole	10	B	500	systole
1134.6814000000002	0.1099982318119145	88	diastole	11	B	500	systole
1138.3349	0.1074777953908778	89	diastole	1	B	500	diastole
1139.0249000000001	0.1074777953908778	89	diastole	2	B	500	diastole
1139.715	0.1074777953908778	89	diastole	3	B	500	diastole
1140.4352999999999	0.1074777953908778	89	diastole	4	B	500	diastole
1141.1270000000002	0.1074777953908778	89	diastole	5	B	500	diastole
1141.7869000000003	0.1074777953908778	89	diastole	6	B	500	diastole
1142.5088000000003	0.1074777953908778	89	diastole	7	B	500	diastole
1143.1818	0.1074777953908778	89	diastole	8	B	500	diastole
1143.8714000000002	0.1074777953908778	89	diastole	9	B	500	diastole
1144.5429000000001	0.1074777953908778	89	diastole	10	B	500	diastole
1145.2232999999999	0.1074777953908778	89	diastole	11	B	500	diastole
1145.9366000000002	0.1074777953908778	89	diastole	12	B	500	diastole
1146.6071	0.1074777953908778	89	diastole	13	B	500	diastole
1149.5589000000002	0.0856207646720577	90	diastole	1	B	500	diastole
1150.4758	0.0856207646720577	90	diastole	2	B	500	diastole
1151.2969	0.0856207646720577	90	diastole	3	B	500	diastole
1152.0767000000003	0.0856207646720577	90	diastole	4	B	500	diastole
1152.8886	0.0856207646720577	90	diastole	5	B	500	diastole
1153.6587000000002	0.0856207646720577	90	diastole	6	B	500	diastole
1154.5222999999999	0.0856207646720577	90	diastole	7	B	500	diastole
1155.4151	0.0856207646720577	90	diastole	8	B	500	diastole
1156.2751	0.0856207646720577	90	diastole	9	B	500	diastole
1157.1870000000001	0.0856207646720577	90	diastole	10	B	500	diastole
1157.9669999999999	0.0856207646720577	90	diastole	11	B	500	diastole
1161.0436000000002	0.1043839252961333	91	diastole	1	B	500	systole
1162.0035	0.1043839252961333	91	diastole	2	B	500	systole
1162.7837000000002	0.1043839252961333	91	diastole	3	B	500	systole
1163.5638999999999	0.1043839252961333	91	diastole	4	B	500	systole
1164.2573	0.1043839252961333	91	diastole	5	B	500	systole
1164.9573000000003	0.1043839252961333	91	diastole	6	B	500	systole
1165.669	0.1043839252961333	91	diastole	7	B	500	systole
1166.3891	0.1043839252961333	91	diastole	8	B	500	systole
1167.4591000000003	0.1043839252961333	91	diastole	9	B	500	systole
1168.5291	0.1043839252961333	91	diastole	10	B	500	systole
1169.5991000000001	0.1043839252961333	91	diastole	11	B	500	systole
1172.3409	0.1000067997083533	92	diastole	1	B	500	diastole
1173.0704000000003	0.1000067997083533	92	diastole	2	B	500	diastole
1173.7999000000002	0.1000067997083533	92	diastole	3	B	500	diastole
1174.5294999999999	0.1000067997083533	92	diastole	4	B	500	diastole
1175.2590000000002	0.1000067997083533	92	diastole	5	B	500	diastole
1175.9885000000002	0.1000067997083533	92	diastole	6	B	500	diastole
1176.718	0.1000067997083533	92	diastole	7	B	500	diastole
1177.4878999999999	0.1000067997083533	92	diastole	8	B	500	diastole
1178.3378	0.1000067997083533	92	diastole	9	B	500	diastole
1179.0728000000001	0.1000067997083533	92	diastole	10	B	500	diastole
1179.8328	0.1000067997083533	92	diastole	11	B	500	diastole
1180.5395	0.1000067997083533	92	diastole	12	B	500	diastole
1181.3731	0.1000067997083533	92	diastole	13	B	500	diastole
1184.1900000000003	0.100114675151417	93	diastole	1	B	500	systole
1185.0499000000002	0.100114675151417	93	diastole	2	B	500	systole
1185.9798000000003	0.100114675151417	93	diastole	3	B	500	systole
1186.7617000000002	0.100114675151417	93	diastole	4	B	500	systole
1187.5518	0.100114675151417	93	diastole	5	B	500	systole
1188.4187	0.100114675151417	93	diastole	6	B	500	systole
1189.2707000000003	0.100114675151417	93	diastole	7	B	500	systole
1190.1226	0.100114675151417	93	diastole	8	B	500	systole
1190.8840000000002	0.100114675151417	93	diastole	9	B	500	systole
1191.7008000000003	0.100114675151417	93	diastole	10	B	500	systole
1192.5108000000002	0.100114675151417	93	diastole	11	B	500	systole
1193.2142000000001	0.100114675151417	93	diastole	12	B	500	systole
1196.3880000000001	0.0943888447072822	94	systole	1	B	500	diastole
1197.2280000000003	0.0943888447072822	94	systole	2	B	500	diastole
1197.9898	0.0943888447072822	94	systole	3	B	500	diastole
1198.7517	0.0943888447072822	94	systole	4	B	500	diastole
1199.4642999999999	0.0943888447072822	94	systole	5	B	500	diastole
1200.2142999999999	0.0943888447072822	94	systole	6	B	500	diastole
1200.9642999999999	0.0943888447072822	94	systole	7	B	500	diastole
1201.7262000000003	0.0943888447072822	94	systole	8	B	500	diastole
1202.5216000000003	0.0943888447072822	94	systole	9	B	500	diastole
1203.3101	0.0943888447072822	94	systole	10	B	500	diastole
1204.1489	0.0943888447072822	94	systole	11	B	500	diastole
1204.9809000000002	0.0943888447072822	94	systole	12	B	500	diastole
1205.8129000000001	0.0943888447072822	94	systole	13	B	500	diastole
1209.401	0.0992855625518132	95	diastole	1	B	500	diastole
1210.1394000000003	0.0992855625518132	95	diastole	2	B	500	diastole
1210.9192	0.0992855625518132	95	diastole	3	B	500	diastole
1211.6221000000003	0.0992855625518132	95	diastole	4	B	500	diastole
1212.3320999999999	0.0992855625518132	95	diastole	5	B	500	diastole
1213.0586	0.0992855625518132	95	diastole	6	B	500	diastole
1213.8787	0.0992855625518132	95	diastole	7	B	500	diastole
1214.6988	0.0992855625518132	95	diastole	8	B	500	diastole
1215.5003	0.0992855625518132	95	diastole	9	B	500	diastole
1216.2775	0.0992855625518132	95	diastole	10	B	500	diastole
1217.124	0.0992855625518132	95	diastole	11	B	500	diastole
1217.9238000000003	0.0992855625518132	95	diastole	12	B	500	diastole
1221.4033000000002	0.1019643523613922	96	diastole	1	B	500	systole
1222.1043000000002	0.1019643523613922	96	diastole	2	B	500	systole
1222.8244000000002	0.1019643523613922	96	diastole	3	B	500	systole
1223.6055	0.1019643523613922	96	diastole	4	B	500	systole
1224.2887000000003	0.1019643523613922	96	diastole	5	B	500	systole
1225.0305	0.1019643523613922	96	diastole	6	B	500	systole
1225.9303000000002	0.1019643523613922	96	diastole	7	B	500	systole
1226.9303000000002	0.1019643523613922	96	diastole	8	B	500	systole
1227.8302	0.1019643523613922	96	diastole	9	B	500	systole
1228.7302000000002	0.1019643523613922	96	diastole	10	B	500	systole
1229.6636	0.1019643523613922	96	diastole	11	B	500	systole
1233.3772000000001	0.106875015393598	97	systole	1	B	500	systole
1234.2016	0.106875015393598	97	systole	2	B	500	systole
1235.0318	0.106875015393598	97	systole	3	B	500	systole
1235.9071999999999	0.106875015393598	97	systole	4	B	500	systole
1236.7314	0.106875015393598	97	systole	5	B	500	systole
1237.5613	0.106875015393598	97	systole	6	B	500	systole
1238.3913	0.106875015393598	97	systole	7	B	500	systole
1239.1354	0.106875015393598	97	systole	8	B	500	systole
1239.8619	0.106875015393598	97	systole	9	B	500	systole
1240.5387000000003	0.106875015393598	97	systole	10	B	500	systole
1241.3370000000002	0.106875015393598	97	systole	11	B	500	systole
1242.3374999999999	0.106875015393598	97	systole	12	B	500	systole
1245.9403	0.0992572561372071	98	diastole	1	B	500	systole
1246.6707	0.0992572561372071	98	diastole	2	B	500	systole
1247.4011000000003	0.0992572561372071	98	diastole	3	B	500	systole
1248.1825999999999	0.0992572561372071	98	diastole	4	B	500	systole
1249.0641000000003	0.0992572561372071	98	diastole	5	B	500	systole
1249.8255000000001	0.0992572561372071	98	diastole	6	B	500	systole
1250.6254000000001	0.0992572561372071	98	diastole	7	B	500	systole
1251.4639	0.0992572561372071	98	diastole	8	B	500	systole
1252.264	0.0992572561372071	98	diastole	9	B	500	systole
1253.0641000000003	0.0992572561372071	98	diastole	10	B	500	systole
1253.7878000000003	0.0992572561372071	98	diastole	11	B	500	systole
1254.5276999999999	0.0992572561372071	98	diastole	12	B	500	systole
1258.0106000000003	0.0999956486048176	99	diastole	1	B	500	diastole
1258.8591	0.0999956486048176	99	diastole	2	B	500	diastole
1259.6007000000002	0.0999956486048176	99	diastole	3	B	500	diastole
1260.3507000000002	0.0999956486048176	99	diastole	4	B	500	diastole
1261.1222	0.0999956486048176	99	diastole	5	B	500	diastole
1261.8907000000002	0.0999956486048176	99	diastole	6	B	500	diastole
1262.6354	0.0999956486048176	99	diastole	7	B	500	diastole
1263.3969	0.0999956486048176	99	diastole	8	B	500	diastole
1264.1115000000002	0.0999956486048176	99	diastole	9	B	500	diastole
1264.8497	0.0999956486048176	99	diastole	10	B	500	diastole
1265.5879000000002	0.0999956486048176	99	diastole	11	B	500	diastole
1266.349	0.0999956486048176	99	diastole	12	B	500	diastole
1269.2802	0.0961347575648687	100	systole	1	B	500	diastole
1270.0000000000002	0.0961347575648687	100	systole	2	B	500	diastole
1270.7198	0.0961347575648687	100	systole	3	B	500	diastole
1271.4289999999999	0.0961347575648687	100	systole	4	B	500	diastole
1272.1392000000003	0.0961347575648687	100	systole	5	B	500	diastole
1272.8493	0.0961347575648687	100	systole	6	B	500	diastole
1273.5724000000002	0.0961347575648687	100	systole	7	B	500	diastole
1274.3005	0.0961347575648687	100	systole	8	B	500	diastole
1275.0805000000003	0.0961347575648687	100	systole	9	B	500	diastole
1275.8621	0.0961347575648687	100	systole	10	B	500	diastole
1276.5807000000002	0.0961347575648687	100	systole	11	B	500	diastole
1277.3308	0.0961347575648687	100	systole	12	B	500	diastole
1278.1181	0.0961347575648687	100	systole	13	B	500	diastole
