onset	duration	trial_num	trial_type	tone_num	tone_type	frequency	response
240.1961	0.0737480553798377	1	systole	1	A	1578.5670027440333	coherent
240.3425	0.0737480553798377	1	systole	2	B	500.0	coherent
240.4886	0.0737480553798377	1	systole	3	A	1578.5670027440333	coherent
240.7961	0.0737480553798377	1	systole	4	A	1578.5670027440333	coherent
240.9426	0.0737480553798377	1	systole	5	B	500.0	coherent
241.0887	0.0737480553798377	1	systole	6	A	1578.5670027440333	coherent
241.3616	0.0737480553798377	1	systole	7	A	1578.5670027440333	coherent
241.5068	0.0737480553798377	1	systole	8	B	500.0	coherent
241.6516	0.0737480553798377	1	systole	9	A	1578.5670027440333	coherent
241.9124	0.0737480553798377	1	systole	10	A	1578.5670027440333	coherent
242.0551	0.0737480553798377	1	systole	11	B	500.0	coherent
242.1974	0.0737480553798377	1	systole	12	A	1578.5670027440333	coherent
242.4724	0.0737480553798377	1	systole	13	A	1578.5670027440333	coherent
242.615	0.0737480553798377	1	systole	14	B	500.0	coherent
242.7574	0.0737480553798377	1	systole	15	A	1578.5670027440333	coherent
243.0324	0.0737480553798377	1	systole	16	A	1578.5670027440333	coherent
243.1751	0.0737480553798377	1	systole	17	B	500.0	coherent
243.3174	0.0737480553798377	1	systole	18	A	1578.5670027440333	coherent
243.5924	0.0737480553798377	1	systole	19	A	1578.5670027440333	coherent
243.7351	0.0737480553798377	1	systole	20	B	500.0	coherent
243.8774	0.0737480553798377	1	systole	21	A	1578.5670027440333	coherent
244.1525	0.0737480553798377	1	systole	22	A	1578.5670027440333	coherent
244.2951	0.0737480553798377	1	systole	23	B	500.0	coherent
244.4375	0.0737480553798377	1	systole	24	A	1578.5670027440333	coherent
244.7125	0.0737480553798377	1	systole	25	A	1578.5670027440333	coherent
244.8551	0.0737480553798377	1	systole	26	B	500.0	coherent
244.9975	0.0737480553798377	1	systole	27	A	1578.5670027440333	coherent
245.2625	0.0737480553798377	1	systole	28	A	1578.5670027440333	coherent
245.4051	0.0737480553798377	1	systole	29	B	500.0	coherent
245.5475	0.0737480553798377	1	systole	30	A	1578.5670027440333	coherent
245.8079	0.0737480553798377	1	systole	31	A	1578.5670027440333	coherent
245.9493	0.0737480553798377	1	systole	32	B	500.0	coherent
246.0904	0.0737480553798377	1	systole	33	A	1578.5670027440333	coherent
246.3579	0.0737480553798377	1	systole	34	A	1578.5670027440333	coherent
246.4993	0.0737480553798377	1	systole	35	B	500.0	coherent
246.6404	0.0737480553798377	1	systole	36	A	1578.5670027440333	coherent
246.9033	0.0737480553798377	1	systole	37	A	1578.5670027440333	coherent
247.0434	0.0737480553798377	1	systole	38	B	500.0	coherent
247.1832	0.0737480553798377	1	systole	39	A	1578.5670027440333	coherent
247.4632	0.0737480553798377	1	systole	40	A	1578.5670027440333	coherent
247.6034	0.0737480553798377	1	systole	41	B	500.0	coherent
247.7432	0.0737480553798377	1	systole	42	A	1578.5670027440333	coherent
248.0087	0.0737480553798377	1	systole	43	A	1578.5670027440333	coherent
248.1476	0.0737480553798377	1	systole	44	B	500.0	coherent
248.2862	0.0737480553798377	1	systole	45	A	1578.5670027440333	coherent
248.5542	0.0737480553798377	1	systole	46	A	1578.5670027440333	coherent
248.6919	0.0737480553798377	1	systole	47	B	500.0	coherent
248.8292	0.0737480553798377	1	systole	48	A	1578.5670027440333	coherent
249.0942	0.0737480553798377	1	systole	49	A	1578.5670027440333	coherent
249.2319	0.0737480553798377	1	systole	50	B	500.0	coherent
249.3692	0.0737480553798377	1	systole	51	A	1578.5670027440333	coherent
257.5759	0.0662525749648921	2	systole	1	A	2180.0224995339627	coherent
257.7084	0.0662525749648921	2	systole	2	B	500.0	coherent
257.8409	0.0662525749648921	2	systole	3	A	2180.0224995339627	coherent
258.1204	0.0662525749648921	2	systole	4	A	2180.0224995339627	coherent
258.2542	0.0662525749648921	2	systole	5	B	500.0	coherent
258.3879	0.0662525749648921	2	systole	6	A	2180.0224995339627	coherent
258.6649	0.0662525749648921	2	systole	7	A	2180.0224995339627	coherent
258.7999	0.0662525749648921	2	systole	8	B	500.0	coherent
258.9348	0.0662525749648921	2	systole	9	A	2180.0224995339627	coherent
259.2049	0.0662525749648921	2	systole	10	A	2180.0224995339627	coherent
259.3399	0.0662525749648921	2	systole	11	B	500.0	coherent
259.4749	0.0662525749648921	2	systole	12	A	2180.0224995339627	coherent
259.7449	0.0662525749648921	2	systole	13	A	2180.0224995339627	coherent
259.8799	0.0662525749648921	2	systole	14	B	500.0	coherent
260.0149	0.0662525749648921	2	systole	15	A	2180.0224995339627	coherent
260.2649	0.0662525749648921	2	systole	16	A	2180.0224995339627	coherent
260.3999	0.0662525749648921	2	systole	17	B	500.0	coherent
260.5349	0.0662525749648921	2	systole	18	A	2180.0224995339627	coherent
260.7949	0.0662525749648921	2	systole	19	A	2180.0224995339627	coherent
260.9299	0.0662525749648921	2	systole	20	B	500.0	coherent
261.0649	0.0662525749648921	2	systole	21	A	2180.0224995339627	coherent
261.3149	0.0662525749648921	2	systole	22	A	2180.0224995339627	coherent
261.4499	0.0662525749648921	2	systole	23	B	500.0	coherent
261.5848	0.0662525749648921	2	systole	24	A	2180.0224995339627	coherent
261.8449	0.0662525749648921	2	systole	25	A	2180.0224995339627	coherent
261.9799	0.0662525749648921	2	systole	26	B	500.0	coherent
262.1149	0.0662525749648921	2	systole	27	A	2180.0224995339627	coherent
262.3703	0.0662525749648921	2	systole	28	A	2180.0224995339627	coherent
262.5041	0.0662525749648921	2	systole	29	B	500.0	coherent
262.6378	0.0662525749648921	2	systole	30	A	2180.0224995339627	coherent
262.8858	0.0662525749648921	2	systole	31	A	2180.0224995339627	coherent
263.0183	0.0662525749648921	2	systole	32	B	500.0	coherent
263.1508	0.0662525749648921	2	systole	33	A	2180.0224995339627	coherent
263.4158	0.0662525749648921	2	systole	34	A	2180.0224995339627	coherent
263.5483	0.0662525749648921	2	systole	35	B	500.0	coherent
263.6808	0.0662525749648921	2	systole	36	A	2180.0224995339627	coherent
263.9458	0.0662525749648921	2	systole	37	A	2180.0224995339627	coherent
264.0783	0.0662525749648921	2	systole	38	B	500.0	coherent
264.2108	0.0662525749648921	2	systole	39	A	2180.0224995339627	coherent
264.4611	0.0662525749648921	2	systole	40	A	2180.0224995339627	coherent
264.5923	0.0662525749648921	2	systole	41	B	500.0	coherent
264.7235	0.0662525749648921	2	systole	42	A	2180.0224995339627	coherent
264.981	0.0662525749648921	2	systole	43	A	2180.0224995339627	coherent
265.1123	0.0662525749648921	2	systole	44	B	500.0	coherent
265.2435	0.0662525749648921	2	systole	45	A	2180.0224995339627	coherent
265.5009	0.0662525749648921	2	systole	46	A	2180.0224995339627	coherent
265.6322	0.0662525749648921	2	systole	47	B	500.0	coherent
265.7634	0.0662525749648921	2	systole	48	A	2180.0224995339627	coherent
266.021	0.0662525749648921	2	systole	49	A	2180.0224995339627	coherent
266.1522	0.0662525749648921	2	systole	50	B	500.0	coherent
266.2835	0.0662525749648921	2	systole	51	A	2180.0224995339627	coherent
266.5266	0.0662525749648921	2	systole	52	A	2180.0224995339627	coherent
266.6566	0.0662525749648921	2	systole	53	B	500.0	coherent
266.7866	0.0662525749648921	2	systole	54	A	2180.0224995339627	coherent
273.9305	0.0662340011331252	3	systole	1	A	1987.9452401467304	streaming
274.0641	0.0662340011331252	3	systole	2	B	500.0	streaming
274.198	0.0662340011331252	3	systole	3	A	1987.9452401467304	streaming
274.475	0.0662340011331252	3	systole	4	A	1987.9452401467304	streaming
274.6099	0.0662340011331252	3	systole	5	B	500.0	streaming
274.745	0.0662340011331252	3	systole	6	A	1987.9452401467304	streaming
275.015	0.0662340011331252	3	systole	7	A	1987.9452401467304	streaming
275.1499	0.0662340011331252	3	systole	8	B	500.0	streaming
275.285	0.0662340011331252	3	systole	9	A	1987.9452401467304	streaming
275.5551	0.0662340011331252	3	systole	10	A	1987.9452401467304	streaming
275.69	0.0662340011331252	3	systole	11	B	500.0	streaming
275.825	0.0662340011331252	3	systole	12	A	1987.9452401467304	streaming
276.0948	0.0662340011331252	3	systole	13	A	1987.9452401467304	streaming
276.2297	0.0662340011331252	3	systole	14	B	500.0	streaming
276.3648	0.0662340011331252	3	systole	15	A	1987.9452401467304	streaming
276.6248	0.0662340011331252	3	systole	16	A	1987.9452401467304	streaming
276.7597	0.0662340011331252	3	systole	17	B	500.0	streaming
276.8947	0.0662340011331252	3	systole	18	A	1987.9452401467304	streaming
277.1547	0.0662340011331252	3	systole	19	A	1987.9452401467304	streaming
277.2896	0.0662340011331252	3	systole	20	B	500.0	streaming
277.4247	0.0662340011331252	3	systole	21	A	1987.9452401467304	streaming
277.6943	0.0662340011331252	3	systole	22	A	1987.9452401467304	streaming
277.8292	0.0662340011331252	3	systole	23	B	500.0	streaming
277.9643	0.0662340011331252	3	systole	24	A	1987.9452401467304	streaming
278.2443	0.0662340011331252	3	systole	25	A	1987.9452401467304	streaming
278.3793	0.0662340011331252	3	systole	26	B	500.0	streaming
278.5143	0.0662340011331252	3	systole	27	A	1987.9452401467304	streaming
278.7944	0.0662340011331252	3	systole	28	A	1987.9452401467304	streaming
278.9293	0.0662340011331252	3	systole	29	B	500.0	streaming
279.0644	0.0662340011331252	3	systole	30	A	1987.9452401467304	streaming
279.344	0.0662340011331252	3	systole	31	A	1987.9452401467304	streaming
279.4789	0.0662340011331252	3	systole	32	B	500.0	streaming
279.614	0.0662340011331252	3	systole	33	A	1987.9452401467304	streaming
279.906	0.0662340011331252	3	systole	34	A	1987.9452401467304	streaming
280.0409	0.0662340011331252	3	systole	35	B	500.0	streaming
280.176	0.0662340011331252	3	systole	36	A	1987.9452401467304	streaming
280.468	0.0662340011331252	3	systole	37	A	1987.9452401467304	streaming
280.6029	0.0662340011331252	3	systole	38	B	500.0	streaming
280.738	0.0662340011331252	3	systole	39	A	1987.9452401467304	streaming
281.0428	0.0662340011331252	3	systole	40	A	1987.9452401467304	streaming
281.1789	0.0662340011331252	3	systole	41	B	500.0	streaming
281.3153	0.0662340011331252	3	systole	42	A	1987.9452401467304	streaming
281.6211	0.0662340011331252	3	systole	43	A	1987.9452401467304	streaming
281.7595	0.0662340011331252	3	systole	44	B	500.0	streaming
281.8981	0.0662340011331252	3	systole	45	A	1987.9452401467304	streaming
282.1965	0.0662340011331252	3	systole	46	A	1987.9452401467304	streaming
282.3364	0.0662340011331252	3	systole	47	B	500.0	streaming
282.4765	0.0662340011331252	3	systole	48	A	1987.9452401467304	streaming
282.802	0.0662340011331252	3	systole	49	A	1987.9452401467304	streaming
282.9434	0.0662340011331252	3	systole	50	B	500.0	streaming
283.085	0.0662340011331252	3	systole	51	A	1987.9452401467304	streaming
283.3957	0.0662340011331252	3	systole	52	A	1987.9452401467304	streaming
283.5381	0.0662340011331252	3	systole	53	B	500.0	streaming
283.6807	0.0662340011331252	3	systole	54	A	1987.9452401467304	streaming
286.3966	0.0718892313307151	4	systole	1	A	1143.0495706741503	streaming
286.5427	0.0718892313307151	4	systole	2	B	500.0	streaming
286.6891	0.0718892313307151	4	systole	3	A	1143.0495706741503	streaming
286.9911	0.0718892313307151	4	systole	4	A	1143.0495706741503	streaming
287.1384	0.0718892313307151	4	systole	5	B	500.0	streaming
287.2861	0.0718892313307151	4	systole	6	A	1143.0495706741503	streaming
287.5811	0.0718892313307151	4	systole	7	A	1143.0495706741503	streaming
287.7285	0.0718892313307151	4	systole	8	B	500.0	streaming
287.8761	0.0718892313307151	4	systole	9	A	1143.0495706741503	streaming
288.1711	0.0718892313307151	4	systole	10	A	1143.0495706741503	streaming
288.3185	0.0718892313307151	4	systole	11	B	500.0	streaming
288.4661	0.0718892313307151	4	systole	12	A	1143.0495706741503	streaming
288.7511	0.0718892313307151	4	systole	13	A	1143.0495706741503	streaming
288.8984	0.0718892313307151	4	systole	14	B	500.0	streaming
289.0461	0.0718892313307151	4	systole	15	A	1143.0495706741503	streaming
289.341	0.0718892313307151	4	systole	16	A	1143.0495706741503	streaming
289.4884	0.0718892313307151	4	systole	17	B	500.0	streaming
289.636	0.0718892313307151	4	systole	18	A	1143.0495706741503	streaming
289.9211	0.0718892313307151	4	systole	19	A	1143.0495706741503	streaming
290.0684	0.0718892313307151	4	systole	20	B	500.0	streaming
290.2161	0.0718892313307151	4	systole	21	A	1143.0495706741503	streaming
290.5012	0.0718892313307151	4	systole	22	A	1143.0495706741503	streaming
290.6485	0.0718892313307151	4	systole	23	B	500.0	streaming
290.7961	0.0718892313307151	4	systole	24	A	1143.0495706741503	streaming
291.1128	0.0718892313307151	4	systole	25	A	1143.0495706741503	streaming
291.2602	0.0718892313307151	4	systole	26	B	500.0	streaming
291.4079	0.0718892313307151	4	systole	27	A	1143.0495706741503	streaming
291.7628	0.0718892313307151	4	systole	28	A	1143.0495706741503	streaming
291.9102	0.0718892313307151	4	systole	29	B	500.0	streaming
292.0579	0.0718892313307151	4	systole	30	A	1143.0495706741503	streaming
292.4129	0.0718892313307151	4	systole	31	A	1143.0495706741503	streaming
292.5602	0.0718892313307151	4	systole	32	B	500.0	streaming
292.7078	0.0718892313307151	4	systole	33	A	1143.0495706741503	streaming
293.0528	0.0718892313307151	4	systole	34	A	1143.0495706741503	streaming
293.2002	0.0718892313307151	4	systole	35	B	500.0	streaming
293.3478	0.0718892313307151	4	systole	36	A	1143.0495706741503	streaming
293.6828	0.0718892313307151	4	systole	37	A	1143.0495706741503	streaming
293.8302	0.0718892313307151	4	systole	38	B	500.0	streaming
293.9778	0.0718892313307151	4	systole	39	A	1143.0495706741503	streaming
294.3428	0.0718892313307151	4	systole	40	A	1143.0495706741503	streaming
294.4928	0.0718892313307151	4	systole	41	B	500.0	streaming
294.6432	0.0718892313307151	4	systole	42	A	1143.0495706741503	streaming
295.0211	0.0718892313307151	4	systole	43	A	1143.0495706741503	streaming
295.1762	0.0718892313307151	4	systole	44	B	500.0	streaming
295.3315	0.0718892313307151	4	systole	45	A	1143.0495706741503	streaming
295.6388	0.0718892313307151	4	systole	46	A	1143.0495706741503	streaming
295.7959	0.0718892313307151	4	systole	47	B	500.0	streaming
295.9534	0.0718892313307151	4	systole	48	A	1143.0495706741503	streaming
296.2488	0.0718892313307151	4	systole	49	A	1143.0495706741503	streaming
296.406	0.0718892313307151	4	systole	50	B	500.0	streaming
296.5634	0.0718892313307151	4	systole	51	A	1143.0495706741503	streaming
299.3242	0.0768791402806527	5	systole	1	A	866.753070272264	streaming
299.4774	0.0768791402806527	5	systole	2	B	500.0	streaming
299.6317	0.0768791402806527	5	systole	3	A	866.753070272264	streaming
299.9642	0.0768791402806527	5	systole	4	A	866.753070272264	streaming
300.1174	0.0768791402806527	5	systole	5	B	500.0	streaming
300.2717	0.0768791402806527	5	systole	6	A	866.753070272264	streaming
300.5841	0.0768791402806527	5	systole	7	A	866.753070272264	streaming
300.7373	0.0768791402806527	5	systole	8	B	500.0	streaming
300.8916	0.0768791402806527	5	systole	9	A	866.753070272264	streaming
301.1797	0.0768791402806527	5	systole	10	A	866.753070272264	streaming
301.3316	0.0768791402806527	5	systole	11	B	500.0	streaming
301.4847	0.0768791402806527	5	systole	12	A	866.753070272264	streaming
301.7795	0.0768791402806527	5	systole	13	A	866.753070272264	streaming
301.9314	0.0768791402806527	5	systole	14	B	500.0	streaming
302.0845	0.0768791402806527	5	systole	15	A	866.753070272264	streaming
302.3795	0.0768791402806527	5	systole	16	A	866.753070272264	streaming
302.5314	0.0768791402806527	5	systole	17	B	500.0	streaming
302.6844	0.0768791402806527	5	systole	18	A	866.753070272264	streaming
302.9795	0.0768791402806527	5	systole	19	A	866.753070272264	streaming
303.1314	0.0768791402806527	5	systole	20	B	500.0	streaming
303.2844	0.0768791402806527	5	systole	21	A	866.753070272264	streaming
303.614	0.0768791402806527	5	systole	22	A	866.753070272264	streaming
303.7672	0.0768791402806527	5	systole	23	B	500.0	streaming
303.9215	0.0768791402806527	5	systole	24	A	866.753070272264	streaming
304.2385	0.0768791402806527	5	systole	25	A	866.753070272264	streaming
304.393	0.0768791402806527	5	systole	26	B	500.0	streaming
304.5485	0.0768791402806527	5	systole	27	A	866.753070272264	streaming
304.8906	0.0768791402806527	5	systole	28	A	866.753070272264	streaming
305.045	0.0768791402806527	5	systole	29	B	500.0	streaming
305.2006	0.0768791402806527	5	systole	30	A	866.753070272264	streaming
305.5426	0.0768791402806527	5	systole	31	A	866.753070272264	streaming
305.6971	0.0768791402806527	5	systole	32	B	500.0	streaming
305.8526	0.0768791402806527	5	systole	33	A	866.753070272264	streaming
306.1947	0.0768791402806527	5	systole	34	A	866.753070272264	streaming
306.3491	0.0768791402806527	5	systole	35	B	500.0	streaming
306.5047	0.0768791402806527	5	systole	36	A	866.753070272264	streaming
306.8447	0.0768791402806527	5	systole	37	A	866.753070272264	streaming
306.9992	0.0768791402806527	5	systole	38	B	500.0	streaming
307.1548	0.0768791402806527	5	systole	39	A	866.753070272264	streaming
307.4948	0.0768791402806527	5	systole	40	A	866.753070272264	streaming
307.6492	0.0768791402806527	5	systole	41	B	500.0	streaming
307.8048	0.0768791402806527	5	systole	42	A	866.753070272264	streaming
308.1448	0.0768791402806527	5	systole	43	A	866.753070272264	streaming
308.2992	0.0768791402806527	5	systole	44	B	500.0	streaming
308.4548	0.0768791402806527	5	systole	45	A	866.753070272264	streaming
311.187	0.0787720374937634	6	systole	1	A	3010.640720484466	coherent
311.3445	0.0787720374937634	6	systole	2	B	500.0	coherent
311.5019	0.0787720374937634	6	systole	3	A	3010.640720484466	coherent
311.8166	0.0787720374937634	6	systole	4	A	3010.640720484466	coherent
311.9741	0.0787720374937634	6	systole	5	B	500.0	coherent
312.1315	0.0787720374937634	6	systole	6	A	3010.640720484466	coherent
312.457	0.0787720374937634	6	systole	7	A	3010.640720484466	coherent
312.6145	0.0787720374937634	6	systole	8	B	500.0	coherent
312.7719	0.0787720374937634	6	systole	9	A	3010.640720484466	coherent
313.0769	0.0787720374937634	6	systole	10	A	3010.640720484466	coherent
313.2343	0.0787720374937634	6	systole	11	B	500.0	coherent
313.3917	0.0787720374937634	6	systole	12	A	3010.640720484466	coherent
313.7065	0.0787720374937634	6	systole	13	A	3010.640720484466	coherent
313.8639	0.0787720374937634	6	systole	14	B	500.0	coherent
314.0213	0.0787720374937634	6	systole	15	A	3010.640720484466	coherent
314.3465	0.0787720374937634	6	systole	16	A	3010.640720484466	coherent
314.5039	0.0787720374937634	6	systole	17	B	500.0	coherent
314.6613	0.0787720374937634	6	systole	18	A	3010.640720484466	coherent
314.9864	0.0787720374937634	6	systole	19	A	3010.640720484466	coherent
315.1439	0.0787720374937634	6	systole	20	B	500.0	coherent
315.3013	0.0787720374937634	6	systole	21	A	3010.640720484466	coherent
315.6264	0.0787720374937634	6	systole	22	A	3010.640720484466	coherent
315.7839	0.0787720374937634	6	systole	23	B	500.0	coherent
315.9412	0.0787720374937634	6	systole	24	A	3010.640720484466	coherent
316.2561	0.0787720374937634	6	systole	25	A	3010.640720484466	coherent
316.4135	0.0787720374937634	6	systole	26	B	500.0	coherent
316.5709	0.0787720374937634	6	systole	27	A	3010.640720484466	coherent
316.8761	0.0787720374937634	6	systole	28	A	3010.640720484466	coherent
317.0335	0.0787720374937634	6	systole	29	B	500.0	coherent
317.1909	0.0787720374937634	6	systole	30	A	3010.640720484466	coherent
317.5068	0.0787720374937634	6	systole	31	A	3010.640720484466	coherent
317.6644	0.0787720374937634	6	systole	32	B	500.0	coherent
317.8218	0.0787720374937634	6	systole	33	A	3010.640720484466	coherent
318.1264	0.0787720374937634	6	systole	34	A	3010.640720484466	coherent
318.2839	0.0787720374937634	6	systole	35	B	500.0	coherent
318.4414	0.0787720374937634	6	systole	36	A	3010.640720484466	coherent
318.7264	0.0787720374937634	6	systole	37	A	3010.640720484466	coherent
318.8839	0.0787720374937634	6	systole	38	B	500.0	coherent
319.0413	0.0787720374937634	6	systole	39	A	3010.640720484466	coherent
319.3269	0.0787720374937634	6	systole	40	A	3010.640720484466	coherent
319.4843	0.0787720374937634	6	systole	41	B	500.0	coherent
319.6417	0.0787720374937634	6	systole	42	A	3010.640720484466	coherent
319.9447	0.0787720374937634	6	systole	43	A	3010.640720484466	coherent
320.1012	0.0787720374937634	6	systole	44	B	500.0	coherent
320.2576	0.0787720374937634	6	systole	45	A	3010.640720484466	coherent
323.4466	0.0782397172297351	7	diastole	1	A	1578.5670027440333	streaming
323.6033	0.0782397172297351	7	diastole	2	B	500.0	streaming
323.7596	0.0782397172297351	7	diastole	3	A	1578.5670027440333	streaming
324.0867	0.0782397172297351	7	diastole	4	A	1578.5670027440333	streaming
324.2433	0.0782397172297351	7	diastole	5	B	500.0	streaming
324.3996	0.0782397172297351	7	diastole	6	A	1578.5670027440333	streaming
324.7267	0.0782397172297351	7	diastole	7	A	1578.5670027440333	streaming
324.8833	0.0782397172297351	7	diastole	8	B	500.0	streaming
325.0396	0.0782397172297351	7	diastole	9	A	1578.5670027440333	streaming
325.3626	0.0782397172297351	7	diastole	10	A	1578.5670027440333	streaming
325.5203	0.0782397172297351	7	diastole	11	B	500.0	streaming
325.6777	0.0782397172297351	7	diastole	12	A	1578.5670027440333	streaming
326.0084	0.0782397172297351	7	diastole	13	A	1578.5670027440333	streaming
326.1671	0.0782397172297351	7	diastole	14	B	500.0	streaming
326.3254	0.0782397172297351	7	diastole	15	A	1578.5670027440333	streaming
326.6226	0.0782397172297351	7	diastole	16	A	1578.5670027440333	streaming
326.7803	0.0782397172297351	7	diastole	17	B	500.0	streaming
326.9377	0.0782397172297351	7	diastole	18	A	1578.5670027440333	streaming
327.2328	0.0782397172297351	7	diastole	19	A	1578.5670027440333	streaming
327.3905	0.0782397172297351	7	diastole	20	B	500.0	streaming
327.5478	0.0782397172297351	7	diastole	21	A	1578.5670027440333	streaming
327.8432	0.0782397172297351	7	diastole	22	A	1578.5670027440333	streaming
328.0009	0.0782397172297351	7	diastole	23	B	500.0	streaming
328.1582	0.0782397172297351	7	diastole	24	A	1578.5670027440333	streaming
328.4428	0.0782397172297351	7	diastole	25	A	1578.5670027440333	streaming
328.6005	0.0782397172297351	7	diastole	26	B	500.0	streaming
328.7578	0.0782397172297351	7	diastole	27	A	1578.5670027440333	streaming
329.0454	0.0782397172297351	7	diastole	28	A	1578.5670027440333	streaming
329.2018	0.0782397172297351	7	diastole	29	B	500.0	streaming
329.3579	0.0782397172297351	7	diastole	30	A	1578.5670027440333	streaming
329.6319	0.0782397172297351	7	diastole	31	A	1578.5670027440333	streaming
329.7859	0.0782397172297351	7	diastole	32	B	500.0	streaming
329.9395	0.0782397172297351	7	diastole	33	A	1578.5670027440333	streaming
330.2247	0.0782397172297351	7	diastole	34	A	1578.5670027440333	streaming
330.3775	0.0782397172297351	7	diastole	35	B	500.0	streaming
330.5299	0.0782397172297351	7	diastole	36	A	1578.5670027440333	streaming
330.8243	0.0782397172297351	7	diastole	37	A	1578.5670027440333	streaming
330.9771	0.0782397172297351	7	diastole	38	B	500.0	streaming
331.1295	0.0782397172297351	7	diastole	39	A	1578.5670027440333	streaming
331.4341	0.0782397172297351	7	diastole	40	A	1578.5670027440333	streaming
331.5868	0.0782397172297351	7	diastole	41	B	500.0	streaming
331.7392	0.0782397172297351	7	diastole	42	A	1578.5670027440333	streaming
332.0441	0.0782397172297351	7	diastole	43	A	1578.5670027440333	streaming
332.1969	0.0782397172297351	7	diastole	44	B	500.0	streaming
332.3492	0.0782397172297351	7	diastole	45	A	1578.5670027440333	streaming
332.6741	0.0782397172297351	7	diastole	46	A	1578.5670027440333	streaming
332.8269	0.0782397172297351	7	diastole	47	B	500.0	streaming
332.9792	0.0782397172297351	7	diastole	48	A	1578.5670027440333	streaming
335.5779	0.07812316872878	8	systole	1	A	886.9712202217811	coherent
335.7349	0.07812316872878	8	systole	2	B	500.0	coherent
335.8928	0.07812316872878	8	systole	3	A	886.9712202217811	coherent
336.2079	0.07812316872878	8	systole	4	A	886.9712202217811	coherent
336.3649	0.07812316872878	8	systole	5	B	500.0	coherent
336.5229	0.07812316872878	8	systole	6	A	886.9712202217811	coherent
336.838	0.07812316872878	8	systole	7	A	886.9712202217811	coherent
336.995	0.07812316872878	8	systole	8	B	500.0	coherent
337.153	0.07812316872878	8	systole	9	A	886.9712202217811	coherent
337.4681	0.07812316872878	8	systole	10	A	886.9712202217811	coherent
337.6251	0.07812316872878	8	systole	11	B	500.0	coherent
337.7831	0.07812316872878	8	systole	12	A	886.9712202217811	coherent
338.0981	0.07812316872878	8	systole	13	A	886.9712202217811	coherent
338.2551	0.07812316872878	8	systole	14	B	500.0	coherent
338.4131	0.07812316872878	8	systole	15	A	886.9712202217811	coherent
338.7082	0.07812316872878	8	systole	16	A	886.9712202217811	coherent
338.8652	0.07812316872878	8	systole	17	B	500.0	coherent
339.0232	0.07812316872878	8	systole	18	A	886.9712202217811	coherent
339.3379	0.07812316872878	8	systole	19	A	886.9712202217811	coherent
339.4949	0.07812316872878	8	systole	20	B	500.0	coherent
339.653	0.07812316872878	8	systole	21	A	886.9712202217811	coherent
340.018	0.07812316872878	8	systole	22	A	886.9712202217811	coherent
340.175	0.07812316872878	8	systole	23	B	500.0	coherent
340.333	0.07812316872878	8	systole	24	A	886.9712202217811	coherent
340.698	0.07812316872878	8	systole	25	A	886.9712202217811	coherent
340.855	0.07812316872878	8	systole	26	B	500.0	coherent
341.013	0.07812316872878	8	systole	27	A	886.9712202217811	coherent
341.3281	0.07812316872878	8	systole	28	A	886.9712202217811	coherent
341.4851	0.07812316872878	8	systole	29	B	500.0	coherent
341.6431	0.07812316872878	8	systole	30	A	886.9712202217811	coherent
341.9479	0.07812316872878	8	systole	31	A	886.9712202217811	coherent
342.1049	0.07812316872878	8	systole	32	B	500.0	coherent
342.2629	0.07812316872878	8	systole	33	A	886.9712202217811	coherent
342.5579	0.07812316872878	8	systole	34	A	886.9712202217811	coherent
342.7149	0.07812316872878	8	systole	35	B	500.0	coherent
342.8729	0.07812316872878	8	systole	36	A	886.9712202217811	coherent
343.1678	0.07812316872878	8	systole	37	A	886.9712202217811	coherent
343.3247	0.07812316872878	8	systole	38	B	500.0	coherent
343.4827	0.07812316872878	8	systole	39	A	886.9712202217811	coherent
343.7777	0.07812316872878	8	systole	40	A	886.9712202217811	coherent
343.9347	0.07812316872878	8	systole	41	B	500.0	coherent
344.0927	0.07812316872878	8	systole	42	A	886.9712202217811	coherent
344.468	0.07812316872878	8	systole	43	A	886.9712202217811	coherent
344.625	0.07812316872878	8	systole	44	B	500.0	coherent
344.783	0.07812316872878	8	systole	45	A	886.9712202217811	coherent
349.0755	0.0768960499553941	9	diastole	1	A	1169.7126981694591	coherent
349.2317	0.0768960499553941	9	diastole	2	B	500.0	coherent
349.388	0.0768960499553941	9	diastole	3	A	1169.7126981694591	coherent
349.7556	0.0768960499553941	9	diastole	4	A	1169.7126981694591	coherent
349.9117	0.0768960499553941	9	diastole	5	B	500.0	coherent
350.068	0.0768960499553941	9	diastole	6	A	1169.7126981694591	coherent
350.5756	0.0768960499553941	9	diastole	7	A	1169.7126981694591	coherent
350.7317	0.0768960499553941	9	diastole	8	B	500.0	coherent
350.888	0.0768960499553941	9	diastole	9	A	1169.7126981694591	coherent
351.3759	0.0768960499553941	9	diastole	10	A	1169.7126981694591	coherent
351.5321	0.0768960499553941	9	diastole	11	B	500.0	coherent
351.6884	0.0768960499553941	9	diastole	12	A	1169.7126981694591	coherent
352.176	0.0768960499553941	9	diastole	13	A	1169.7126981694591	coherent
352.3321	0.0768960499553941	9	diastole	14	B	500.0	coherent
352.4885	0.0768960499553941	9	diastole	15	A	1169.7126981694591	coherent
352.9178	0.0768960499553941	9	diastole	16	A	1169.7126981694591	coherent
353.0815	0.0768960499553941	9	diastole	17	B	500.0	coherent
353.2453	0.0768960499553941	9	diastole	18	A	1169.7126981694591	coherent
353.6676	0.0768960499553941	9	diastole	19	A	1169.7126981694591	coherent
353.84	0.0768960499553941	9	diastole	20	B	500.0	coherent
354.0125	0.0768960499553941	9	diastole	21	A	1169.7126981694591	coherent
354.3815	0.0768960499553941	9	diastole	22	A	1169.7126981694591	coherent
354.5563	0.0768960499553941	9	diastole	23	B	500.0	coherent
354.7314	0.0768960499553941	9	diastole	24	A	1169.7126981694591	coherent
355.0618	0.0768960499553941	9	diastole	25	A	1169.7126981694591	coherent
355.2366	0.0768960499553941	9	diastole	26	B	500.0	coherent
355.4117	0.0768960499553941	9	diastole	27	A	1169.7126981694591	coherent
355.7416	0.0768960499553941	9	diastole	28	A	1169.7126981694591	coherent
355.9165	0.0768960499553941	9	diastole	29	B	500.0	coherent
356.0916	0.0768960499553941	9	diastole	30	A	1169.7126981694591	coherent
356.4015	0.0768960499553941	9	diastole	31	A	1169.7126981694591	coherent
356.5764	0.0768960499553941	9	diastole	32	B	500.0	coherent
356.7515	0.0768960499553941	9	diastole	33	A	1169.7126981694591	coherent
357.0515	0.0768960499553941	9	diastole	34	A	1169.7126981694591	coherent
357.2264	0.0768960499553941	9	diastole	35	B	500.0	coherent
357.4015	0.0768960499553941	9	diastole	36	A	1169.7126981694591	coherent
357.7113	0.0768960499553941	9	diastole	37	A	1169.7126981694591	coherent
357.8861	0.0768960499553941	9	diastole	38	B	500.0	coherent
358.0611	0.0768960499553941	9	diastole	39	A	1169.7126981694591	coherent
363.085	0.0825046375684905	10	diastole	1	A	2034.3166651064248	streaming
363.25	0.0825046375684905	10	diastole	2	B	500.0	streaming
363.4151	0.0825046375684905	10	diastole	3	A	2034.3166651064248	streaming
363.7451	0.0825046375684905	10	diastole	4	A	2034.3166651064248	streaming
363.9101	0.0825046375684905	10	diastole	5	B	500.0	streaming
364.0751	0.0825046375684905	10	diastole	6	A	2034.3166651064248	streaming
364.4221	0.0825046375684905	10	diastole	7	A	2034.3166651064248	streaming
364.5883	0.0825046375684905	10	diastole	8	B	500.0	streaming
364.7546	0.0825046375684905	10	diastole	9	A	2034.3166651064248	streaming
365.0721	0.0825046375684905	10	diastole	10	A	2034.3166651064248	streaming
365.2383	0.0825046375684905	10	diastole	11	B	500.0	streaming
365.4046	0.0825046375684905	10	diastole	12	A	2034.3166651064248	streaming
365.7221	0.0825046375684905	10	diastole	13	A	2034.3166651064248	streaming
365.8883	0.0825046375684905	10	diastole	14	B	500.0	streaming
366.0546	0.0825046375684905	10	diastole	15	A	2034.3166651064248	streaming
366.3721	0.0825046375684905	10	diastole	16	A	2034.3166651064248	streaming
366.5384	0.0825046375684905	10	diastole	17	B	500.0	streaming
366.7046	0.0825046375684905	10	diastole	18	A	2034.3166651064248	streaming
367.0692	0.0825046375684905	10	diastole	19	A	2034.3166651064248	streaming
367.2366	0.0825046375684905	10	diastole	20	B	500.0	streaming
367.4042	0.0825046375684905	10	diastole	21	A	2034.3166651064248	streaming
367.7792	0.0825046375684905	10	diastole	22	A	2034.3166651064248	streaming
367.9467	0.0825046375684905	10	diastole	23	B	500.0	streaming
368.1142	0.0825046375684905	10	diastole	24	A	2034.3166651064248	streaming
368.4508	0.0825046375684905	10	diastole	25	A	2034.3166651064248	streaming
368.6183	0.0825046375684905	10	diastole	26	B	500.0	streaming
368.7858	0.0825046375684905	10	diastole	27	A	2034.3166651064248	streaming
369.1224	0.0825046375684905	10	diastole	28	A	2034.3166651064248	streaming
369.2899	0.0825046375684905	10	diastole	29	B	500.0	streaming
369.4574	0.0825046375684905	10	diastole	30	A	2034.3166651064248	streaming
369.7925	0.0825046375684905	10	diastole	31	A	2034.3166651064248	streaming
369.96	0.0825046375684905	10	diastole	32	B	500.0	streaming
370.1275	0.0825046375684905	10	diastole	33	A	2034.3166651064248	streaming
370.4797	0.0825046375684905	10	diastole	34	A	2034.3166651064248	streaming
370.6484	0.0825046375684905	10	diastole	35	B	500.0	streaming
370.8172	0.0825046375684905	10	diastole	36	A	2034.3166651064248	streaming
371.1394	0.0825046375684905	10	diastole	37	A	2034.3166651064248	streaming
371.3081	0.0825046375684905	10	diastole	38	B	500.0	streaming
371.4768	0.0825046375684905	10	diastole	39	A	2034.3166651064248	streaming
371.799	0.0825046375684905	10	diastole	40	A	2034.3166651064248	streaming
371.9677	0.0825046375684905	10	diastole	41	B	500.0	streaming
372.1365	0.0825046375684905	10	diastole	42	A	2034.3166651064248	streaming
374.3392	0.0843617905629798	11	systole	1	A	808.8220262698977	coherent
374.5073	0.0843617905629798	11	systole	2	B	500.0	coherent
374.6766	0.0843617905629798	11	systole	3	A	808.8220262698977	coherent
375.0086	0.0843617905629798	11	systole	4	A	808.8220262698977	coherent
375.1764	0.0843617905629798	11	systole	5	B	500.0	coherent
375.3456	0.0843617905629798	11	systole	6	A	808.8220262698977	coherent
375.6786	0.0843617905629798	11	systole	7	A	808.8220262698977	coherent
375.8465	0.0843617905629798	11	systole	8	B	500.0	coherent
376.0157	0.0843617905629798	11	systole	9	A	808.8220262698977	coherent
376.3487	0.0843617905629798	11	systole	10	A	808.8220262698977	coherent
376.5165	0.0843617905629798	11	systole	11	B	500.0	coherent
376.6857	0.0843617905629798	11	systole	12	A	808.8220262698977	coherent
377.0343	0.0843617905629798	11	systole	13	A	808.8220262698977	coherent
377.2036	0.0843617905629798	11	systole	14	B	500.0	coherent
377.3743	0.0843617905629798	11	systole	15	A	808.8220262698977	coherent
377.6987	0.0843617905629798	11	systole	16	A	808.8220262698977	coherent
377.8693	0.0843617905629798	11	systole	17	B	500.0	coherent
378.0412	0.0843617905629798	11	systole	18	A	808.8220262698977	coherent
378.3487	0.0843617905629798	11	systole	19	A	808.8220262698977	coherent
378.5193	0.0843617905629798	11	systole	20	B	500.0	coherent
378.6912	0.0843617905629798	11	systole	21	A	808.8220262698977	coherent
379.0087	0.0843617905629798	11	systole	22	A	808.8220262698977	coherent
379.1793	0.0843617905629798	11	systole	23	B	500.0	coherent
379.3512	0.0843617905629798	11	systole	24	A	808.8220262698977	coherent
379.7187	0.0843617905629798	11	systole	25	A	808.8220262698977	coherent
379.8893	0.0843617905629798	11	systole	26	B	500.0	coherent
380.0612	0.0843617905629798	11	systole	27	A	808.8220262698977	coherent
380.3944	0.0843617905629798	11	systole	28	A	808.8220262698977	coherent
380.5638	0.0843617905629798	11	systole	29	B	500.0	coherent
380.7345	0.0843617905629798	11	systole	30	A	808.8220262698977	coherent
381.0746	0.0843617905629798	11	systole	31	A	808.8220262698977	coherent
381.244	0.0843617905629798	11	systole	32	B	500.0	coherent
381.4147	0.0843617905629798	11	systole	33	A	808.8220262698977	coherent
381.7301	0.0843617905629798	11	systole	34	A	808.8220262698977	coherent
381.8981	0.0843617905629798	11	systole	35	B	500.0	coherent
382.0676	0.0843617905629798	11	systole	36	A	808.8220262698977	coherent
382.3994	0.0843617905629798	11	systole	37	A	808.8220262698977	coherent
382.5675	0.0843617905629798	11	systole	38	B	500.0	coherent
382.7368	0.0843617905629798	11	systole	39	A	808.8220262698977	coherent
383.1291	0.0843617905629798	11	systole	40	A	808.8220262698977	coherent
383.2972	0.0843617905629798	11	systole	41	B	500.0	coherent
383.4666	0.0843617905629798	11	systole	42	A	808.8220262698977	coherent
383.8392	0.0843617905629798	11	systole	43	A	808.8220262698977	coherent
384.0073	0.0843617905629798	11	systole	44	B	500.0	coherent
384.1766	0.0843617905629798	11	systole	45	A	808.8220262698977	coherent
388.6194	0.0856251751247327	12	systole	1	A	4353.967332736322	streaming
388.7908	0.0856251751247327	12	systole	2	B	500.0	streaming
388.9619	0.0856251751247327	12	systole	3	A	4353.967332736322	streaming
389.291	0.0856251751247327	12	systole	4	A	4353.967332736322	streaming
389.4624	0.0856251751247327	12	systole	5	B	500.0	streaming
389.6335	0.0856251751247327	12	systole	6	A	4353.967332736322	streaming
389.9326	0.0856251751247327	12	systole	7	A	4353.967332736322	streaming
390.1017	0.0856251751247327	12	systole	8	B	500.0	streaming
390.2705	0.0856251751247327	12	systole	9	A	4353.967332736322	streaming
390.5578	0.0856251751247327	12	systole	10	A	4353.967332736322	streaming
390.7256	0.0856251751247327	12	systole	11	B	500.0	streaming
390.8932	0.0856251751247327	12	systole	12	A	4353.967332736322	streaming
391.1869	0.0856251751247327	12	systole	13	A	4353.967332736322	streaming
391.3545	0.0856251751247327	12	systole	14	B	500.0	streaming
391.5218	0.0856251751247327	12	systole	15	A	4353.967332736322	streaming
391.8568	0.0856251751247327	12	systole	16	A	4353.967332736322	streaming
392.0244	0.0856251751247327	12	systole	17	B	500.0	streaming
392.1917	0.0856251751247327	12	systole	18	A	4353.967332736322	streaming
392.5468	0.0856251751247327	12	systole	19	A	4353.967332736322	streaming
392.7144	0.0856251751247327	12	systole	20	B	500.0	streaming
392.8817	0.0856251751247327	12	systole	21	A	4353.967332736322	streaming
393.2367	0.0856251751247327	12	systole	22	A	4353.967332736322	streaming
393.4043	0.0856251751247327	12	systole	23	B	500.0	streaming
393.5716	0.0856251751247327	12	systole	24	A	4353.967332736322	streaming
393.8922	0.0856251751247327	12	systole	25	A	4353.967332736322	streaming
394.0586	0.0856251751247327	12	systole	26	B	500.0	streaming
394.2246	0.0856251751247327	12	systole	27	A	4353.967332736322	streaming
394.5824	0.0856251751247327	12	systole	28	A	4353.967332736322	streaming
394.7488	0.0856251751247327	12	systole	29	B	500.0	streaming
394.9149	0.0856251751247327	12	systole	30	A	4353.967332736322	streaming
395.3124	0.0856251751247327	12	systole	31	A	4353.967332736322	streaming
395.4788	0.0856251751247327	12	systole	32	B	500.0	streaming
395.6449	0.0856251751247327	12	systole	33	A	4353.967332736322	streaming
396.0424	0.0856251751247327	12	systole	34	A	4353.967332736322	streaming
396.2088	0.0856251751247327	12	systole	35	B	500.0	streaming
396.3749	0.0856251751247327	12	systole	36	A	4353.967332736322	streaming
396.7524	0.0856251751247327	12	systole	37	A	4353.967332736322	streaming
396.9188	0.0856251751247327	12	systole	38	B	500.0	streaming
397.0849	0.0856251751247327	12	systole	39	A	4353.967332736322	streaming
397.4624	0.0856251751247327	12	systole	40	A	4353.967332736322	streaming
397.6288	0.0856251751247327	12	systole	41	B	500.0	streaming
397.795	0.0856251751247327	12	systole	42	A	4353.967332736322	streaming
401.9236	0.0856331063550897	13	diastole	1	A	972.6712675344384	streaming
402.0933	0.0856331063550897	13	diastole	2	B	500.0	streaming
402.2637	0.0856331063550897	13	diastole	3	A	972.6712675344384	streaming
402.6036	0.0856331063550897	13	diastole	4	A	972.6712675344384	streaming
402.7733	0.0856331063550897	13	diastole	5	B	500.0	streaming
402.9437	0.0856331063550897	13	diastole	6	A	972.6712675344384	streaming
403.2937	0.0856331063550897	13	diastole	7	A	972.6712675344384	streaming
403.4633	0.0856331063550897	13	diastole	8	B	500.0	streaming
403.6337	0.0856331063550897	13	diastole	9	A	972.6712675344384	streaming
404.0037	0.0856331063550897	13	diastole	10	A	972.6712675344384	streaming
404.1734	0.0856331063550897	13	diastole	11	B	500.0	streaming
404.3437	0.0856331063550897	13	diastole	12	A	972.6712675344384	streaming
404.6536	0.0856331063550897	13	diastole	13	A	972.6712675344384	streaming
404.8233	0.0856331063550897	13	diastole	14	B	500.0	streaming
404.9937	0.0856331063550897	13	diastole	15	A	972.6712675344384	streaming
405.3136	0.0856331063550897	13	diastole	16	A	972.6712675344384	streaming
405.4833	0.0856331063550897	13	diastole	17	B	500.0	streaming
405.6537	0.0856331063550897	13	diastole	18	A	972.6712675344384	streaming
405.9737	0.0856331063550897	13	diastole	19	A	972.6712675344384	streaming
406.1433	0.0856331063550897	13	diastole	20	B	500.0	streaming
406.3137	0.0856331063550897	13	diastole	21	A	972.6712675344384	streaming
406.6707	0.0856331063550897	13	diastole	22	A	972.6712675344384	streaming
406.8416	0.0856331063550897	13	diastole	23	B	500.0	streaming
407.0133	0.0856331063550897	13	diastole	24	A	972.6712675344384	streaming
407.3607	0.0856331063550897	13	diastole	25	A	972.6712675344384	streaming
407.5316	0.0856331063550897	13	diastole	26	B	500.0	streaming
407.7033	0.0856331063550897	13	diastole	27	A	972.6712675344384	streaming
408.0037	0.0856331063550897	13	diastole	28	A	972.6712675344384	streaming
408.1733	0.0856331063550897	13	diastole	29	B	500.0	streaming
408.3437	0.0856331063550897	13	diastole	30	A	972.6712675344384	streaming
408.6465	0.0856331063550897	13	diastole	31	A	972.6712675344384	streaming
408.8149	0.0856331063550897	13	diastole	32	B	500.0	streaming
408.984	0.0856331063550897	13	diastole	33	A	972.6712675344384	streaming
409.3262	0.0856331063550897	13	diastole	34	A	972.6712675344384	streaming
409.4945	0.0856331063550897	13	diastole	35	B	500.0	streaming
409.6636	0.0856331063550897	13	diastole	36	A	972.6712675344384	streaming
410.0059	0.0856331063550897	13	diastole	37	A	972.6712675344384	streaming
410.1743	0.0856331063550897	13	diastole	38	B	500.0	streaming
410.3434	0.0856331063550897	13	diastole	39	A	972.6712675344384	streaming
410.716	0.0856331063550897	13	diastole	40	A	972.6712675344384	streaming
410.8843	0.0856331063550897	13	diastole	41	B	500.0	streaming
411.0534	0.0856331063550897	13	diastole	42	A	972.6712675344384	streaming
411.3688	0.0856331063550897	13	diastole	43	A	972.6712675344384	streaming
411.5359	0.0856331063550897	13	diastole	44	B	500.0	streaming
411.7038	0.0856331063550897	13	diastole	45	A	972.6712675344384	streaming
414.3539	0.0837298237020149	14	systole	1	A	688.262316600777	coherent
414.5215	0.0837298237020149	14	systole	2	B	500.0	coherent
414.6888	0.0837298237020149	14	systole	3	A	688.262316600777	coherent
415.0438	0.0837298237020149	14	systole	4	A	688.262316600777	coherent
415.2115	0.0837298237020149	14	systole	5	B	500.0	coherent
415.3788	0.0837298237020149	14	systole	6	A	688.262316600777	coherent
415.7338	0.0837298237020149	14	systole	7	A	688.262316600777	coherent
415.9015	0.0837298237020149	14	systole	8	B	500.0	coherent
416.0688	0.0837298237020149	14	systole	9	A	688.262316600777	coherent
416.434	0.0837298237020149	14	systole	10	A	688.262316600777	coherent
416.6017	0.0837298237020149	14	systole	11	B	500.0	coherent
416.769	0.0837298237020149	14	systole	12	A	688.262316600777	coherent
417.1342	0.0837298237020149	14	systole	13	A	688.262316600777	coherent
417.3019	0.0837298237020149	14	systole	14	B	500.0	coherent
417.4691	0.0837298237020149	14	systole	15	A	688.262316600777	coherent
417.8043	0.0837298237020149	14	systole	16	A	688.262316600777	coherent
417.972	0.0837298237020149	14	systole	17	B	500.0	coherent
418.1393	0.0837298237020149	14	systole	18	A	688.262316600777	coherent
418.5035	0.0837298237020149	14	systole	19	A	688.262316600777	coherent
418.6737	0.0837298237020149	14	systole	20	B	500.0	coherent
418.8435	0.0837298237020149	14	systole	21	A	688.262316600777	coherent
419.2222	0.0837298237020149	14	systole	22	A	688.262316600777	coherent
419.3949	0.0837298237020149	14	systole	23	B	500.0	coherent
419.5672	0.0837298237020149	14	systole	24	A	688.262316600777	coherent
419.8726	0.0837298237020149	14	systole	25	A	688.262316600777	coherent
420.0453	0.0837298237020149	14	systole	26	B	500.0	coherent
420.2176	0.0837298237020149	14	systole	27	A	688.262316600777	coherent
420.5231	0.0837298237020149	14	systole	28	A	688.262316600777	coherent
420.6958	0.0837298237020149	14	systole	29	B	500.0	coherent
420.868	0.0837298237020149	14	systole	30	A	688.262316600777	coherent
421.1846	0.0837298237020149	14	systole	31	A	688.262316600777	coherent
421.3573	0.0837298237020149	14	systole	32	B	500.0	coherent
421.5296	0.0837298237020149	14	systole	33	A	688.262316600777	coherent
421.8627	0.0837298237020149	14	systole	34	A	688.262316600777	coherent
422.0354	0.0837298237020149	14	systole	35	B	500.0	coherent
422.2077	0.0837298237020149	14	systole	36	A	688.262316600777	coherent
422.5225	0.0837298237020149	14	systole	37	A	688.262316600777	coherent
422.6925	0.0837298237020149	14	systole	38	B	500.0	coherent
422.8621	0.0837298237020149	14	systole	39	A	688.262316600777	coherent
423.1779	0.0837298237020149	14	systole	40	A	688.262316600777	coherent
423.3466	0.0837298237020149	14	systole	41	B	500.0	coherent
423.5149	0.0837298237020149	14	systole	42	A	688.262316600777	coherent
426.3948	0.0849051054683514	15	diastole	1	A	2130.3297690552017	streaming
426.5633	0.0849051054683514	15	diastole	2	B	500.0	streaming
426.7318	0.0849051054683514	15	diastole	3	A	2130.3297690552017	streaming
427.0648	0.0849051054683514	15	diastole	4	A	2130.3297690552017	streaming
427.2334	0.0849051054683514	15	diastole	5	B	500.0	streaming
427.4019	0.0849051054683514	15	diastole	6	A	2130.3297690552017	streaming
427.7248	0.0849051054683514	15	diastole	7	A	2130.3297690552017	streaming
427.8934	0.0849051054683514	15	diastole	8	B	500.0	streaming
428.0619	0.0849051054683514	15	diastole	9	A	2130.3297690552017	streaming
428.3848	0.0849051054683514	15	diastole	10	A	2130.3297690552017	streaming
428.5534	0.0849051054683514	15	diastole	11	B	500.0	streaming
428.7219	0.0849051054683514	15	diastole	12	A	2130.3297690552017	streaming
429.0448	0.0849051054683514	15	diastole	13	A	2130.3297690552017	streaming
429.2134	0.0849051054683514	15	diastole	14	B	500.0	streaming
429.3819	0.0849051054683514	15	diastole	15	A	2130.3297690552017	streaming
429.6907	0.0849051054683514	15	diastole	16	A	2130.3297690552017	streaming
429.8582	0.0849051054683514	15	diastole	17	B	500.0	streaming
430.0256	0.0849051054683514	15	diastole	18	A	2130.3297690552017	streaming
430.3426	0.0849051054683514	15	diastole	19	A	2130.3297690552017	streaming
430.5101	0.0849051054683514	15	diastole	20	B	500.0	streaming
430.6776	0.0849051054683514	15	diastole	21	A	2130.3297690552017	streaming
430.9946	0.0849051054683514	15	diastole	22	A	2130.3297690552017	streaming
431.162	0.0849051054683514	15	diastole	23	B	500.0	streaming
431.3295	0.0849051054683514	15	diastole	24	A	2130.3297690552017	streaming
431.6075	0.0849051054683514	15	diastole	25	A	2130.3297690552017	streaming
431.7737	0.0849051054683514	15	diastole	26	B	500.0	streaming
431.94	0.0849051054683514	15	diastole	27	A	2130.3297690552017	streaming
432.2275	0.0849051054683514	15	diastole	28	A	2130.3297690552017	streaming
432.3937	0.0849051054683514	15	diastole	29	B	500.0	streaming
432.5599	0.0849051054683514	15	diastole	30	A	2130.3297690552017	streaming
432.8391	0.0849051054683514	15	diastole	31	A	2130.3297690552017	streaming
433.0041	0.0849051054683514	15	diastole	32	B	500.0	streaming
433.1691	0.0849051054683514	15	diastole	33	A	2130.3297690552017	streaming
433.5209	0.0849051054683514	15	diastole	34	A	2130.3297690552017	streaming
433.6859	0.0849051054683514	15	diastole	35	B	500.0	streaming
433.8509	0.0849051054683514	15	diastole	36	A	2130.3297690552017	streaming
434.3413	0.0849051054683514	15	diastole	37	A	2130.3297690552017	streaming
434.5063	0.0849051054683514	15	diastole	38	B	500.0	streaming
434.6713	0.0849051054683514	15	diastole	39	A	2130.3297690552017	streaming
435.1617	0.0849051054683514	15	diastole	40	A	2130.3297690552017	streaming
435.3267	0.0849051054683514	15	diastole	41	B	500.0	streaming
435.4917	0.0849051054683514	15	diastole	42	A	2130.3297690552017	streaming
437.8006	0.0838530563632957	16	diastole	1	A	2034.3166651064248	streaming
437.963	0.0838530563632957	16	diastole	2	B	500.0	streaming
438.1255	0.0838530563632957	16	diastole	3	A	2034.3166651064248	streaming
438.4405	0.0838530563632957	16	diastole	4	A	2034.3166651064248	streaming
438.603	0.0838530563632957	16	diastole	5	B	500.0	streaming
438.7654	0.0838530563632957	16	diastole	6	A	2034.3166651064248	streaming
439.1006	0.0838530563632957	16	diastole	7	A	2034.3166651064248	streaming
439.263	0.0838530563632957	16	diastole	8	B	500.0	streaming
439.4255	0.0838530563632957	16	diastole	9	A	2034.3166651064248	streaming
439.9305	0.0838530563632957	16	diastole	10	A	2034.3166651064248	streaming
440.0929	0.0838530563632957	16	diastole	11	B	500.0	streaming
440.2554	0.0838530563632957	16	diastole	12	A	2034.3166651064248	streaming
440.8905	0.0838530563632957	16	diastole	13	A	2034.3166651064248	streaming
441.0529	0.0838530563632957	16	diastole	14	B	500.0	streaming
441.2154	0.0838530563632957	16	diastole	15	A	2034.3166651064248	streaming
441.7208	0.0838530563632957	16	diastole	16	A	2034.3166651064248	streaming
441.8832	0.0838530563632957	16	diastole	17	B	500.0	streaming
442.0458	0.0838530563632957	16	diastole	18	A	2034.3166651064248	streaming
442.4636	0.0838530563632957	16	diastole	19	A	2034.3166651064248	streaming
442.6336	0.0838530563632957	16	diastole	20	B	500.0	streaming
442.8036	0.0838530563632957	16	diastole	21	A	2034.3166651064248	streaming
443.1638	0.0838530563632957	16	diastole	22	A	2034.3166651064248	streaming
443.3337	0.0838530563632957	16	diastole	23	B	500.0	streaming
443.5038	0.0838530563632957	16	diastole	24	A	2034.3166651064248	streaming
443.864	0.0838530563632957	16	diastole	25	A	2034.3166651064248	streaming
444.034	0.0838530563632957	16	diastole	26	B	500.0	streaming
444.204	0.0838530563632957	16	diastole	27	A	2034.3166651064248	streaming
444.5746	0.0838530563632957	16	diastole	28	A	2034.3166651064248	streaming
444.7483	0.0838530563632957	16	diastole	29	B	500.0	streaming
444.922	0.0838530563632957	16	diastole	30	A	2034.3166651064248	streaming
445.2649	0.0838530563632957	16	diastole	31	A	2034.3166651064248	streaming
445.4386	0.0838530563632957	16	diastole	32	B	500.0	streaming
445.6124	0.0838530563632957	16	diastole	33	A	2034.3166651064248	streaming
445.9549	0.0838530563632957	16	diastole	34	A	2034.3166651064248	streaming
446.1286	0.0838530563632957	16	diastole	35	B	500.0	streaming
446.3025	0.0838530563632957	16	diastole	36	A	2034.3166651064248	streaming
446.7132	0.0838530563632957	16	diastole	37	A	2034.3166651064248	streaming
446.8919	0.0838530563632957	16	diastole	38	B	500.0	streaming
447.0707	0.0838530563632957	16	diastole	39	A	2034.3166651064248	streaming
447.4531	0.0838530563632957	16	diastole	40	A	2034.3166651064248	streaming
447.6319	0.0838530563632957	16	diastole	41	B	500.0	streaming
447.8107	0.0838530563632957	16	diastole	42	A	2034.3166651064248	streaming
450.5007	0.0893757751036901	17	systole	1	A	4999.999999999997	streaming
450.6833	0.0893757751036901	17	systole	2	B	500.0	streaming
450.8657	0.0893757751036901	17	systole	3	A	4999.999999999997	streaming
451.2323	0.0893757751036901	17	systole	4	A	4999.999999999997	streaming
451.4149	0.0893757751036901	17	systole	5	B	500.0	streaming
451.5973	0.0893757751036901	17	systole	6	A	4999.999999999997	streaming
451.9607	0.0893757751036901	17	systole	7	A	4999.999999999997	streaming
452.1433	0.0893757751036901	17	systole	8	B	500.0	streaming
452.3257	0.0893757751036901	17	systole	9	A	4999.999999999997	streaming
452.6808	0.0893757751036901	17	systole	10	A	4999.999999999997	streaming
452.8634	0.0893757751036901	17	systole	11	B	500.0	streaming
453.0458	0.0893757751036901	17	systole	12	A	4999.999999999997	streaming
453.3497	0.0893757751036901	17	systole	13	A	4999.999999999997	streaming
453.5321	0.0893757751036901	17	systole	14	B	500.0	streaming
453.7143	0.0893757751036901	17	systole	15	A	4999.999999999997	streaming
454.0193	0.0893757751036901	17	systole	16	A	4999.999999999997	streaming
454.2017	0.0893757751036901	17	systole	17	B	500.0	streaming
454.3839	0.0893757751036901	17	systole	18	A	4999.999999999997	streaming
454.6995	0.0893757751036901	17	systole	19	A	4999.999999999997	streaming
454.8819	0.0893757751036901	17	systole	20	B	500.0	streaming
455.064	0.0893757751036901	17	systole	21	A	4999.999999999997	streaming
455.3796	0.0893757751036901	17	systole	22	A	4999.999999999997	streaming
455.562	0.0893757751036901	17	systole	23	B	500.0	streaming
455.7442	0.0893757751036901	17	systole	24	A	4999.999999999997	streaming
456.1151	0.0893757751036901	17	systole	25	A	4999.999999999997	streaming
456.2963	0.0893757751036901	17	systole	26	B	500.0	streaming
456.4772	0.0893757751036901	17	systole	27	A	4999.999999999997	streaming
456.7821	0.0893757751036901	17	systole	28	A	4999.999999999997	streaming
456.9597	0.0893757751036901	17	systole	29	B	500.0	streaming
457.1371	0.0893757751036901	17	systole	30	A	4999.999999999997	streaming
457.4621	0.0893757751036901	17	systole	31	A	4999.999999999997	streaming
457.6397	0.0893757751036901	17	systole	32	B	500.0	streaming
457.8171	0.0893757751036901	17	systole	33	A	4999.999999999997	streaming
458.1621	0.0893757751036901	17	systole	34	A	4999.999999999997	streaming
458.3398	0.0893757751036901	17	systole	35	B	500.0	streaming
458.5171	0.0893757751036901	17	systole	36	A	4999.999999999997	streaming
458.8675	0.0893757751036901	17	systole	37	A	4999.999999999997	streaming
459.0439	0.0893757751036901	17	systole	38	B	500.0	streaming
459.2201	0.0893757751036901	17	systole	39	A	4999.999999999997	streaming
459.5283	0.0893757751036901	17	systole	40	A	4999.999999999997	streaming
459.7022	0.0893757751036901	17	systole	41	B	500.0	streaming
459.8758	0.0893757751036901	17	systole	42	A	4999.999999999997	streaming
466.4123	0.0862419035984203	18	systole	1	A	4886.027023828005	streaming
466.5849	0.0862419035984203	18	systole	2	B	500.0	streaming
466.7573	0.0862419035984203	18	systole	3	A	4886.027023828005	streaming
467.0732	0.0862419035984203	18	systole	4	A	4886.027023828005	streaming
467.2433	0.0862419035984203	18	systole	5	B	500.0	streaming
467.4132	0.0862419035984203	18	systole	6	A	4886.027023828005	streaming
467.7432	0.0862419035984203	18	systole	7	A	4886.027023828005	streaming
467.9133	0.0862419035984203	18	systole	8	B	500.0	streaming
468.0832	0.0862419035984203	18	systole	9	A	4886.027023828005	streaming
468.4187	0.0862419035984203	18	systole	10	A	4886.027023828005	streaming
468.5876	0.0862419035984203	18	systole	11	B	500.0	streaming
468.7563	0.0862419035984203	18	systole	12	A	4886.027023828005	streaming
469.0443	0.0862419035984203	18	systole	13	A	4886.027023828005	streaming
469.2119	0.0862419035984203	18	systole	14	B	500.0	streaming
469.3793	0.0862419035984203	18	systole	15	A	4886.027023828005	streaming
469.6739	0.0862419035984203	18	systole	16	A	4886.027023828005	streaming
469.8415	0.0862419035984203	18	systole	17	B	500.0	streaming
470.0089	0.0862419035984203	18	systole	18	A	4886.027023828005	streaming
470.3443	0.0862419035984203	18	systole	19	A	4886.027023828005	streaming
470.5119	0.0862419035984203	18	systole	20	B	500.0	streaming
470.6793	0.0862419035984203	18	systole	21	A	4886.027023828005	streaming
471.054	0.0862419035984203	18	systole	22	A	4886.027023828005	streaming
471.2216	0.0862419035984203	18	systole	23	B	500.0	streaming
471.389	0.0862419035984203	18	systole	24	A	4886.027023828005	streaming
471.7637	0.0862419035984203	18	systole	25	A	4886.027023828005	streaming
471.9313	0.0862419035984203	18	systole	26	B	500.0	streaming
472.0988	0.0862419035984203	18	systole	27	A	4886.027023828005	streaming
472.4735	0.0862419035984203	18	systole	28	A	4886.027023828005	streaming
472.6411	0.0862419035984203	18	systole	29	B	500.0	streaming
472.8085	0.0862419035984203	18	systole	30	A	4886.027023828005	streaming
473.1534	0.0862419035984203	18	systole	31	A	4886.027023828005	streaming
473.321	0.0862419035984203	18	systole	32	B	500.0	streaming
473.4884	0.0862419035984203	18	systole	33	A	4886.027023828005	streaming
473.8335	0.0862419035984203	18	systole	34	A	4886.027023828005	streaming
474.001	0.0862419035984203	18	systole	35	B	500.0	streaming
474.1684	0.0862419035984203	18	systole	36	A	4886.027023828005	streaming
474.5536	0.0862419035984203	18	systole	37	A	4886.027023828005	streaming
474.7213	0.0862419035984203	18	systole	38	B	500.0	streaming
474.8887	0.0862419035984203	18	systole	39	A	4886.027023828005	streaming
475.2736	0.0862419035984203	18	systole	40	A	4886.027023828005	streaming
475.4413	0.0862419035984203	18	systole	41	B	500.0	streaming
475.6087	0.0862419035984203	18	systole	42	A	4886.027023828005	streaming
475.9584	0.0862419035984203	18	systole	43	A	4886.027023828005	streaming
476.1273	0.0862419035984203	18	systole	44	B	500.0	streaming
476.296	0.0862419035984203	18	systole	45	A	4886.027023828005	streaming
479.1931	0.0850013189192395	19	systole	1	A	599.3343285666417	coherent
479.3633	0.0850013189192395	19	systole	2	B	500.0	coherent
479.5332	0.0850013189192395	19	systole	3	A	599.3343285666417	coherent
479.8929	0.0850013189192395	19	systole	4	A	599.3343285666417	coherent
480.0631	0.0850013189192395	19	systole	5	B	500.0	coherent
480.233	0.0850013189192395	19	systole	6	A	599.3343285666417	coherent
480.5427	0.0850013189192395	19	systole	7	A	599.3343285666417	coherent
480.7128	0.0850013189192395	19	systole	8	B	500.0	coherent
480.8826	0.0850013189192395	19	systole	9	A	599.3343285666417	coherent
481.1826	0.0850013189192395	19	systole	10	A	599.3343285666417	coherent
481.3527	0.0850013189192395	19	systole	11	B	500.0	coherent
481.5225	0.0850013189192395	19	systole	12	A	599.3343285666417	coherent
481.8226	0.0850013189192395	19	systole	13	A	599.3343285666417	coherent
481.9927	0.0850013189192395	19	systole	14	B	500.0	coherent
482.1625	0.0850013189192395	19	systole	15	A	599.3343285666417	coherent
482.5028	0.0850013189192395	19	systole	16	A	599.3343285666417	coherent
482.673	0.0850013189192395	19	systole	17	B	500.0	coherent
482.8428	0.0850013189192395	19	systole	18	A	599.3343285666417	coherent
483.1829	0.0850013189192395	19	systole	19	A	599.3343285666417	coherent
483.353	0.0850013189192395	19	systole	20	B	500.0	coherent
483.5229	0.0850013189192395	19	systole	21	A	599.3343285666417	coherent
483.8629	0.0850013189192395	19	systole	22	A	599.3343285666417	coherent
484.0331	0.0850013189192395	19	systole	23	B	500.0	coherent
484.2029	0.0850013189192395	19	systole	24	A	599.3343285666417	coherent
484.5827	0.0850013189192395	19	systole	25	A	599.3343285666417	coherent
484.7528	0.0850013189192395	19	systole	26	B	500.0	coherent
484.9227	0.0850013189192395	19	systole	27	A	599.3343285666417	coherent
485.3025	0.0850013189192395	19	systole	28	A	599.3343285666417	coherent
485.4726	0.0850013189192395	19	systole	29	B	500.0	coherent
485.6425	0.0850013189192395	19	systole	30	A	599.3343285666417	coherent
485.9967	0.0850013189192395	19	systole	31	A	599.3343285666417	coherent
486.1681	0.0850013189192395	19	systole	32	B	500.0	coherent
486.3392	0.0850013189192395	19	systole	33	A	599.3343285666417	coherent
486.6863	0.0850013189192395	19	systole	34	A	599.3343285666417	coherent
486.8577	0.0850013189192395	19	systole	35	B	500.0	coherent
487.0289	0.0850013189192395	19	systole	36	A	599.3343285666417	coherent
487.3759	0.0850013189192395	19	systole	37	A	599.3343285666417	coherent
487.5473	0.0850013189192395	19	systole	38	B	500.0	coherent
487.7185	0.0850013189192395	19	systole	39	A	599.3343285666417	coherent
488.1459	0.0850013189192395	19	systole	40	A	599.3343285666417	coherent
488.3173	0.0850013189192395	19	systole	41	B	500.0	coherent
488.4885	0.0850013189192395	19	systole	42	A	599.3343285666417	coherent
491.0323	0.0862531746388413	20	systole	1	A	4999.999999999997	streaming
491.205	0.0862531746388413	20	systole	2	B	500.0	streaming
491.3773	0.0862531746388413	20	systole	3	A	4999.999999999997	streaming
491.7816	0.0862531746388413	20	systole	4	A	4999.999999999997	streaming
491.9567	0.0862531746388413	20	systole	5	B	500.0	streaming
492.1316	0.0862531746388413	20	systole	6	A	4999.999999999997	streaming
492.4624	0.0862531746388413	20	systole	7	A	4999.999999999997	streaming
492.635	0.0862531746388413	20	systole	8	B	500.0	streaming
492.8074	0.0862531746388413	20	systole	9	A	4999.999999999997	streaming
493.1523	0.0862531746388413	20	systole	10	A	4999.999999999997	streaming
493.3249	0.0862531746388413	20	systole	11	B	500.0	streaming
493.4973	0.0862531746388413	20	systole	12	A	4999.999999999997	streaming
493.8121	0.0862531746388413	20	systole	13	A	4999.999999999997	streaming
493.9847	0.0862531746388413	20	systole	14	B	500.0	streaming
494.1571	0.0862531746388413	20	systole	15	A	4999.999999999997	streaming
494.4723	0.0862531746388413	20	systole	16	A	4999.999999999997	streaming
494.6449	0.0862531746388413	20	systole	17	B	500.0	streaming
494.8173	0.0862531746388413	20	systole	18	A	4999.999999999997	streaming
495.1325	0.0862531746388413	20	systole	19	A	4999.999999999997	streaming
495.3051	0.0862531746388413	20	systole	20	B	500.0	streaming
495.4775	0.0862531746388413	20	systole	21	A	4999.999999999997	streaming
495.7824	0.0862531746388413	20	systole	22	A	4999.999999999997	streaming
495.955	0.0862531746388413	20	systole	23	B	500.0	streaming
496.1274	0.0862531746388413	20	systole	24	A	4999.999999999997	streaming
496.4324	0.0862531746388413	20	systole	25	A	4999.999999999997	streaming
496.605	0.0862531746388413	20	systole	26	B	500.0	streaming
496.7774	0.0862531746388413	20	systole	27	A	4999.999999999997	streaming
497.0841	0.0862531746388413	20	systole	28	A	4999.999999999997	streaming
497.2517	0.0862531746388413	20	systole	29	B	500.0	streaming
497.4191	0.0862531746388413	20	systole	30	A	4999.999999999997	streaming
497.7941	0.0862531746388413	20	systole	31	A	4999.999999999997	streaming
497.9617	0.0862531746388413	20	systole	32	B	500.0	streaming
498.1291	0.0862531746388413	20	systole	33	A	4999.999999999997	streaming
498.5041	0.0862531746388413	20	systole	34	A	4999.999999999997	streaming
498.6718	0.0862531746388413	20	systole	35	B	500.0	streaming
498.8392	0.0862531746388413	20	systole	36	A	4999.999999999997	streaming
499.2141	0.0862531746388413	20	systole	37	A	4999.999999999997	streaming
499.3818	0.0862531746388413	20	systole	38	B	500.0	streaming
499.5492	0.0862531746388413	20	systole	39	A	4999.999999999997	streaming
499.8843	0.0862531746388413	20	systole	40	A	4999.999999999997	streaming
500.0519	0.0862531746388413	20	systole	41	B	500.0	streaming
500.2193	0.0862531746388413	20	systole	42	A	4999.999999999997	streaming
500.5544	0.0862531746388413	20	systole	43	A	4999.999999999997	streaming
500.722	0.0862531746388413	20	systole	44	B	500.0	streaming
500.8894	0.0862531746388413	20	systole	45	A	4999.999999999997	streaming
502.4239	0.0837556188052985	21	systole	1	A	585.6727451368844	coherent
502.5916	0.0837556188052985	21	systole	2	B	500.0	coherent
502.759	0.0837556188052985	21	systole	3	A	585.6727451368844	coherent
503.064	0.0837556188052985	21	systole	4	A	585.6727451368844	coherent
503.2316	0.0837556188052985	21	systole	5	B	500.0	coherent
503.399	0.0837556188052985	21	systole	6	A	585.6727451368844	coherent
503.704	0.0837556188052985	21	systole	7	A	585.6727451368844	coherent
503.8716	0.0837556188052985	21	systole	8	B	500.0	coherent
504.039	0.0837556188052985	21	systole	9	A	585.6727451368844	coherent
504.3397	0.0837556188052985	21	systole	10	A	585.6727451368844	coherent
504.5061	0.0837556188052985	21	systole	11	B	500.0	coherent
504.6722	0.0837556188052985	21	systole	12	A	585.6727451368844	coherent
504.9799	0.0837556188052985	21	systole	13	A	585.6727451368844	coherent
505.1463	0.0837556188052985	21	systole	14	B	500.0	coherent
505.3125	0.0837556188052985	21	systole	15	A	585.6727451368844	coherent
505.6205	0.0837556188052985	21	systole	16	A	585.6727451368844	coherent
505.7843	0.0837556188052985	21	systole	17	B	500.0	coherent
505.9479	0.0837556188052985	21	systole	18	A	585.6727451368844	coherent
506.2705	0.0837556188052985	21	systole	19	A	585.6727451368844	coherent
506.4343	0.0837556188052985	21	systole	20	B	500.0	coherent
506.5979	0.0837556188052985	21	systole	21	A	585.6727451368844	coherent
506.9705	0.0837556188052985	21	systole	22	A	585.6727451368844	coherent
507.1344	0.0837556188052985	21	systole	23	B	500.0	coherent
507.2979	0.0837556188052985	21	systole	24	A	585.6727451368844	coherent
507.6705	0.0837556188052985	21	systole	25	A	585.6727451368844	coherent
507.8344	0.0837556188052985	21	systole	26	B	500.0	coherent
507.9979	0.0837556188052985	21	systole	27	A	585.6727451368844	coherent
508.3705	0.0837556188052985	21	systole	28	A	585.6727451368844	coherent
508.5343	0.0837556188052985	21	systole	29	B	500.0	coherent
508.6979	0.0837556188052985	21	systole	30	A	585.6727451368844	coherent
509.0406	0.0837556188052985	21	systole	31	A	585.6727451368844	coherent
509.2044	0.0837556188052985	21	systole	32	B	500.0	coherent
509.3681	0.0837556188052985	21	systole	33	A	585.6727451368844	coherent
509.7107	0.0837556188052985	21	systole	34	A	585.6727451368844	coherent
509.8745	0.0837556188052985	21	systole	35	B	500.0	coherent
510.0381	0.0837556188052985	21	systole	36	A	585.6727451368844	coherent
510.3606	0.0837556188052985	21	systole	37	A	585.6727451368844	coherent
510.5245	0.0837556188052985	21	systole	38	B	500.0	coherent
510.6881	0.0837556188052985	21	systole	39	A	585.6727451368844	coherent
511.0399	0.0837556188052985	21	systole	40	A	585.6727451368844	coherent
511.2062	0.0837556188052985	21	systole	41	B	500.0	coherent
511.3723	0.0837556188052985	21	systole	42	A	585.6727451368844	coherent
511.7146	0.0837556188052985	21	systole	43	A	585.6727451368844	coherent
511.8822	0.0837556188052985	21	systole	44	B	500.0	coherent
512.0496	0.0837556188052985	21	systole	45	A	585.6727451368844	coherent
512.3746	0.0837556188052985	21	systole	46	A	585.6727451368844	coherent
512.5422	0.0837556188052985	21	systole	47	B	500.0	coherent
512.7096	0.0837556188052985	21	systole	48	A	585.6727451368844	coherent
515.5963	0.0837542386143468	22	diastole	1	A	1987.9452401467304	streaming
515.765	0.0837542386143468	22	diastole	2	B	500.0	streaming
515.9338	0.0837542386143468	22	diastole	3	A	1987.9452401467304	streaming
516.2763	0.0837542386143468	22	diastole	4	A	1987.9452401467304	streaming
516.445	0.0837542386143468	22	diastole	5	B	500.0	streaming
516.6138	0.0837542386143468	22	diastole	6	A	1987.9452401467304	streaming
516.9634	0.0837542386143468	22	diastole	7	A	1987.9452401467304	streaming
517.1334	0.0837542386143468	22	diastole	8	B	500.0	streaming
517.3034	0.0837542386143468	22	diastole	9	A	1987.9452401467304	streaming
517.6435	0.0837542386143468	22	diastole	10	A	1987.9452401467304	streaming
517.8134	0.0837542386143468	22	diastole	11	B	500.0	streaming
517.9835	0.0837542386143468	22	diastole	12	A	1987.9452401467304	streaming
518.2952	0.0837542386143468	22	diastole	13	A	1987.9452401467304	streaming
518.4651	0.0837542386143468	22	diastole	14	B	500.0	streaming
518.6352	0.0837542386143468	22	diastole	15	A	1987.9452401467304	streaming
518.9235	0.0837542386143468	22	diastole	16	A	1987.9452401467304	streaming
519.0935	0.0837542386143468	22	diastole	17	B	500.0	streaming
519.2636	0.0837542386143468	22	diastole	18	A	1987.9452401467304	streaming
519.5536	0.0837542386143468	22	diastole	19	A	1987.9452401467304	streaming
519.7235	0.0837542386143468	22	diastole	20	B	500.0	streaming
519.8936	0.0837542386143468	22	diastole	21	A	1987.9452401467304	streaming
520.1965	0.0837542386143468	22	diastole	22	A	1987.9452401467304	streaming
520.3652	0.0837542386143468	22	diastole	23	B	500.0	streaming
520.5341	0.0837542386143468	22	diastole	24	A	1987.9452401467304	streaming
520.8429	0.0837542386143468	22	diastole	25	A	1987.9452401467304	streaming
521.0091	0.0837542386143468	22	diastole	26	B	500.0	streaming
521.1754	0.0837542386143468	22	diastole	27	A	1987.9452401467304	streaming
521.5053	0.0837542386143468	22	diastole	28	A	1987.9452401467304	streaming
521.6702	0.0837542386143468	22	diastole	29	B	500.0	streaming
521.8352	0.0837542386143468	22	diastole	30	A	1987.9452401467304	streaming
522.1753	0.0837542386143468	22	diastole	31	A	1987.9452401467304	streaming
522.3401	0.0837542386143468	22	diastole	32	B	500.0	streaming
522.5052	0.0837542386143468	22	diastole	33	A	1987.9452401467304	streaming
522.8852	0.0837542386143468	22	diastole	34	A	1987.9452401467304	streaming
523.0501	0.0837542386143468	22	diastole	35	B	500.0	streaming
523.2152	0.0837542386143468	22	diastole	36	A	1987.9452401467304	streaming
523.5952	0.0837542386143468	22	diastole	37	A	1987.9452401467304	streaming
523.7601	0.0837542386143468	22	diastole	38	B	500.0	streaming
523.9252	0.0837542386143468	22	diastole	39	A	1987.9452401467304	streaming
524.3052	0.0837542386143468	22	diastole	40	A	1987.9452401467304	streaming
524.47	0.0837542386143468	22	diastole	41	B	500.0	streaming
524.6351	0.0837542386143468	22	diastole	42	A	1987.9452401467304	streaming
527.0214	0.0857244415965396	23	diastole	1	A	627.6209518715393	coherent
527.193	0.0857244415965396	23	diastole	2	B	500.0	coherent
527.3643	0.0857244415965396	23	diastole	3	A	627.6209518715393	coherent
527.6714	0.0857244415965396	23	diastole	4	A	627.6209518715393	coherent
527.843	0.0857244415965396	23	diastole	5	B	500.0	coherent
528.0143	0.0857244415965396	23	diastole	6	A	627.6209518715393	coherent
528.3314	0.0857244415965396	23	diastole	7	A	627.6209518715393	coherent
528.503	0.0857244415965396	23	diastole	8	B	500.0	coherent
528.6743	0.0857244415965396	23	diastole	9	A	627.6209518715393	coherent
528.9584	0.0857244415965396	23	diastole	10	A	627.6209518715393	coherent
529.1277	0.0857244415965396	23	diastole	11	B	500.0	coherent
529.2967	0.0857244415965396	23	diastole	12	A	627.6209518715393	coherent
529.583	0.0857244415965396	23	diastole	13	A	627.6209518715393	coherent
529.7497	0.0857244415965396	23	diastole	14	B	500.0	coherent
529.9159	0.0857244415965396	23	diastole	15	A	627.6209518715393	coherent
530.223	0.0857244415965396	23	diastole	16	A	627.6209518715393	coherent
530.3896	0.0857244415965396	23	diastole	17	B	500.0	coherent
530.5559	0.0857244415965396	23	diastole	18	A	627.6209518715393	coherent
530.8748	0.0857244415965396	23	diastole	19	A	627.6209518715393	coherent
531.04	0.0857244415965396	23	diastole	20	B	500.0	coherent
531.2049	0.0857244415965396	23	diastole	21	A	627.6209518715393	coherent
531.5652	0.0857244415965396	23	diastole	22	A	627.6209518715393	coherent
531.7304	0.0857244415965396	23	diastole	23	B	500.0	coherent
531.8952	0.0857244415965396	23	diastole	24	A	627.6209518715393	coherent
532.2556	0.0857244415965396	23	diastole	25	A	627.6209518715393	coherent
532.4207	0.0857244415965396	23	diastole	26	B	500.0	coherent
532.5856	0.0857244415965396	23	diastole	27	A	627.6209518715393	coherent
532.9556	0.0857244415965396	23	diastole	28	A	627.6209518715393	coherent
533.1207	0.0857244415965396	23	diastole	29	B	500.0	coherent
533.2856	0.0857244415965396	23	diastole	30	A	627.6209518715393	coherent
533.6555	0.0857244415965396	23	diastole	31	A	627.6209518715393	coherent
533.8207	0.0857244415965396	23	diastole	32	B	500.0	coherent
533.9855	0.0857244415965396	23	diastole	33	A	627.6209518715393	coherent
534.3938	0.0857244415965396	23	diastole	34	A	627.6209518715393	coherent
534.564	0.0857244415965396	23	diastole	35	B	500.0	coherent
534.7338	0.0857244415965396	23	diastole	36	A	627.6209518715393	coherent
535.0538	0.0857244415965396	23	diastole	37	A	627.6209518715393	coherent
535.224	0.0857244415965396	23	diastole	38	B	500.0	coherent
535.3939	0.0857244415965396	23	diastole	39	A	627.6209518715393	coherent
535.7139	0.0857244415965396	23	diastole	40	A	627.6209518715393	coherent
535.884	0.0857244415965396	23	diastole	41	B	500.0	coherent
536.0539	0.0857244415965396	23	diastole	42	A	627.6209518715393	coherent
536.3839	0.0857244415965396	23	diastole	43	A	627.6209518715393	coherent
536.5541	0.0857244415965396	23	diastole	44	B	500.0	coherent
536.7239	0.0857244415965396	23	diastole	45	A	627.6209518715393	coherent
541.0985	0.0837288544862531	24	diastole	1	A	599.3343285666417	coherent
541.2661	0.0837288544862531	24	diastole	2	B	500.0	coherent
541.4335	0.0837288544862531	24	diastole	3	A	599.3343285666417	coherent
541.7785	0.0837288544862531	24	diastole	4	A	599.3343285666417	coherent
541.9461	0.0837288544862531	24	diastole	5	B	500.0	coherent
542.1134	0.0837288544862531	24	diastole	6	A	599.3343285666417	coherent
542.4491	0.0837288544862531	24	diastole	7	A	599.3343285666417	coherent
542.6168	0.0837288544862531	24	diastole	8	B	500.0	coherent
542.7842	0.0837288544862531	24	diastole	9	A	599.3343285666417	coherent
543.1194	0.0837288544862531	24	diastole	10	A	599.3343285666417	coherent
543.287	0.0837288544862531	24	diastole	11	B	500.0	coherent
543.4544	0.0837288544862531	24	diastole	12	A	599.3343285666417	coherent
543.7896	0.0837288544862531	24	diastole	13	A	599.3343285666417	coherent
543.9572	0.0837288544862531	24	diastole	14	B	500.0	coherent
544.1246	0.0837288544862531	24	diastole	15	A	599.3343285666417	coherent
544.5066	0.0837288544862531	24	diastole	16	A	599.3343285666417	coherent
544.6755	0.0837288544862531	24	diastole	17	B	500.0	coherent
544.8442	0.0837288544862531	24	diastole	18	A	599.3343285666417	coherent
545.1666	0.0837288544862531	24	diastole	19	A	599.3343285666417	coherent
545.3355	0.0837288544862531	24	diastole	20	B	500.0	coherent
545.5042	0.0837288544862531	24	diastole	21	A	599.3343285666417	coherent
545.8266	0.0837288544862531	24	diastole	22	A	599.3343285666417	coherent
545.9955	0.0837288544862531	24	diastole	23	B	500.0	coherent
546.1642	0.0837288544862531	24	diastole	24	A	599.3343285666417	coherent
546.4866	0.0837288544862531	24	diastole	25	A	599.3343285666417	coherent
546.6555	0.0837288544862531	24	diastole	26	B	500.0	coherent
546.8241	0.0837288544862531	24	diastole	27	A	599.3343285666417	coherent
547.1566	0.0837288544862531	24	diastole	28	A	599.3343285666417	coherent
547.3255	0.0837288544862531	24	diastole	29	B	500.0	coherent
547.4941	0.0837288544862531	24	diastole	30	A	599.3343285666417	coherent
547.8735	0.0837288544862531	24	diastole	31	A	599.3343285666417	coherent
548.0437	0.0837288544862531	24	diastole	32	B	500.0	coherent
548.2135	0.0837288544862531	24	diastole	33	A	599.3343285666417	coherent
548.6107	0.0837288544862531	24	diastole	34	A	599.3343285666417	coherent
548.7821	0.0837288544862531	24	diastole	35	B	500.0	coherent
548.9532	0.0837288544862531	24	diastole	36	A	599.3343285666417	coherent
549.3077	0.0837288544862531	24	diastole	37	A	599.3343285666417	coherent
549.4803	0.0837288544862531	24	diastole	38	B	500.0	coherent
549.6527	0.0837288544862531	24	diastole	39	A	599.3343285666417	coherent
551.8804	0.0856478253263048	25	systole	1	A	4999.999999999997	streaming
552.0553	0.0856478253263048	25	systole	2	B	500.0	streaming
552.2299	0.0856478253263048	25	systole	3	A	4999.999999999997	streaming
552.5885	0.0856478253263048	25	systole	4	A	4999.999999999997	streaming
552.7633	0.0856478253263048	25	systole	5	B	500.0	streaming
552.938	0.0856478253263048	25	systole	6	A	4999.999999999997	streaming
553.3377	0.0856478253263048	25	systole	7	A	4999.999999999997	streaming
553.5151	0.0856478253263048	25	systole	8	B	500.0	streaming
553.6922	0.0856478253263048	25	systole	9	A	4999.999999999997	streaming
554.0725	0.0856478253263048	25	systole	10	A	4999.999999999997	streaming
554.2511	0.0856478253263048	25	systole	11	B	500.0	streaming
554.4294	0.0856478253263048	25	systole	12	A	4999.999999999997	streaming
554.7389	0.0856478253263048	25	systole	13	A	4999.999999999997	streaming
554.9137	0.0856478253263048	25	systole	14	B	500.0	streaming
555.0884	0.0856478253263048	25	systole	15	A	4999.999999999997	streaming
555.4189	0.0856478253263048	25	systole	16	A	4999.999999999997	streaming
555.5937	0.0856478253263048	25	systole	17	B	500.0	streaming
555.7684	0.0856478253263048	25	systole	18	A	4999.999999999997	streaming
556.1089	0.0856478253263048	25	systole	19	A	4999.999999999997	streaming
556.2838	0.0856478253263048	25	systole	20	B	500.0	streaming
556.4585	0.0856478253263048	25	systole	21	A	4999.999999999997	streaming
556.799	0.0856478253263048	25	systole	22	A	4999.999999999997	streaming
556.9738	0.0856478253263048	25	systole	23	B	500.0	streaming
557.1485	0.0856478253263048	25	systole	24	A	4999.999999999997	streaming
557.4317	0.0856478253263048	25	systole	25	A	4999.999999999997	streaming
557.6018	0.0856478253263048	25	systole	26	B	500.0	streaming
557.7718	0.0856478253263048	25	systole	27	A	4999.999999999997	streaming
558.0816	0.0856478253263048	25	systole	28	A	4999.999999999997	streaming
558.2518	0.0856478253263048	25	systole	29	B	500.0	streaming
558.4217	0.0856478253263048	25	systole	30	A	4999.999999999997	streaming
558.7415	0.0856478253263048	25	systole	31	A	4999.999999999997	streaming
558.9116	0.0856478253263048	25	systole	32	B	500.0	streaming
559.0815	0.0856478253263048	25	systole	33	A	4999.999999999997	streaming
559.4111	0.0856478253263048	25	systole	34	A	4999.999999999997	streaming
559.5812	0.0856478253263048	25	systole	35	B	500.0	streaming
559.7511	0.0856478253263048	25	systole	36	A	4999.999999999997	streaming
560.0915	0.0856478253263048	25	systole	37	A	4999.999999999997	streaming
560.2616	0.0856478253263048	25	systole	38	B	500.0	streaming
560.4315	0.0856478253263048	25	systole	39	A	4999.999999999997	streaming
560.7564	0.0856478253263048	25	systole	40	A	4999.999999999997	streaming
560.9253	0.0856478253263048	25	systole	41	B	500.0	streaming
561.0939	0.0856478253263048	25	systole	42	A	4999.999999999997	streaming
561.3915	0.0856478253263048	25	systole	43	A	4999.999999999997	streaming
561.5591	0.0856478253263048	25	systole	44	B	500.0	streaming
561.7264	0.0856478253263048	25	systole	45	A	4999.999999999997	streaming
564.0929	0.0836273915483616	26	systole	1	A	585.6727451368844	coherent
564.2603	0.0836273915483616	26	systole	2	B	500.0	coherent
564.4274	0.0836273915483616	26	systole	3	A	585.6727451368844	coherent
564.7389	0.0836273915483616	26	systole	4	A	585.6727451368844	coherent
564.9051	0.0836273915483616	26	systole	5	B	500.0	coherent
565.071	0.0836273915483616	26	systole	6	A	585.6727451368844	coherent
565.3893	0.0836273915483616	26	systole	7	A	585.6727451368844	coherent
565.5554	0.0836273915483616	26	systole	8	B	500.0	coherent
565.7214	0.0836273915483616	26	systole	9	A	585.6727451368844	coherent
565.9953	0.0836273915483616	26	systole	10	A	585.6727451368844	coherent
566.1603	0.0836273915483616	26	systole	11	B	500.0	coherent
566.3252	0.0836273915483616	26	systole	12	A	585.6727451368844	coherent
566.6209	0.0836273915483616	26	systole	13	A	585.6727451368844	coherent
566.7847	0.0836273915483616	26	systole	14	B	500.0	coherent
566.9484	0.0836273915483616	26	systole	15	A	585.6727451368844	coherent
567.2509	0.0836273915483616	26	systole	16	A	585.6727451368844	coherent
567.4147	0.0836273915483616	26	systole	17	B	500.0	coherent
567.5784	0.0836273915483616	26	systole	18	A	585.6727451368844	coherent
567.9009	0.0836273915483616	26	systole	19	A	585.6727451368844	coherent
568.0647	0.0836273915483616	26	systole	20	B	500.0	coherent
568.2284	0.0836273915483616	26	systole	21	A	585.6727451368844	coherent
568.5508	0.0836273915483616	26	systole	22	A	585.6727451368844	coherent
568.7147	0.0836273915483616	26	systole	23	B	500.0	coherent
568.8783	0.0836273915483616	26	systole	24	A	585.6727451368844	coherent
569.3007	0.0836273915483616	26	systole	25	A	585.6727451368844	coherent
569.4646	0.0836273915483616	26	systole	26	B	500.0	coherent
569.6283	0.0836273915483616	26	systole	27	A	585.6727451368844	coherent
570.1008	0.0836273915483616	26	systole	28	A	585.6727451368844	coherent
570.2646	0.0836273915483616	26	systole	29	B	500.0	coherent
570.4283	0.0836273915483616	26	systole	30	A	585.6727451368844	coherent
570.8587	0.0836273915483616	26	systole	31	A	585.6727451368844	coherent
571.0226	0.0836273915483616	26	systole	32	B	500.0	coherent
571.1862	0.0836273915483616	26	systole	33	A	585.6727451368844	coherent
571.6901	0.0836273915483616	26	systole	34	A	585.6727451368844	coherent
571.8653	0.0836273915483616	26	systole	35	B	500.0	coherent
572.0402	0.0836273915483616	26	systole	36	A	585.6727451368844	coherent
572.5094	0.0836273915483616	26	systole	37	A	585.6727451368844	coherent
572.698	0.0836273915483616	26	systole	38	B	500.0	coherent
572.8864	0.0836273915483616	26	systole	39	A	585.6727451368844	coherent
573.2795	0.0836273915483616	26	systole	40	A	585.6727451368844	coherent
573.4681	0.0836273915483616	26	systole	41	B	500.0	coherent
573.6564	0.0836273915483616	26	systole	42	A	585.6727451368844	coherent
575.501	0.0942737248260527	27	systole	1	A	4999.999999999997	streaming
575.6896	0.0942737248260527	27	systole	2	B	500.0	streaming
575.8781	0.0942737248260527	27	systole	3	A	4999.999999999997	streaming
576.181	0.0942737248260527	27	systole	4	A	4999.999999999997	streaming
576.3696	0.0942737248260527	27	systole	5	B	500.0	streaming
576.558	0.0942737248260527	27	systole	6	A	4999.999999999997	streaming
576.7805	0.0942737248260527	27	systole	7	A	4999.999999999997	streaming
576.9555	0.0942737248260527	27	systole	8	B	500.0	streaming
577.1303	0.0942737248260527	27	systole	9	A	4999.999999999997	streaming
577.4021	0.0942737248260527	27	systole	10	A	4999.999999999997	streaming
577.5747	0.0942737248260527	27	systole	11	B	500.0	streaming
577.7471	0.0942737248260527	27	systole	12	A	4999.999999999997	streaming
578.0431	0.0942737248260527	27	systole	13	A	4999.999999999997	streaming
578.2133	0.0942737248260527	27	systole	14	B	500.0	streaming
578.3832	0.0942737248260527	27	systole	15	A	4999.999999999997	streaming
578.6931	0.0942737248260527	27	systole	16	A	4999.999999999997	streaming
578.8632	0.0942737248260527	27	systole	17	B	500.0	streaming
579.0332	0.0942737248260527	27	systole	18	A	4999.999999999997	streaming
579.3385	0.0942737248260527	27	systole	19	A	4999.999999999997	streaming
579.5074	0.0942737248260527	27	systole	20	B	500.0	streaming
579.6761	0.0942737248260527	27	systole	21	A	4999.999999999997	streaming
579.9747	0.0942737248260527	27	systole	22	A	4999.999999999997	streaming
580.1399	0.0942737248260527	27	systole	23	B	500.0	streaming
580.3049	0.0942737248260527	27	systole	24	A	4999.999999999997	streaming
580.6247	0.0942737248260527	27	systole	25	A	4999.999999999997	streaming
580.7899	0.0942737248260527	27	systole	26	B	500.0	streaming
580.9548	0.0942737248260527	27	systole	27	A	4999.999999999997	streaming
581.3248	0.0942737248260527	27	systole	28	A	4999.999999999997	streaming
581.4899	0.0942737248260527	27	systole	29	B	500.0	streaming
581.6549	0.0942737248260527	27	systole	30	A	4999.999999999997	streaming
582.0592	0.0942737248260527	27	systole	31	A	4999.999999999997	streaming
582.2255	0.0942737248260527	27	systole	32	B	500.0	streaming
582.3916	0.0942737248260527	27	systole	33	A	4999.999999999997	streaming
582.8089	0.0942737248260527	27	systole	34	A	4999.999999999997	streaming
582.9753	0.0942737248260527	27	systole	35	B	500.0	streaming
583.1414	0.0942737248260527	27	systole	36	A	4999.999999999997	streaming
583.5091	0.0942737248260527	27	systole	37	A	4999.999999999997	streaming
583.6755	0.0942737248260527	27	systole	38	B	500.0	streaming
583.8417	0.0942737248260527	27	systole	39	A	4999.999999999997	streaming
584.1743	0.0942737248260527	27	systole	40	A	4999.999999999997	streaming
584.3394	0.0942737248260527	27	systole	41	B	500.0	streaming
584.5043	0.0942737248260527	27	systole	42	A	4999.999999999997	streaming
584.868	0.0942737248260527	27	systole	43	A	4999.999999999997	streaming
585.0369	0.0942737248260527	27	systole	44	B	500.0	streaming
585.2055	0.0942737248260527	27	systole	45	A	4999.999999999997	streaming
587.6977	0.0856271318916697	28	systole	1	A	599.3343285666417	coherent
587.8691	0.0856271318916697	28	systole	2	B	500.0	coherent
588.0402	0.0856271318916697	28	systole	3	A	599.3343285666417	coherent
588.4177	0.0856271318916697	28	systole	4	A	599.3343285666417	coherent
588.5891	0.0856271318916697	28	systole	5	B	500.0	coherent
588.7602	0.0856271318916697	28	systole	6	A	599.3343285666417	coherent
589.0831	0.0856271318916697	28	systole	7	A	599.3343285666417	coherent
589.2532	0.0856271318916697	28	systole	8	B	500.0	coherent
589.4231	0.0856271318916697	28	systole	9	A	599.3343285666417	coherent
589.7777	0.0856271318916697	28	systole	10	A	599.3343285666417	coherent
589.9491	0.0856271318916697	28	systole	11	B	500.0	coherent
590.1202	0.0856271318916697	28	systole	12	A	599.3343285666417	coherent
590.4823	0.0856271318916697	28	systole	13	A	599.3343285666417	coherent
590.655	0.0856271318916697	28	systole	14	B	500.0	coherent
590.8273	0.0856271318916697	28	systole	15	A	599.3343285666417	coherent
591.1969	0.0856271318916697	28	systole	16	A	599.3343285666417	coherent
591.3708	0.0856271318916697	28	systole	17	B	500.0	coherent
591.5444	0.0856271318916697	28	systole	18	A	599.3343285666417	coherent
591.9069	0.0856271318916697	28	systole	19	A	599.3343285666417	coherent
592.0808	0.0856271318916697	28	systole	20	B	500.0	coherent
592.2544	0.0856271318916697	28	systole	21	A	599.3343285666417	coherent
592.5869	0.0856271318916697	28	systole	22	A	599.3343285666417	coherent
592.7608	0.0856271318916697	28	systole	23	B	500.0	coherent
592.9344	0.0856271318916697	28	systole	24	A	599.3343285666417	coherent
593.2569	0.0856271318916697	28	systole	25	A	599.3343285666417	coherent
593.4308	0.0856271318916697	28	systole	26	B	500.0	coherent
593.6044	0.0856271318916697	28	systole	27	A	599.3343285666417	coherent
594.0014	0.0856271318916697	28	systole	28	A	599.3343285666417	coherent
594.1766	0.0856271318916697	28	systole	29	B	500.0	coherent
594.3514	0.0856271318916697	28	systole	30	A	599.3343285666417	coherent
594.7414	0.0856271318916697	28	systole	31	A	599.3343285666417	coherent
594.9165	0.0856271318916697	28	systole	32	B	500.0	coherent
595.0914	0.0856271318916697	28	systole	33	A	599.3343285666417	coherent
595.4714	0.0856271318916697	28	systole	34	A	599.3343285666417	coherent
595.6465	0.0856271318916697	28	systole	35	B	500.0	coherent
595.8214	0.0856271318916697	28	systole	36	A	599.3343285666417	coherent
596.2014	0.0856271318916697	28	systole	37	A	599.3343285666417	coherent
596.3765	0.0856271318916697	28	systole	38	B	500.0	coherent
596.5514	0.0856271318916697	28	systole	39	A	599.3343285666417	coherent
596.9314	0.0856271318916697	28	systole	40	A	599.3343285666417	coherent
597.1065	0.0856271318916697	28	systole	41	B	500.0	coherent
597.2814	0.0856271318916697	28	systole	42	A	599.3343285666417	coherent
601.4483	0.0881301796180196	29	diastole	1	A	627.6209518715393	coherent
601.6247	0.0881301796180196	29	diastole	2	B	500.0	coherent
601.8008	0.0881301796180196	29	diastole	3	A	627.6209518715393	coherent
602.2079	0.0881301796180196	29	diastole	4	A	627.6209518715393	coherent
602.3843	0.0881301796180196	29	diastole	5	B	500.0	coherent
602.5604	0.0881301796180196	29	diastole	6	A	627.6209518715393	coherent
602.8912	0.0881301796180196	29	diastole	7	A	627.6209518715393	coherent
603.0664	0.0881301796180196	29	diastole	8	B	500.0	coherent
603.2412	0.0881301796180196	29	diastole	9	A	627.6209518715393	coherent
603.5816	0.0881301796180196	29	diastole	10	A	627.6209518715393	coherent
603.7568	0.0881301796180196	29	diastole	11	B	500.0	coherent
603.9316	0.0881301796180196	29	diastole	12	A	627.6209518715393	coherent
604.2548	0.0881301796180196	29	diastole	13	A	627.6209518715393	coherent
604.4288	0.0881301796180196	29	diastole	14	B	500.0	coherent
604.6024	0.0881301796180196	29	diastole	15	A	627.6209518715393	coherent
604.9348	0.0881301796180196	29	diastole	16	A	627.6209518715393	coherent
605.1088	0.0881301796180196	29	diastole	17	B	500.0	coherent
605.2824	0.0881301796180196	29	diastole	18	A	627.6209518715393	coherent
605.6148	0.0881301796180196	29	diastole	19	A	627.6209518715393	coherent
605.7888	0.0881301796180196	29	diastole	20	B	500.0	coherent
605.9624	0.0881301796180196	29	diastole	21	A	627.6209518715393	coherent
606.3377	0.0881301796180196	29	diastole	22	A	627.6209518715393	coherent
606.5104	0.0881301796180196	29	diastole	23	B	500.0	coherent
606.6828	0.0881301796180196	29	diastole	24	A	627.6209518715393	coherent
607.0677	0.0881301796180196	29	diastole	25	A	627.6209518715393	coherent
607.2404	0.0881301796180196	29	diastole	26	B	500.0	coherent
607.4128	0.0881301796180196	29	diastole	27	A	627.6209518715393	coherent
607.7477	0.0881301796180196	29	diastole	28	A	627.6209518715393	coherent
607.9204	0.0881301796180196	29	diastole	29	B	500.0	coherent
608.0928	0.0881301796180196	29	diastole	30	A	627.6209518715393	coherent
608.4648	0.0881301796180196	29	diastole	31	A	627.6209518715393	coherent
608.6388	0.0881301796180196	29	diastole	32	B	500.0	coherent
608.8124	0.0881301796180196	29	diastole	33	A	627.6209518715393	coherent
609.1748	0.0881301796180196	29	diastole	34	A	627.6209518715393	coherent
609.3488	0.0881301796180196	29	diastole	35	B	500.0	coherent
609.5224	0.0881301796180196	29	diastole	36	A	627.6209518715393	coherent
609.9419	0.0881301796180196	29	diastole	37	A	627.6209518715393	coherent
610.1171	0.0881301796180196	29	diastole	38	B	500.0	coherent
610.292	0.0881301796180196	29	diastole	39	A	627.6209518715393	coherent
613.4297	0.0893499435333069	30	diastole	1	A	657.2426114322549	coherent
613.6099	0.0893499435333069	30	diastole	2	B	500.0	coherent
613.7897	0.0893499435333069	30	diastole	3	A	657.2426114322549	coherent
614.16	0.0893499435333069	30	diastole	4	A	657.2426114322549	coherent
614.3402	0.0893499435333069	30	diastole	5	B	500.0	coherent
614.5199	0.0893499435333069	30	diastole	6	A	657.2426114322549	coherent
614.8798	0.0893499435333069	30	diastole	7	A	657.2426114322549	coherent
615.0599	0.0893499435333069	30	diastole	8	B	500.0	coherent
615.2397	0.0893499435333069	30	diastole	9	A	657.2426114322549	coherent
615.5386	0.0893499435333069	30	diastole	10	A	657.2426114322549	coherent
615.7149	0.0893499435333069	30	diastole	11	B	500.0	coherent
615.891	0.0893499435333069	30	diastole	12	A	657.2426114322549	coherent
616.2185	0.0893499435333069	30	diastole	13	A	657.2426114322549	coherent
616.3949	0.0893499435333069	30	diastole	14	B	500.0	coherent
616.5709	0.0893499435333069	30	diastole	15	A	657.2426114322549	coherent
616.8876	0.0893499435333069	30	diastole	16	A	657.2426114322549	coherent
617.0603	0.0893499435333069	30	diastole	17	B	500.0	coherent
617.2326	0.0893499435333069	30	diastole	18	A	657.2426114322549	coherent
617.5776	0.0893499435333069	30	diastole	19	A	657.2426114322549	coherent
617.7503	0.0893499435333069	30	diastole	20	B	500.0	coherent
617.9226	0.0893499435333069	30	diastole	21	A	657.2426114322549	coherent
618.2305	0.0893499435333069	30	diastole	22	A	657.2426114322549	coherent
618.402	0.0893499435333069	30	diastole	23	B	500.0	coherent
618.573	0.0893499435333069	30	diastole	24	A	657.2426114322549	coherent
618.8905	0.0893499435333069	30	diastole	25	A	657.2426114322549	coherent
619.062	0.0893499435333069	30	diastole	26	B	500.0	coherent
619.233	0.0893499435333069	30	diastole	27	A	657.2426114322549	coherent
619.5875	0.0893499435333069	30	diastole	28	A	657.2426114322549	coherent
619.7602	0.0893499435333069	30	diastole	29	B	500.0	coherent
619.9325	0.0893499435333069	30	diastole	30	A	657.2426114322549	coherent
620.3375	0.0893499435333069	30	diastole	31	A	657.2426114322549	coherent
620.5102	0.0893499435333069	30	diastole	32	B	500.0	coherent
620.6825	0.0893499435333069	30	diastole	33	A	657.2426114322549	coherent
621.0874	0.0893499435333069	30	diastole	34	A	657.2426114322549	coherent
621.2601	0.0893499435333069	30	diastole	35	B	500.0	coherent
621.4324	0.0893499435333069	30	diastole	36	A	657.2426114322549	coherent
621.7874	0.0893499435333069	30	diastole	37	A	657.2426114322549	coherent
621.9601	0.0893499435333069	30	diastole	38	B	500.0	coherent
622.1324	0.0893499435333069	30	diastole	39	A	657.2426114322549	coherent
624.4672	0.08625569997821	31	diastole	1	A	1731.0897269735058	streaming
624.64	0.08625569997821	31	diastole	2	B	500.0	streaming
624.8123	0.08625569997821	31	diastole	3	A	1731.0897269735058	streaming
625.1272	0.08625569997821	31	diastole	4	A	1731.0897269735058	streaming
625.3	0.08625569997821	31	diastole	5	B	500.0	streaming
625.4723	0.08625569997821	31	diastole	6	A	1731.0897269735058	streaming
625.7972	0.08625569997821	31	diastole	7	A	1731.0897269735058	streaming
625.97	0.08625569997821	31	diastole	8	B	500.0	streaming
626.1423	0.08625569997821	31	diastole	9	A	1731.0897269735058	streaming
626.4601	0.08625569997821	31	diastole	10	A	1731.0897269735058	streaming
626.6316	0.08625569997821	31	diastole	11	B	500.0	streaming
626.8026	0.08625569997821	31	diastole	12	A	1731.0897269735058	streaming
627.096	0.08625569997821	31	diastole	13	A	1731.0897269735058	streaming
627.2649	0.08625569997821	31	diastole	14	B	500.0	streaming
627.4335	0.08625569997821	31	diastole	15	A	1731.0897269735058	streaming
627.746	0.08625569997821	31	diastole	16	A	1731.0897269735058	streaming
627.9149	0.08625569997821	31	diastole	17	B	500.0	streaming
628.0835	0.08625569997821	31	diastole	18	A	1731.0897269735058	streaming
628.3989	0.08625569997821	31	diastole	19	A	1731.0897269735058	streaming
628.5666	0.08625569997821	31	diastole	20	B	500.0	streaming
628.7339	0.08625569997821	31	diastole	21	A	1731.0897269735058	streaming
629.0589	0.08625569997821	31	diastole	22	A	1731.0897269735058	streaming
629.2266	0.08625569997821	31	diastole	23	B	500.0	streaming
629.3939	0.08625569997821	31	diastole	24	A	1731.0897269735058	streaming
629.7589	0.08625569997821	31	diastole	25	A	1731.0897269735058	streaming
629.9266	0.08625569997821	31	diastole	26	B	500.0	streaming
630.0939	0.08625569997821	31	diastole	27	A	1731.0897269735058	streaming
630.4588	0.08625569997821	31	diastole	28	A	1731.0897269735058	streaming
630.6266	0.08625569997821	31	diastole	29	B	500.0	streaming
630.7938	0.08625569997821	31	diastole	30	A	1731.0897269735058	streaming
631.1188	0.08625569997821	31	diastole	31	A	1731.0897269735058	streaming
631.2865	0.08625569997821	31	diastole	32	B	500.0	streaming
631.4538	0.08625569997821	31	diastole	33	A	1731.0897269735058	streaming
631.7787	0.08625569997821	31	diastole	34	A	1731.0897269735058	streaming
631.9465	0.08625569997821	31	diastole	35	B	500.0	streaming
632.1137	0.08625569997821	31	diastole	36	A	1731.0897269735058	streaming
632.53	0.08625569997821	31	diastole	37	A	1731.0897269735058	streaming
632.7015	0.08625569997821	31	diastole	38	B	500.0	streaming
632.8725	0.08625569997821	31	diastole	39	A	1731.0897269735058	streaming
633.26	0.08625569997821	31	diastole	40	A	1731.0897269735058	streaming
633.4315	0.08625569997821	31	diastole	41	B	500.0	streaming
633.6025	0.08625569997821	31	diastole	42	A	1731.0897269735058	streaming
636.73	0.0843745355668943	32	diastole	1	A	754.7629107028698	coherent
636.9015	0.0843745355668943	32	diastole	2	B	500.0	coherent
637.0725	0.0843745355668943	32	diastole	3	A	754.7629107028698	coherent
637.4502	0.0843745355668943	32	diastole	4	A	754.7629107028698	coherent
637.6216	0.0843745355668943	32	diastole	5	B	500.0	coherent
637.7927	0.0843745355668943	32	diastole	6	A	754.7629107028698	coherent
638.1703	0.0843745355668943	32	diastole	7	A	754.7629107028698	coherent
638.3418	0.0843745355668943	32	diastole	8	B	500.0	coherent
638.5128	0.0843745355668943	32	diastole	9	A	754.7629107028698	coherent
638.8432	0.0843745355668943	32	diastole	10	A	754.7629107028698	coherent
639.0135	0.0843745355668943	32	diastole	11	B	500.0	coherent
639.1832	0.0843745355668943	32	diastole	12	A	754.7629107028698	coherent
639.5233	0.0843745355668943	32	diastole	13	A	754.7629107028698	coherent
639.6935	0.0843745355668943	32	diastole	14	B	500.0	coherent
639.8633	0.0843745355668943	32	diastole	15	A	754.7629107028698	coherent
640.2033	0.0843745355668943	32	diastole	16	A	754.7629107028698	coherent
640.3735	0.0843745355668943	32	diastole	17	B	500.0	coherent
640.5433	0.0843745355668943	32	diastole	18	A	754.7629107028698	coherent
640.8731	0.0843745355668943	32	diastole	19	A	754.7629107028698	coherent
641.0434	0.0843745355668943	32	diastole	20	B	500.0	coherent
641.2131	0.0843745355668943	32	diastole	21	A	754.7629107028698	coherent
641.5703	0.0843745355668943	32	diastole	22	A	754.7629107028698	coherent
641.7417	0.0843745355668943	32	diastole	23	B	500.0	coherent
641.9128	0.0843745355668943	32	diastole	24	A	754.7629107028698	coherent
642.2973	0.0843745355668943	32	diastole	25	A	754.7629107028698	coherent
642.4701	0.0843745355668943	32	diastole	26	B	500.0	coherent
642.6423	0.0843745355668943	32	diastole	27	A	754.7629107028698	coherent
643.0073	0.0843745355668943	32	diastole	28	A	754.7629107028698	coherent
643.1801	0.0843745355668943	32	diastole	29	B	500.0	coherent
643.3524	0.0843745355668943	32	diastole	30	A	754.7629107028698	coherent
643.7916	0.0843745355668943	32	diastole	31	A	754.7629107028698	coherent
643.9668	0.0843745355668943	32	diastole	32	B	500.0	coherent
644.1416	0.0843745355668943	32	diastole	33	A	754.7629107028698	coherent
644.5616	0.0843745355668943	32	diastole	34	A	754.7629107028698	coherent
644.7368	0.0843745355668943	32	diastole	35	B	500.0	coherent
644.9116	0.0843745355668943	32	diastole	36	A	754.7629107028698	coherent
645.3616	0.0843745355668943	32	diastole	37	A	754.7629107028698	coherent
645.5368	0.0843745355668943	32	diastole	38	B	500.0	coherent
645.7116	0.0843745355668943	32	diastole	39	A	754.7629107028698	coherent
646.0687	0.0843745355668943	32	diastole	40	A	754.7629107028698	coherent
646.2452	0.0843745355668943	32	diastole	41	B	500.0	coherent
646.4212	0.0843745355668943	32	diastole	42	A	754.7629107028698	coherent
648.5007	0.0893762624764349	33	systole	1	A	4886.027023828005	streaming
648.6783	0.0893762624764349	33	systole	2	B	500.0	streaming
648.8557	0.0893762624764349	33	systole	3	A	4886.027023828005	streaming
649.1807	0.0893762624764349	33	systole	4	A	4886.027023828005	streaming
649.3583	0.0893762624764349	33	systole	5	B	500.0	streaming
649.5357	0.0893762624764349	33	systole	6	A	4886.027023828005	streaming
649.8907	0.0893762624764349	33	systole	7	A	4886.027023828005	streaming
650.0683	0.0893762624764349	33	systole	8	B	500.0	streaming
650.2457	0.0893762624764349	33	systole	9	A	4886.027023828005	streaming
650.6007	0.0893762624764349	33	systole	10	A	4886.027023828005	streaming
650.7783	0.0893762624764349	33	systole	11	B	500.0	streaming
650.9558	0.0893762624764349	33	systole	12	A	4886.027023828005	streaming
651.3108	0.0893762624764349	33	systole	13	A	4886.027023828005	streaming
651.4884	0.0893762624764349	33	systole	14	B	500.0	streaming
651.6658	0.0893762624764349	33	systole	15	A	4886.027023828005	streaming
652.0008	0.0893762624764349	33	systole	16	A	4886.027023828005	streaming
652.1784	0.0893762624764349	33	systole	17	B	500.0	streaming
652.3558	0.0893762624764349	33	systole	18	A	4886.027023828005	streaming
652.6562	0.0893762624764349	33	systole	19	A	4886.027023828005	streaming
652.8325	0.0893762624764349	33	systole	20	B	500.0	streaming
653.0087	0.0893762624764349	33	systole	21	A	4886.027023828005	streaming
653.4407	0.0893762624764349	33	systole	22	A	4886.027023828005	streaming
653.6183	0.0893762624764349	33	systole	23	B	500.0	streaming
653.7957	0.0893762624764349	33	systole	24	A	4886.027023828005	streaming
654.3508	0.0893762624764349	33	systole	25	A	4886.027023828005	streaming
654.5284	0.0893762624764349	33	systole	26	B	500.0	streaming
654.7058	0.0893762624764349	33	systole	27	A	4886.027023828005	streaming
655.2308	0.0893762624764349	33	systole	28	A	4886.027023828005	streaming
655.4084	0.0893762624764349	33	systole	29	B	500.0	streaming
655.5858	0.0893762624764349	33	systole	30	A	4886.027023828005	streaming
655.9808	0.0893762624764349	33	systole	31	A	4886.027023828005	streaming
656.1584	0.0893762624764349	33	systole	32	B	500.0	streaming
656.3358	0.0893762624764349	33	systole	33	A	4886.027023828005	streaming
656.7309	0.0893762624764349	33	systole	34	A	4886.027023828005	streaming
656.9085	0.0893762624764349	33	systole	35	B	500.0	streaming
657.0859	0.0893762624764349	33	systole	36	A	4886.027023828005	streaming
657.4406	0.0893762624764349	33	systole	37	A	4886.027023828005	streaming
657.6182	0.0893762624764349	33	systole	38	B	500.0	streaming
657.7956	0.0893762624764349	33	systole	39	A	4886.027023828005	streaming
660.1705	0.0887574121297802	34	systole	1	A	627.6209518715393	coherent
660.3482	0.0887574121297802	34	systole	2	B	500.0	coherent
660.5255	0.0887574121297802	34	systole	3	A	627.6209518715393	coherent
660.9005	0.0887574121297802	34	systole	4	A	627.6209518715393	coherent
661.0782	0.0887574121297802	34	systole	5	B	500.0	coherent
661.2555	0.0887574121297802	34	systole	6	A	627.6209518715393	coherent
661.6405	0.0887574121297802	34	systole	7	A	627.6209518715393	coherent
661.8181	0.0887574121297802	34	systole	8	B	500.0	coherent
661.9955	0.0887574121297802	34	systole	9	A	627.6209518715393	coherent
662.3805	0.0887574121297802	34	systole	10	A	627.6209518715393	coherent
662.5581	0.0887574121297802	34	systole	11	B	500.0	coherent
662.7355	0.0887574121297802	34	systole	12	A	627.6209518715393	coherent
663.1898	0.0887574121297802	34	systole	13	A	627.6209518715393	coherent
663.37	0.0887574121297802	34	systole	14	B	500.0	coherent
663.5498	0.0887574121297802	34	systole	15	A	627.6209518715393	coherent
664.0234	0.0887574121297802	34	systole	16	A	627.6209518715393	coherent
664.2073	0.0887574121297802	34	systole	17	B	500.0	coherent
664.3908	0.0887574121297802	34	systole	18	A	627.6209518715393	coherent
664.7437	0.0887574121297802	34	systole	19	A	627.6209518715393	coherent
664.9276	0.0887574121297802	34	systole	20	B	500.0	coherent
665.1112	0.0887574121297802	34	systole	21	A	627.6209518715393	coherent
665.4536	0.0887574121297802	34	systole	22	A	627.6209518715393	coherent
665.6375	0.0887574121297802	34	systole	23	B	500.0	coherent
665.8211	0.0887574121297802	34	systole	24	A	627.6209518715393	coherent
666.1736	0.0887574121297802	34	systole	25	A	627.6209518715393	coherent
666.3575	0.0887574121297802	34	systole	26	B	500.0	coherent
666.5411	0.0887574121297802	34	systole	27	A	627.6209518715393	coherent
666.9036	0.0887574121297802	34	systole	28	A	627.6209518715393	coherent
