onset	duration	trial_num	trial_type	tone_num	tone_type	frequency	response
71.89370000000008	0.0824925405322574	1	diastole	1	B	500	diastole
72.75870000000009	0.0824925405322574	1	diastole	2	B	500	diastole
73.59870000000001	0.0824925405322574	1	diastole	3	B	500	diastole
74.58210000000008	0.0824925405322574	1	diastole	4	B	500	diastole
75.45039999999995	0.0824925405322574	1	diastole	5	B	500	diastole
76.31040000000007	0.0824925405322574	1	diastole	6	B	500	diastole
77.17049999999995	0.0824925405322574	1	diastole	7	B	500	diastole
78.03050000000007	0.0824925405322574	1	diastole	8	B	500	diastole
78.8587	0.0824925405322574	1	diastole	9	B	500	diastole
79.62869999999998	0.0824925405322574	1	diastole	10	B	500	diastole
80.37049999999999	0.0824925405322574	1	diastole	11	B	500	diastole
81.09390000000008	0.0824925405322574	1	diastole	12	B	500	diastole
87.02209999999991	0.0849921625340357	2	systole	1	B	500	systole
87.7820999999999	0.0849921625340357	2	systole	2	B	500	systole
88.47209999999995	0.0849921625340357	2	systole	3	B	500	systole
89.18209999999999	0.0849921625340357	2	systole	4	B	500	systole
89.90969999999993	0.0849921625340357	2	systole	5	B	500	systole
90.64149999999995	0.0849921625340357	2	systole	6	B	500	systole
91.33719999999994	0.0849921625340357	2	systole	7	B	500	systole
92.0272	0.0849921625340357	2	systole	8	B	500	systole
92.71720000000005	0.0849921625340357	2	systole	9	B	500	systole
93.4072000000001	0.0849921625340357	2	systole	10	B	500	systole
94.08549999999991	0.0849921625340357	2	systole	11	B	500	systole
94.75389999999993	0.0849921625340357	2	systole	12	B	500	systole
95.44380000000001	0.0849921625340357	2	systole	13	B	500	systole
96.12380000000007	0.0849921625340357	2	systole	14	B	500	systole
99.89460000000008	0.0837482147617265	3	systole	1	B	500	systole
100.48299999999995	0.0837482147617265	3	systole	2	B	500	systole
101.08300000000008	0.0837482147617265	3	systole	3	B	500	systole
101.68139999999994	0.0837482147617265	3	systole	4	B	500	systole
102.28960000000006	0.0837482147617265	3	systole	5	B	500	systole
102.91390000000001	0.0837482147617265	3	systole	6	B	500	systole
103.60390000000007	0.0837482147617265	3	systole	7	B	500	systole
104.2940000000001	0.0837482147617265	3	systole	8	B	500	systole
104.98579999999993	0.0837482147617265	3	systole	9	B	500	systole
105.6760999999999	0.0837482147617265	3	systole	10	B	500	systole
106.33830000000012	0.0837482147617265	3	systole	11	B	500	systole
106.98880000000008	0.0837482147617265	3	systole	12	B	500	systole
107.62869999999998	0.0837482147617265	3	systole	13	B	500	systole
108.2686000000001	0.0837482147617265	3	systole	14	B	500	systole
108.9085	0.0837482147617265	3	systole	15	B	500	systole
114.62349999999992	0.0768687124364078	4	diastole	1	B	500	systole
115.24350000000004	0.0768687124364078	4	diastole	2	B	500	systole
115.86349999999993	0.0768687124364078	4	diastole	3	B	500	systole
116.51369999999997	0.0768687124364078	4	diastole	4	B	500	systole
117.18370000000004	0.0768687124364078	4	diastole	5	B	500	systole
117.91360000000009	0.0768687124364078	4	diastole	6	B	500	systole
118.68720000000008	0.0768687124364078	4	diastole	7	B	500	systole
119.47880000000009	0.0768687124364078	4	diastole	8	B	500	systole
120.22859999999991	0.0768687124364078	4	diastole	9	B	500	systole
120.97859999999991	0.0768687124364078	4	diastole	10	B	500	systole
121.82500000000005	0.0768687124364078	4	diastole	11	B	500	systole
122.53510000000006	0.0768687124364078	4	diastole	12	B	500	systole
123.24500000000012	0.0768687124364078	4	diastole	13	B	500	systole
123.94499999999994	0.0768687124364078	4	diastole	14	B	500	systole
126.60210000000006	0.0862531937600579	5	diastole	1	B	500	systole
127.24340000000007	0.0862531937600579	5	diastole	2	B	500	systole
127.89339999999993	0.0862531937600579	5	diastole	3	B	500	systole
128.4891	0.0862531937600579	5	diastole	4	B	500	systole
129.1090999999999	0.0862531937600579	5	diastole	5	B	500	systole
129.7186999999999	0.0862531937600579	5	diastole	6	B	500	systole
130.31359999999995	0.0862531937600579	5	diastole	7	B	500	systole
130.9333999999999	0.0862531937600579	5	diastole	8	B	500	systole
131.59320000000002	0.0862531937600579	5	diastole	9	B	500	systole
132.25299999999993	0.0862531937600579	5	diastole	10	B	500	systole
132.93329999999992	0.0862531937600579	5	diastole	11	B	500	systole
133.61529999999993	0.0862531937600579	5	diastole	12	B	500	systole
134.29690000000005	0.0862531937600579	5	diastole	13	B	500	systole
134.9914000000001	0.0862531937600579	5	diastole	14	B	500	systole
135.68139999999994	0.0862531937600579	5	diastole	15	B	500	systole
138.03160000000003	0.0838676181156188	6	systole	1	B	500	systole
138.65969999999993	0.0838676181156188	6	systole	2	B	500	systole
139.2899	0.0838676181156188	6	systole	3	B	500	systole
139.89419999999996	0.0838676181156188	6	systole	4	B	500	systole
140.4991	0.0838676181156188	6	systole	5	B	500	systole
141.08590000000004	0.0838676181156188	6	systole	6	B	500	systole
141.7041999999999	0.0838676181156188	6	systole	7	B	500	systole
142.33410000000003	0.0838676181156188	6	systole	8	B	500	systole
142.9942000000001	0.0838676181156188	6	systole	9	B	500	systole
143.6842999999999	0.0838676181156188	6	systole	10	B	500	systole
144.40429999999992	0.0838676181156188	6	systole	11	B	500	systole
145.1341	0.0838676181156188	6	systole	12	B	500	systole
145.86400000000003	0.0838676181156188	6	systole	13	B	500	systole
146.59390000000008	0.0838676181156188	6	systole	14	B	500	systole
147.3764000000001	0.0838676181156188	6	systole	15	B	500	systole
151.0888	0.0887534437060821	7	diastole	1	B	500	diastole
151.72870000000012	0.0887534437060821	7	diastole	2	B	500	diastole
152.3306	0.0887534437060821	7	diastole	3	B	500	diastole
152.95049999999992	0.0887534437060821	7	diastole	4	B	500	diastole
153.48260000000005	0.0887534437060821	7	diastole	5	B	500	diastole
154.05590000000007	0.0887534437060821	7	diastole	6	B	500	diastole
154.62869999999998	0.0887534437060821	7	diastole	7	B	500	diastole
155.19610000000011	0.0887534437060821	7	diastole	8	B	500	diastole
155.8961999999999	0.0887534437060821	7	diastole	9	B	500	diastole
156.6757	0.0887534437060821	7	diastole	10	B	500	diastole
157.4552000000001	0.0887534437060821	7	diastole	11	B	500	diastole
158.25389999999993	0.0887534437060821	7	diastole	12	B	500	diastole
159.04420000000005	0.0887534437060821	7	diastole	13	B	500	diastole
159.9407000000001	0.0887534437060821	7	diastole	14	B	500	diastole
163.3103000000001	0.0893850188003853	8	diastole	1	B	500	systole
163.9568999999999	0.0893850188003853	8	diastole	2	B	500	systole
164.6373000000001	0.0893850188003853	8	diastole	3	B	500	systole
165.31760000000008	0.0893850188003853	8	diastole	4	B	500	systole
165.97090000000003	0.0893850188003853	8	diastole	5	B	500	systole
166.64059999999995	0.0893850188003853	8	diastole	6	B	500	systole
167.3103000000001	0.0893850188003853	8	diastole	7	B	500	systole
167.95350000000008	0.0893850188003853	8	diastole	8	B	500	systole
168.60519999999997	0.0893850188003853	8	diastole	9	B	500	systole
169.26520000000005	0.0893850188003853	8	diastole	10	B	500	systole
169.91699999999992	0.0893850188003853	8	diastole	11	B	500	systole
170.57729999999992	0.0893850188003853	8	diastole	12	B	500	systole
171.28340000000003	0.0893850188003853	8	diastole	13	B	500	systole
171.98360000000002	0.0893850188003853	8	diastole	14	B	500	systole
172.69360000000006	0.0893850188003853	8	diastole	15	B	500	systole
177.84539999999993	0.0806251187459565	9	diastole	1	B	500	systole
178.49540000000002	0.0806251187459565	9	diastole	2	B	500	systole
179.13540000000012	0.0806251187459565	9	diastole	3	B	500	systole
179.78539999999998	0.0806251187459565	9	diastole	4	B	500	systole
180.43540000000007	0.0806251187459565	9	diastole	5	B	500	systole
181.1137000000001	0.0806251187459565	9	diastole	6	B	500	systole
181.86200000000008	0.0806251187459565	9	diastole	7	B	500	systole
182.61210000000005	0.0806251187459565	9	diastole	8	B	500	systole
183.36200000000008	0.0806251187459565	9	diastole	9	B	500	systole
184.1603	0.0806251187459565	9	diastole	10	B	500	systole
184.9085	0.0806251187459565	9	diastole	11	B	500	systole
185.74849999999992	0.0806251187459565	9	diastole	12	B	500	systole
186.4686999999999	0.0806251187459565	9	diastole	13	B	500	systole
190.1472000000001	0.0900050323689356	10	systole	1	B	500	systole
190.7772	0.0900050323689356	10	systole	2	B	500	systole
191.37969999999996	0.0900050323689356	10	systole	3	B	500	systole
191.9764	0.0900050323689356	10	systole	4	B	500	systole
192.5598	0.0900050323689356	10	systole	5	B	500	systole
193.1898000000001	0.0900050323689356	10	systole	6	B	500	systole
193.8040000000001	0.0900050323689356	10	systole	7	B	500	systole
194.4239	0.0900050323689356	10	systole	8	B	500	systole
195.0381	0.0900050323689356	10	systole	9	B	500	systole
195.68239999999992	0.0900050323689356	10	systole	10	B	500	systole
196.3424	0.0900050323689356	10	systole	11	B	500	systole
197.00250000000005	0.0900050323689356	10	systole	12	B	500	systole
197.69810000000007	0.0900050323689356	10	systole	13	B	500	systole
198.38799999999992	0.0900050323689356	10	systole	14	B	500	systole
199.0954999999999	0.0900050323689356	10	systole	15	B	500	systole
203.2222999999999	0.0850001875078305	11	systole	1	B	500	systole
203.90239999999994	0.0850001875078305	11	systole	2	B	500	systole
204.59230000000002	0.0850001875078305	11	systole	3	B	500	systole
205.27240000000006	0.0850001875078305	11	systole	4	B	500	systole
205.95219999999995	0.0850001875078305	11	systole	5	B	500	systole
206.6322	0.0850001875078305	11	systole	6	B	500	systole
207.31220000000008	0.0850001875078305	11	systole	7	B	500	systole
207.96209999999996	0.0850001875078305	11	systole	8	B	500	systole
208.61210000000005	0.0850001875078305	11	systole	9	B	500	systole
209.24649999999997	0.0850001875078305	11	systole	10	B	500	systole
209.9049	0.0850001875078305	11	systole	11	B	500	systole
210.60500000000002	0.0850001875078305	11	systole	12	B	500	systole
211.34480000000008	0.0850001875078305	11	systole	13	B	500	systole
212.0847000000001	0.0850001875078305	11	systole	14	B	500	systole
215.1015	0.0899779351602774	12	systole	1	B	500	systole
215.8218999999999	0.0899779351602774	12	systole	2	B	500	systole
216.54230000000007	0.0899779351602774	12	systole	3	B	500	systole
217.26279999999997	0.0899779351602774	12	systole	4	B	500	systole
217.9031	0.0899779351602774	12	systole	5	B	500	systole
218.5435	0.0899779351602774	12	systole	6	B	500	systole
219.17399999999998	0.0899779351602774	12	systole	7	B	500	systole
219.79179999999997	0.0899779351602774	12	systole	8	B	500	systole
220.47379999999998	0.0899779351602774	12	systole	9	B	500	systole
221.13660000000004	0.0899779351602774	12	systole	10	B	500	systole
221.80639999999994	0.0899779351602774	12	systole	11	B	500	systole
222.4606000000001	0.0899779351602774	12	systole	12	B	500	systole
223.12079999999992	0.0899779351602774	12	systole	13	B	500	systole
223.7808	0.0899779351602774	12	systole	14	B	500	systole
224.4407000000001	0.0899779351602774	12	systole	15	B	500	systole
227.5231000000001	0.0824956312717404	13	systole	1	B	500	diastole
228.1531	0.0824956312717404	13	systole	2	B	500	diastole
228.76890000000003	0.0824956312717404	13	systole	3	B	500	diastole
229.37130000000002	0.0824956312717404	13	systole	4	B	500	diastole
229.98970000000008	0.0824956312717404	13	systole	5	B	500	diastole
230.6196	0.0824956312717404	13	systole	6	B	500	diastole
231.34950000000003	0.0824956312717404	13	systole	7	B	500	diastole
232.07950000000005	0.0824956312717404	13	systole	8	B	500	diastole
232.81950000000006	0.0824956312717404	13	systole	9	B	500	diastole
233.55960000000005	0.0824956312717404	13	systole	10	B	500	diastole
234.30690000000004	0.0824956312717404	13	systole	11	B	500	diastole
235.03680000000008	0.0824956312717404	13	systole	12	B	500	diastole
235.7935	0.0824956312717404	13	systole	13	B	500	diastole
236.49530000000004	0.0824956312717404	13	systole	14	B	500	diastole
248.03369999999995	0.0806276437360793	14	diastole	1	B	500	diastole
248.64370000000008	0.0806276437360793	14	diastole	2	B	500	diastole
249.3119999999999	0.0806276437360793	14	diastole	3	B	500	diastole
249.9719	0.0806276437360793	14	diastole	4	B	500	diastole
250.71029999999996	0.0806276437360793	14	diastole	5	B	500	diastole
251.44029999999998	0.0806276437360793	14	diastole	6	B	500	diastole
252.15030000000002	0.0806276437360793	14	diastole	7	B	500	diastole
252.91020000000003	0.0806276437360793	14	diastole	8	B	500	diastole
253.62020000000007	0.0806276437360793	14	diastole	9	B	500	diastole
254.3819000000001	0.0806276437360793	14	diastole	10	B	500	diastole
255.11020000000008	0.0806276437360793	14	diastole	11	B	500	diastole
255.8202000000001	0.0806276437360793	14	diastole	12	B	500	diastole
256.5301999999999	0.0806276437360793	14	diastole	13	B	500	diastole
257.24019999999996	0.0806276437360793	14	diastole	14	B	500	diastole
275.55860000000007	0.097505187644856	15	systole	1	B	500	systole
276.2385999999999	0.097505187644856	15	systole	2	B	500	systole
276.91859999999997	0.097505187644856	15	systole	3	B	500	systole
277.5652	0.097505187644856	15	systole	4	B	500	systole
278.1644000000001	0.097505187644856	15	systole	5	B	500	systole
278.8044	0.097505187644856	15	systole	6	B	500	systole
279.4444000000001	0.097505187644856	15	systole	7	B	500	systole
280.0232000000001	0.097505187644856	15	systole	8	B	500	systole
280.63570000000004	0.097505187644856	15	systole	9	B	500	systole
281.2681	0.097505187644856	15	systole	10	B	500	systole
281.93820000000005	0.097505187644856	15	systole	11	B	500	systole
282.6182000000001	0.097505187644856	15	systole	12	B	500	systole
283.29819999999995	0.097505187644856	15	systole	13	B	500	systole
283.9782	0.097505187644856	15	systole	14	B	500	systole
284.6481000000001	0.097505187644856	15	systole	15	B	500	systole
285.32989999999995	0.097505187644856	15	systole	16	B	500	systole
289.30050000000006	0.0837537607585545	16	systole	1	B	500	systole
289.9204	0.0837537607585545	16	systole	2	B	500	systole
290.5304000000001	0.0837537607585545	16	systole	3	B	500	systole
291.11300000000006	0.0837537607585545	16	systole	4	B	500	systole
291.71299999999997	0.0837537607585545	16	systole	5	B	500	systole
292.2520999999999	0.0837537607585545	16	systole	6	B	500	systole
292.8321000000001	0.0837537607585545	16	systole	7	B	500	systole
293.4263000000001	0.0837537607585545	16	systole	8	B	500	systole
294.00890000000004	0.0837537607585545	16	systole	9	B	500	systole
294.60889999999995	0.0837537607585545	16	systole	10	B	500	systole
295.20900000000006	0.0837537607585545	16	systole	11	B	500	systole
295.80060000000003	0.0837537607585545	16	systole	12	B	500	systole
296.39789999999994	0.0837537607585545	16	systole	13	B	500	systole
297.00800000000004	0.0837537607585545	16	systole	14	B	500	systole
297.61799999999994	0.0837537607585545	16	systole	15	B	500	systole
298.2491	0.0837537607585545	16	systole	16	B	500	systole
301.4838	0.0775096038705669	17	diastole	1	B	500	diastole
302.2334000000001	0.0775096038705669	17	diastole	2	B	500	diastole
302.94849999999997	0.0775096038705669	17	diastole	3	B	500	diastole
303.61850000000004	0.0775096038705669	17	diastole	4	B	500	diastole
304.2885000000001	0.0775096038705669	17	diastole	5	B	500	diastole
304.93859999999995	0.0775096038705669	17	diastole	6	B	500	diastole
305.5888	0.0775096038705669	17	diastole	7	B	500	diastole
306.2487000000001	0.0775096038705669	17	diastole	8	B	500	diastole
306.90869999999995	0.0775096038705669	17	diastole	9	B	500	diastole
307.5521000000001	0.0775096038705669	17	diastole	10	B	500	diastole
308.20550000000003	0.0775096038705669	17	diastole	11	B	500	diastole
308.8955000000001	0.0775096038705669	17	diastole	12	B	500	diastole
309.6155000000001	0.0775096038705669	17	diastole	13	B	500	diastole
310.3254999999999	0.0775096038705669	17	diastole	14	B	500	diastole
313.577	0.0843789753562305	18	diastole	1	B	500	systole
314.18370000000004	0.0843789753562305	18	diastole	2	B	500	systole
314.81539999999995	0.0843789753562305	18	diastole	3	B	500	systole
315.45550000000003	0.0843789753562305	18	diastole	4	B	500	systole
316.1155000000001	0.0843789753562305	18	diastole	5	B	500	systole
316.79549999999995	0.0843789753562305	18	diastole	6	B	500	systole
317.52549999999997	0.0843789753562305	18	diastole	7	B	500	systole
318.2554	0.0843789753562305	18	diastole	8	B	500	systole
318.97219999999993	0.0843789753562305	18	diastole	9	B	500	systole
319.7388000000001	0.0843789753562305	18	diastole	10	B	500	systole
320.4387999999999	0.0843789753562305	18	diastole	11	B	500	systole
321.11879999999996	0.0843789753562305	18	diastole	12	B	500	systole
321.779	0.0843789753562305	18	diastole	13	B	500	systole
331.1029000000001	0.089383803482633	19	systole	1	B	500	diastole
331.77289999999994	0.089383803482633	19	systole	2	B	500	diastole
332.44280000000003	0.089383803482633	19	systole	3	B	500	diastole
333.1028000000001	0.089383803482633	19	systole	4	B	500	diastole
333.76289999999995	0.089383803482633	19	systole	5	B	500	diastole
334.38779999999997	0.089383803482633	19	systole	6	B	500	diastole
335.0301999999999	0.089383803482633	19	systole	7	B	500	diastole
335.6902	0.089383803482633	19	systole	8	B	500	diastole
336.3502000000001	0.089383803482633	19	systole	9	B	500	diastole
336.9887000000001	0.089383803482633	19	systole	10	B	500	diastole
337.63879999999995	0.089383803482633	19	systole	11	B	500	diastole
338.30870000000004	0.089383803482633	19	systole	12	B	500	diastole
338.9787000000001	0.089383803482633	19	systole	13	B	500	diastole
339.65869999999995	0.089383803482633	19	systole	14	B	500	diastole
340.3546000000001	0.089383803482633	19	systole	15	B	500	diastole
343.4819	0.0850006562541239	20	diastole	1	B	500	diastole
344.1322	0.0850006562541239	20	diastole	2	B	500	diastole
344.77430000000004	0.0850006562541239	20	diastole	3	B	500	diastole
345.4242999999999	0.0850006562541239	20	diastole	4	B	500	diastole
346.06770000000006	0.0850006562541239	20	diastole	5	B	500	diastole
346.7278000000001	0.0850006562541239	20	diastole	6	B	500	diastole
347.3510000000001	0.0850006562541239	20	diastole	7	B	500	diastole
347.991	0.0850006562541239	20	diastole	8	B	500	diastole
348.6228000000001	0.0850006562541239	20	diastole	9	B	500	diastole
349.2723000000001	0.0850006562541239	20	diastole	10	B	500	diastole
349.9239	0.0850006562541239	20	diastole	11	B	500	diastole
350.5754999999999	0.0850006562541239	20	diastole	12	B	500	diastole
351.22710000000006	0.0850006562541239	20	diastole	13	B	500	diastole
351.8859	0.0850006562541239	20	diastole	14	B	500	diastole
355.8318999999999	0.0812291273032315	21	diastole	1	B	500	diastole
356.49160000000006	0.0812291273032315	21	diastole	2	B	500	diastole
357.1512	0.0812291273032315	21	diastole	3	B	500	diastole
357.7916	0.0812291273032315	21	diastole	4	B	500	diastole
358.4316000000001	0.0812291273032315	21	diastole	5	B	500	diastole
359.0612000000001	0.0812291273032315	21	diastole	6	B	500	diastole
359.6908000000001	0.0812291273032315	21	diastole	7	B	500	diastole
360.3695	0.0812291273032315	21	diastole	8	B	500	diastole
361.03729999999996	0.0812291273032315	21	diastole	9	B	500	diastole
361.69720000000007	0.0812291273032315	21	diastole	10	B	500	diastole
362.3571999999999	0.0812291273032315	21	diastole	11	B	500	diastole
362.9906000000001	0.0812291273032315	21	diastole	12	B	500	diastole
363.64020000000005	0.0812291273032315	21	diastole	13	B	500	diastole
364.2802999999999	0.0812291273032315	21	diastole	14	B	500	diastole
366.8719000000001	0.0812584011582657	22	diastole	1	B	500	diastole
367.4915000000001	0.0812584011582657	22	diastole	2	B	500	diastole
368.1114	0.0812584011582657	22	diastole	3	B	500	diastole
368.7113999999999	0.0812584011582657	22	diastole	4	B	500	diastole
369.2854	0.0812584011582657	22	diastole	5	B	500	diastole
369.8653999999999	0.0812584011582657	22	diastole	6	B	500	diastole
370.4489000000001	0.0812584011582657	22	diastole	7	B	500	diastole
371.1006	0.0812584011582657	22	diastole	8	B	500	diastole
371.8101999999999	0.0812584011582657	22	diastole	9	B	500	diastole
372.53060000000005	0.0812584011582657	22	diastole	10	B	500	diastole
373.2509	0.0812584011582657	22	diastole	11	B	500	diastole
373.9706000000001	0.0812584011582657	22	diastole	12	B	500	diastole
374.7783999999999	0.0812584011582657	22	diastole	13	B	500	diastole
375.4867999999999	0.0812584011582657	22	diastole	14	B	500	diastole
376.2378000000001	0.0812584011582657	22	diastole	15	B	500	diastole
380.13249999999994	0.0850015312607865	23	diastole	1	B	500	systole
380.77240000000006	0.0850015312607865	23	diastole	2	B	500	systole
381.3752999999999	0.0850015312607865	23	diastole	3	B	500	systole
381.9307000000001	0.0850015312607865	23	diastole	4	B	500	systole
382.51070000000004	0.0850015312607865	23	diastole	5	B	500	systole
383.07400000000007	0.0850015312607865	23	diastole	6	B	500	systole
383.654	0.0850015312607865	23	diastole	7	B	500	systole
384.2541000000001	0.0850015312607865	23	diastole	8	B	500	systole
384.90409999999997	0.0850015312607865	23	diastole	9	B	500	systole
385.62260000000015	0.0850015312607865	23	diastole	10	B	500	systole
386.3411000000001	0.0850015312607865	23	diastole	11	B	500	systole
387.09090000000015	0.0850015312607865	23	diastole	12	B	500	systole
387.84079999999994	0.0850015312607865	23	diastole	13	B	500	systole
388.7035000000001	0.0850015312607865	23	diastole	14	B	500	systole
389.47350000000006	0.0850015312607865	23	diastole	15	B	500	systole
393.23030000000017	0.0931212936993688	24	diastole	1	B	500	diastole
393.9103	0.0931212936993688	24	diastole	2	B	500	diastole
394.55369999999994	0.0931212936993688	24	diastole	3	B	500	diastole
395.2136999999998	0.0931212936993688	24	diastole	4	B	500	diastole
395.7291	0.0931212936993688	24	diastole	5	B	500	diastole
396.31950000000006	0.0931212936993688	24	diastole	6	B	500	diastole
396.8759	0.0931212936993688	24	diastole	7	B	500	diastole
397.4074999999998	0.0931212936993688	24	diastole	8	B	500	diastole
397.99760000000015	0.0931212936993688	24	diastole	9	B	500	diastole
398.5378999999998	0.0931212936993688	24	diastole	10	B	500	diastole
399.1396	0.0931212936993688	24	diastole	11	B	500	diastole
399.7696000000001	0.0931212936993688	24	diastole	12	B	500	diastole
400.3897000000002	0.0931212936993688	24	diastole	13	B	500	diastole
401.0295000000001	0.0931212936993688	24	diastole	14	B	500	diastole
401.6943000000001	0.0931212936993688	24	diastole	15	B	500	diastole
402.3341999999998	0.0931212936993688	24	diastole	16	B	500	diastole
404.49940000000015	0.0793727870623115	25	systole	1	B	500	diastole
405.09940000000006	0.0793727870623115	25	systole	2	B	500	diastole
405.69939999999997	0.0793727870623115	25	systole	3	B	500	diastole
406.28949999999986	0.0793727870623115	25	systole	4	B	500	diastole
406.8796000000002	0.0793727870623115	25	systole	5	B	500	diastole
407.47220000000016	0.0793727870623115	25	systole	6	B	500	diastole
408.07079999999996	0.0793727870623115	25	systole	7	B	500	diastole
408.68100000000004	0.0793727870623115	25	systole	8	B	500	diastole
409.31100000000015	0.0793727870623115	25	systole	9	B	500	diastole
409.94090000000006	0.0793727870623115	25	systole	10	B	500	diastole
410.57090000000017	0.0793727870623115	25	systole	11	B	500	diastole
411.21669999999995	0.0793727870623115	25	systole	12	B	500	diastole
411.8566999999998	0.0793727870623115	25	systole	13	B	500	diastole
412.52250000000004	0.0793727870623115	25	systole	14	B	500	diastole
413.25	0.0793727870623115	25	systole	15	B	500	diastole
413.95989999999983	0.0793727870623115	25	systole	16	B	500	diastole
416.9079999999999	0.0856295104022137	26	systole	1	B	500	systole
417.53819999999996	0.0856295104022137	26	systole	2	B	500	systole
418.1579999999999	0.0856295104022137	26	systole	3	B	500	systole
418.7184000000002	0.0856295104022137	26	systole	4	B	500	systole
419.30510000000004	0.0856295104022137	26	systole	5	B	500	systole
419.89789999999994	0.0856295104022137	26	systole	6	B	500	systole
420.50829999999996	0.0856295104022137	26	systole	7	B	500	systole
421.1376	0.0856295104022137	26	systole	8	B	500	systole
421.8276000000001	0.0856295104022137	26	systole	9	B	500	systole
422.51760000000013	0.0856295104022137	26	systole	10	B	500	systole
423.2157000000002	0.0856295104022137	26	systole	11	B	500	systole
423.9058	0.0856295104022137	26	systole	12	B	500	systole
424.62649999999985	0.0856295104022137	26	systole	13	B	500	systole
425.3384000000001	0.0856295104022137	26	systole	14	B	500	systole
425.9883	0.0856295104022137	26	systole	15	B	500	systole
429.0958999999998	0.0824995749862864	27	systole	1	B	500	diastole
429.66499999999996	0.0824995749862864	27	systole	2	B	500	diastole
430.19349999999986	0.0824995749862864	27	systole	3	B	500	diastole
430.72789999999986	0.0824995749862864	27	systole	4	B	500	diastole
431.2404999999999	0.0824995749862864	27	systole	5	B	500	diastole
431.77059999999983	0.0824995749862864	27	systole	6	B	500	diastole
432.3090000000002	0.0824995749862864	27	systole	7	B	500	diastole
432.8903	0.0824995749862864	27	systole	8	B	500	diastole
433.6803	0.0824995749862864	27	systole	9	B	500	diastole
434.48030000000017	0.0824995749862864	27	systole	10	B	500	diastole
435.24029999999993	0.0824995749862864	27	systole	11	B	500	diastole
436.00030000000015	0.0824995749862864	27	systole	12	B	500	diastole
436.7602999999999	0.0824995749862864	27	systole	13	B	500	diastole
437.7150999999999	0.0824995749862864	27	systole	14	B	500	diastole
438.6554000000001	0.0824995749862864	27	systole	15	B	500	diastole
442.12530000000015	0.0968803954310715	28	diastole	1	B	500	diastole
442.77520000000004	0.0968803954310715	28	diastole	2	B	500	diastole
443.36850000000004	0.0968803954310715	28	diastole	3	B	500	diastole
443.91690000000017	0.0968803954310715	28	diastole	4	B	500	diastole
444.42869999999994	0.0968803954310715	28	diastole	5	B	500	diastole
444.9987000000001	0.0968803954310715	28	diastole	6	B	500	diastole
445.5088999999998	0.0968803954310715	28	diastole	7	B	500	diastole
446.0286000000001	0.0968803954310715	28	diastole	8	B	500	diastole
446.5688	0.0968803954310715	28	diastole	9	B	500	diastole
447.1887999999999	0.0968803954310715	28	diastole	10	B	500	diastole
447.8087999999998	0.0968803954310715	28	diastole	11	B	500	diastole
448.4688000000001	0.0968803954310715	28	diastole	12	B	500	diastole
449.2184000000002	0.0968803954310715	28	diastole	13	B	500	diastole
449.9787000000001	0.0968803954310715	28	diastole	14	B	500	diastole
450.7390999999998	0.0968803954310715	28	diastole	15	B	500	diastole
459.12829999999985	0.0825294658134225	29	systole	1	B	500	systole
459.78870000000006	0.0825294658134225	29	systole	2	B	500	systole
460.44900000000007	0.0825294658134225	29	systole	3	B	500	systole
461.1084000000001	0.0825294658134225	29	systole	4	B	500	systole
461.76810000000023	0.0825294658134225	29	systole	5	B	500	systole
462.4785999999999	0.0825294658134225	29	systole	6	B	500	systole
463.1887999999999	0.0825294658134225	29	systole	7	B	500	systole
463.89919999999984	0.0825294658134225	29	systole	8	B	500	systole
464.6104	0.0825294658134225	29	systole	9	B	500	systole
465.31039999999985	0.0825294658134225	29	systole	10	B	500	systole
466.038	0.0825294658134225	29	systole	11	B	500	systole
466.7811999999999	0.0825294658134225	29	systole	12	B	500	systole
467.50120000000015	0.0825294658134225	29	systole	13	B	500	systole
468.1812	0.0825294658134225	29	systole	14	B	500	systole
472.6907000000001	0.085645394254243	30	diastole	1	B	500	diastole
473.35080000000016	0.085645394254243	30	diastole	2	B	500	diastole
474.0109000000002	0.085645394254243	30	diastole	3	B	500	diastole
474.6408000000001	0.085645394254243	30	diastole	4	B	500	diastole
475.2707999999998	0.085645394254243	30	diastole	5	B	500	diastole
475.90239999999994	0.085645394254243	30	diastole	6	B	500	diastole
476.5254	0.085645394254243	30	diastole	7	B	500	diastole
477.1653000000001	0.085645394254243	30	diastole	8	B	500	diastole
477.8053	0.085645394254243	30	diastole	9	B	500	diastole
478.44079999999985	0.085645394254243	30	diastole	10	B	500	diastole
479.13239999999996	0.085645394254243	30	diastole	11	B	500	diastole
479.8207000000002	0.085645394254243	30	diastole	12	B	500	diastole
480.50919999999996	0.085645394254243	30	diastole	13	B	500	diastole
481.19759999999997	0.085645394254243	30	diastole	14	B	500	diastole
481.89559999999983	0.085645394254243	30	diastole	15	B	500	diastole
485.18820000000005	0.079910202359315	31	systole	1	B	500	diastole
485.8083999999999	0.079910202359315	31	systole	2	B	500	diastole
486.45820000000003	0.079910202359315	31	systole	3	B	500	diastole
487.1079	0.079910202359315	31	systole	4	B	500	diastole
487.75790000000006	0.079910202359315	31	systole	5	B	500	diastole
488.3879999999999	0.079910202359315	31	systole	6	B	500	diastole
489.00210000000015	0.079910202359315	31	systole	7	B	500	diastole
489.6379000000002	0.079910202359315	31	systole	8	B	500	diastole
490.2678000000001	0.079910202359315	31	systole	9	B	500	diastole
490.88779999999997	0.079910202359315	31	systole	10	B	500	diastole
491.5336000000002	0.079910202359315	31	systole	11	B	500	diastole
492.22080000000005	0.079910202359315	31	systole	12	B	500	diastole
492.8908000000001	0.079910202359315	31	systole	13	B	500	diastole
493.5608000000002	0.079910202359315	31	systole	14	B	500	diastole
494.2208999999998	0.079910202359315	31	systole	15	B	500	diastole
494.8526999999999	0.079910202359315	31	systole	16	B	500	diastole
498.1689000000001	0.0781559741299133	32	diastole	1	B	500	systole
498.7988	0.0781559741299133	32	diastole	2	B	500	systole
499.4387999999999	0.0781559741299133	32	diastole	3	B	500	systole
500.09040000000005	0.0781559741299133	32	diastole	4	B	500	systole
500.7620999999999	0.0781559741299133	32	diastole	5	B	500	systole
501.4337999999998	0.0781559741299133	32	diastole	6	B	500	systole
502.1053999999999	0.0781559741299133	32	diastole	7	B	500	systole
502.8234000000002	0.0781559741299133	32	diastole	8	B	500	systole
503.55999999999995	0.0781559741299133	32	diastole	9	B	500	systole
504.3152	0.0781559741299133	32	diastole	10	B	500	systole
505.06190000000015	0.0781559741299133	32	diastole	11	B	500	systole
505.82659999999987	0.0781559741299133	32	diastole	12	B	500	systole
506.5855999999999	0.0781559741299133	32	diastole	13	B	500	systole
509.6936999999998	0.087505675968714	33	systole	1	B	500	systole
510.3078999999998	0.087505675968714	33	systole	2	B	500	systole
510.92790000000014	0.087505675968714	33	systole	3	B	500	systole
511.54179999999997	0.087505675968714	33	systole	4	B	500	systole
512.1617000000001	0.087505675968714	33	systole	5	B	500	systole
512.7658000000001	0.087505675968714	33	systole	6	B	500	systole
513.3571000000002	0.087505675968714	33	systole	7	B	500	systole
513.9794000000002	0.087505675968714	33	systole	8	B	500	systole
514.6035000000002	0.087505675968714	33	systole	9	B	500	systole
515.212	0.087505675968714	33	systole	10	B	500	systole
515.8319000000001	0.087505675968714	33	systole	11	B	500	systole
516.4416999999999	0.087505675968714	33	systole	12	B	500	systole
517.0416	0.087505675968714	33	systole	13	B	500	systole
517.6459	0.087505675968714	33	systole	14	B	500	systole
518.2559000000001	0.087505675968714	33	systole	15	B	500	systole
518.8658999999998	0.087505675968714	33	systole	16	B	500	systole
519.4598000000001	0.087505675968714	33	systole	17	B	500	systole
522.1087000000002	0.0750070644717197	34	diastole	1	B	500	systole
522.6988000000001	0.0750070644717197	34	diastole	2	B	500	systole
523.2889	0.0750070644717197	34	diastole	3	B	500	systole
523.8488000000002	0.0750070644717197	34	diastole	4	B	500	systole
524.3924000000002	0.0750070644717197	34	diastole	5	B	500	systole
524.9324000000001	0.0750070644717197	34	diastole	6	B	500	systole
525.4573999999998	0.0750070644717197	34	diastole	7	B	500	systole
526.0207	0.0750070644717197	34	diastole	8	B	500	systole
526.6306	0.0750070644717197	34	diastole	9	B	500	systole
527.2404999999999	0.0750070644717197	34	diastole	10	B	500	systole
527.8606	0.0750070644717197	34	diastole	11	B	500	systole
528.4906000000001	0.0750070644717197	34	diastole	12	B	500	systole
529.1206000000002	0.0750070644717197	34	diastole	13	B	500	systole
529.8206	0.0750070644717197	34	diastole	14	B	500	systole
530.5039000000002	0.0750070644717197	34	diastole	15	B	500	systole
531.1774999999998	0.0750070644717197	34	diastole	16	B	500	systole
538.3885	0.0750070187496021	35	diastole	1	B	500	systole
538.9504000000002	0.0750070187496021	35	diastole	2	B	500	systole
539.5205000000001	0.0750070187496021	35	diastole	3	B	500	systole
540.0920000000001	0.0750070187496021	35	diastole	4	B	500	systole
540.6619000000001	0.0750070187496021	35	diastole	5	B	500	systole
541.2519000000002	0.0750070187496021	35	diastole	6	B	500	systole
541.8422999999998	0.0750070187496021	35	diastole	7	B	500	systole
542.4324000000001	0.0750070187496021	35	diastole	8	B	500	systole
543.0223999999998	0.0750070187496021	35	diastole	9	B	500	systole
543.6320999999998	0.0750070187496021	35	diastole	10	B	500	systole
544.2420999999999	0.0750070187496021	35	diastole	11	B	500	systole
544.8921	0.0750070187496021	35	diastole	12	B	500	systole
545.5419999999999	0.0750070187496021	35	diastole	13	B	500	systole
546.2123999999999	0.0750070187496021	35	diastole	14	B	500	systole
546.9751000000001	0.0750070187496021	35	diastole	15	B	500	systole
547.7388000000001	0.0750070187496021	35	diastole	16	B	500	systole
550.9578999999999	0.0856361624319106	36	systole	1	B	500	diastole
551.558	0.0856361624319106	36	systole	2	B	500	diastole
552.1581000000001	0.0856361624319106	36	systole	3	B	500	diastole
552.6842999999999	0.0856361624319106	36	systole	4	B	500	diastole
553.2746000000002	0.0856361624319106	36	systole	5	B	500	diastole
553.8669	0.0856361624319106	36	systole	6	B	500	diastole
554.4767999999999	0.0856361624319106	36	systole	7	B	500	diastole
555.0808999999999	0.0856361624319106	36	systole	8	B	500	diastole
555.6907999999999	0.0856361624319106	36	systole	9	B	500	diastole
556.3308000000002	0.0856361624319106	36	systole	10	B	500	diastole
556.9708	0.0856361624319106	36	systole	11	B	500	diastole
557.6309000000001	0.0856361624319106	36	systole	12	B	500	diastole
558.3208	0.0856361624319106	36	systole	13	B	500	diastole
559.0167999999999	0.0856361624319106	36	systole	14	B	500	diastole
559.7240999999999	0.0856361624319106	36	systole	15	B	500	diastole
560.4276	0.0856361624319106	36	systole	16	B	500	diastole
566.7219	0.0781209818669594	37	systole	1	B	500	diastole
567.3519000000001	0.0781209818669594	37	systole	2	B	500	diastole
567.9819000000002	0.0781209818669594	37	systole	3	B	500	diastole
568.6219000000001	0.0781209818669594	37	systole	4	B	500	diastole
569.2619	0.0781209818669594	37	systole	5	B	500	diastole
569.9018999999998	0.0781209818669594	37	systole	6	B	500	diastole
570.5994000000001	0.0781209818669594	37	systole	7	B	500	diastole
571.2793999999999	0.0781209818669594	37	systole	8	B	500	diastole
571.9553999999998	0.0781209818669594	37	systole	9	B	500	diastole
572.6487000000002	0.0781209818669594	37	systole	10	B	500	diastole
573.3186999999998	0.0781209818669594	37	systole	11	B	500	diastole
573.9944999999998	0.0781209818669594	37	systole	12	B	500	diastole
574.6545000000001	0.0781209818669594	37	systole	13	B	500	diastole
575.3145	0.0781209818669594	37	systole	14	B	500	diastole
575.9544000000001	0.0781209818669594	37	systole	15	B	500	diastole
579.1421	0.0787445000896696	38	diastole	1	B	500	diastole
579.7220000000002	0.0787445000896696	38	diastole	2	B	500	diastole
580.2752999999998	0.0787445000896696	38	diastole	3	B	500	diastole
580.8705	0.0787445000896696	38	diastole	4	B	500	diastole
581.4906999999998	0.0787445000896696	38	diastole	5	B	500	diastole
582.1109000000001	0.0787445000896696	38	diastole	6	B	500	diastole
582.7408	0.0787445000896696	38	diastole	7	B	500	diastole
583.3708000000001	0.0787445000896696	38	diastole	8	B	500	diastole
584.031	0.0787445000896696	38	diastole	9	B	500	diastole
584.7577000000001	0.0787445000896696	38	diastole	10	B	500	diastole
585.5610999999999	0.0787445000896696	38	diastole	11	B	500	diastole
586.3807000000002	0.0787445000896696	38	diastole	12	B	500	diastole
587.1588000000002	0.0787445000896696	38	diastole	13	B	500	diastole
588.0417000000002	0.0787445000896696	38	diastole	14	B	500	diastole
593.5194999999999	0.0806282359699253	39	systole	1	B	500	diastole
594.0992000000001	0.0806282359699253	39	systole	2	B	500	diastole
594.6736000000001	0.0806282359699253	39	systole	3	B	500	diastole
595.2415999999998	0.0806282359699253	39	systole	4	B	500	diastole
595.8701000000001	0.0806282359699253	39	systole	5	B	500	diastole
596.5101	0.0806282359699253	39	systole	6	B	500	diastole
597.1896999999999	0.0806282359699253	39	systole	7	B	500	diastole
597.8692000000001	0.0806282359699253	39	systole	8	B	500	diastole
598.5895	0.0806282359699253	39	systole	9	B	500	diastole
599.3292999999999	0.0806282359699253	39	systole	10	B	500	diastole
600.1572000000001	0.0806282359699253	39	systole	11	B	500	diastole
600.9740999999999	0.0806282359699253	39	systole	12	B	500	diastole
601.7440999999999	0.0806282359699253	39	systole	13	B	500	diastole
602.5466999999999	0.0806282359699253	39	systole	14	B	500	diastole
603.2768000000001	0.0806282359699253	39	systole	15	B	500	diastole
606.9955	0.0900114456308074	40	diastole	1	B	500	diastole
607.6152999999999	0.0900114456308074	40	diastole	2	B	500	diastole
608.2352000000001	0.0900114456308074	40	diastole	3	B	500	diastole
608.7319000000002	0.0900114456308074	40	diastole	4	B	500	diastole
609.2772	0.0900114456308074	40	diastole	5	B	500	diastole
609.797	0.0900114456308074	40	diastole	6	B	500	diastole
610.3670999999999	0.0900114456308074	40	diastole	7	B	500	diastole
610.9504999999999	0.0900114456308074	40	diastole	8	B	500	diastole
611.5904	0.0900114456308074	40	diastole	9	B	500	diastole
612.2305000000001	0.0900114456308074	40	diastole	10	B	500	diastole
612.8906000000002	0.0900114456308074	40	diastole	11	B	500	diastole
613.5506	0.0900114456308074	40	diastole	12	B	500	diastole
614.2622000000001	0.0900114456308074	40	diastole	13	B	500	diastole
614.9659000000001	0.0900114456308074	40	diastole	14	B	500	diastole
615.7089000000001	0.0900114456308074	40	diastole	15	B	500	diastole
619.6835999999998	0.0862433923175558	41	systole	1	B	500	diastole
620.3636999999999	0.0862433923175558	41	systole	2	B	500	diastole
621.0136000000002	0.0862433923175558	41	systole	3	B	500	diastole
621.6478999999999	0.0862433923175558	41	systole	4	B	500	diastole
622.2820000000002	0.0862433923175558	41	systole	5	B	500	diastole
622.9104000000002	0.0862433923175558	41	systole	6	B	500	diastole
623.5504999999998	0.0862433923175558	41	systole	7	B	500	diastole
624.1828999999998	0.0862433923175558	41	systole	8	B	500	diastole
624.8528999999999	0.0862433923175558	41	systole	9	B	500	diastole
625.5628999999999	0.0862433923175558	41	systole	10	B	500	diastole
626.2928999999999	0.0862433923175558	41	systole	11	B	500	diastole
627.0230000000001	0.0862433923175558	41	systole	12	B	500	diastole
627.7586999999999	0.0862433923175558	41	systole	13	B	500	diastole
628.5039000000002	0.0862433923175558	41	systole	14	B	500	diastole
629.2051999999999	0.0862433923175558	41	systole	15	B	500	diastole
632.4248000000002	0.0849852237442974	42	systole	1	B	500	diastole
633.0491000000002	0.0849852237442974	42	systole	2	B	500	diastole
633.6790999999998	0.0849852237442974	42	systole	3	B	500	diastole
634.3027999999999	0.0849852237442974	42	systole	4	B	500	diastole
634.9369999999999	0.0849852237442974	42	systole	5	B	500	diastole
635.6464999999998	0.0849852237442974	42	systole	6	B	500	diastole
636.3764999999999	0.0849852237442974	42	systole	7	B	500	diastole
637.1127999999999	0.0849852237442974	42	systole	8	B	500	diastole
637.8431999999998	0.0849852237442974	42	systole	9	B	500	diastole
638.5830999999998	0.0849852237442974	42	systole	10	B	500	diastole
639.3723	0.0849852237442974	42	systole	11	B	500	diastole
640.0724	0.0849852237442974	42	systole	12	B	500	diastole
640.7723999999998	0.0849852237442974	42	systole	13	B	500	diastole
641.4623000000001	0.0849852237442974	42	systole	14	B	500	diastole
644.2503999999999	0.0868697641708422	43	diastole	1	B	500	diastole
644.7955000000002	0.0868697641708422	43	diastole	2	B	500	diastole
645.3654999999999	0.0868697641708422	43	diastole	3	B	500	diastole
645.9355	0.0868697641708422	43	diastole	4	B	500	diastole
646.5056	0.0868697641708422	43	diastole	5	B	500	diastole
647.0037000000002	0.0868697641708422	43	diastole	6	B	500	diastole
647.6062000000002	0.0868697641708422	43	diastole	7	B	500	diastole
648.2166000000002	0.0868697641708422	43	diastole	8	B	500	diastole
648.9367000000002	0.0868697641708422	43	diastole	9	B	500	diastole
649.6567	0.0868697641708422	43	diastole	10	B	500	diastole
650.4166	0.0868697641708422	43	diastole	11	B	500	diastole
651.2280999999998	0.0868697641708422	43	diastole	12	B	500	diastole
651.9982	0.0868697641708422	43	diastole	13	B	500	diastole
652.8598999999999	0.0868697641708422	43	diastole	14	B	500	diastole
653.5799999999999	0.0868697641708422	43	diastole	15	B	500	diastole
656.2604000000001	0.0849969121045433	44	diastole	1	B	500	systole
656.9202	0.0849969121045433	44	diastole	2	B	500	systole
657.5801999999999	0.0849969121045433	44	diastole	3	B	500	systole
658.2224000000001	0.0849969121045433	44	diastole	4	B	500	systole
658.8719999999998	0.0849969121045433	44	diastole	5	B	500	systole
659.5320000000002	0.0849969121045433	44	diastole	6	B	500	systole
660.2022999999999	0.0849969121045433	44	diastole	7	B	500	systole
660.8807000000002	0.0849969121045433	44	diastole	8	B	500	systole
661.5509000000002	0.0849969121045433	44	diastole	9	B	500	systole
662.2487999999998	0.0849969121045433	44	diastole	10	B	500	systole
662.9672999999998	0.0849969121045433	44	diastole	11	B	500	systole
663.6772000000001	0.0849969121045433	44	diastole	12	B	500	systole
664.4221000000002	0.0849969121045433	44	diastole	13	B	500	systole
665.1671000000001	0.0849969121045433	44	diastole	14	B	500	systole
665.8870999999999	0.0849969121045433	44	diastole	15	B	500	systole
669.0327000000002	0.0893689571239519	45	systole	1	B	500	diastole
669.6927000000001	0.0893689571239519	45	systole	2	B	500	diastole
670.3114	0.0893689571239519	45	systole	3	B	500	diastole
670.9036999999998	0.0893689571239519	45	systole	4	B	500	diastole
671.5021000000002	0.0893689571239519	45	systole	5	B	500	diastole
672.0844000000002	0.0893689571239519	45	systole	6	B	500	diastole
672.6714000000002	0.0893689571239519	45	systole	7	B	500	diastole
673.3454999999999	0.0893689571239519	45	systole	8	B	500	diastole
674.0255999999999	0.0893689571239519	45	systole	9	B	500	diastole
674.7356	0.0893689571239519	45	systole	10	B	500	diastole
675.4456	0.0893689571239519	45	systole	11	B	500	diastole
676.1754999999998	0.0893689571239519	45	systole	12	B	500	diastole
676.8755999999998	0.0893689571239519	45	systole	13	B	500	diastole
677.5547999999999	0.0893689571239519	45	systole	14	B	500	diastole
678.1948000000002	0.0893689571239519	45	systole	15	B	500	diastole
681.3919999999998	0.0787600328039843	46	diastole	1	B	500	diastole
681.982	0.0787600328039843	46	diastole	2	B	500	diastole
682.5725000000002	0.0787600328039843	46	diastole	3	B	500	diastole
683.1738	0.0787600328039843	46	diastole	4	B	500	diastole
683.7937999999999	0.0787600328039843	46	diastole	5	B	500	diastole
684.4538000000002	0.0787600328039843	46	diastole	6	B	500	diastole
685.1152999999999	0.0787600328039843	46	diastole	7	B	500	diastole
685.7768999999998	0.0787600328039843	46	diastole	8	B	500	diastole
686.4355999999998	0.0787600328039843	46	diastole	9	B	500	diastole
687.1435000000001	0.0787600328039843	46	diastole	10	B	500	diastole
687.7930999999999	0.0787600328039843	46	diastole	11	B	500	diastole
688.4441000000002	0.0787600328039843	46	diastole	12	B	500	diastole
689.0841	0.0787600328039843	46	diastole	13	B	500	diastole
689.7139999999999	0.0787600328039843	46	diastole	14	B	500	diastole
690.3440999999998	0.0787600328039843	46	diastole	15	B	500	diastole
694.1745000000001	0.0762532444787211	47	systole	1	B	500	systole
694.7328000000002	0.0762532444787211	47	systole	2	B	500	systole
695.3027000000002	0.0762532444787211	47	systole	3	B	500	systole
695.8670999999999	0.0762532444787211	47	systole	4	B	500	systole
696.5471000000002	0.0762532444787211	47	systole	5	B	500	systole
697.3371000000002	0.0762532444787211	47	systole	6	B	500	systole
698.1271999999999	0.0762532444787211	47	systole	7	B	500	systole
698.9272000000001	0.0762532444787211	47	systole	8	B	500	systole
699.7687000000001	0.0762532444787211	47	systole	9	B	500	systole
700.5987	0.0762532444787211	47	systole	10	B	500	systole
701.4911000000002	0.0762532444787211	47	systole	11	B	500	systole
702.4362000000001	0.0762532444787211	47	systole	12	B	500	systole
703.3263999999999	0.0762532444787211	47	systole	13	B	500	systole
708.6613000000002	0.0937503866443876	48	systole	1	B	500	systole
709.1831000000002	0.0937503866443876	48	systole	2	B	500	systole
709.7631999999999	0.0937503866443876	48	systole	3	B	500	systole
710.3433	0.0937503866443876	48	systole	4	B	500	systole
710.8964999999998	0.0937503866443876	48	systole	5	B	500	systole
711.4688999999998	0.0937503866443876	48	systole	6	B	500	systole
712.0688	0.0937503866443876	48	systole	7	B	500	systole
712.6489999999999	0.0937503866443876	48	systole	8	B	500	systole
713.2489	0.0937503866443876	48	systole	9	B	500	systole
713.8332999999998	0.0937503866443876	48	systole	10	B	500	systole
714.4429	0.0937503866443876	48	systole	11	B	500	systole
715.0686000000001	0.0937503866443876	48	systole	12	B	500	systole
715.7085000000002	0.0937503866443876	48	systole	13	B	500	systole
716.3483999999999	0.0937503866443876	48	systole	14	B	500	systole
716.9886999999999	0.0937503866443876	48	systole	15	B	500	systole
717.6542	0.0937503866443876	48	systole	16	B	500	systole
718.3435	0.0937503866443876	48	systole	17	B	500	systole
725.4569999999999	0.0762584439362399	49	diastole	1	B	500	systole
726.0385999999999	0.0762584439362399	49	diastole	2	B	500	systole
726.6286	0.0762584439362399	49	diastole	3	B	500	systole
727.2103999999999	0.0762584439362399	49	diastole	4	B	500	systole
727.8022000000001	0.0762584439362399	49	diastole	5	B	500	systole
728.4121	0.0762584439362399	49	diastole	6	B	500	systole
729.0221000000001	0.0762584439362399	49	diastole	7	B	500	systole
729.6502999999998	0.0762584439362399	49	diastole	8	B	500	systole
730.3386999999998	0.0762584439362399	49	diastole	9	B	500	systole
731.0187999999998	0.0762584439362399	49	diastole	10	B	500	systole
731.6988000000001	0.0762584439362399	49	diastole	11	B	500	systole
732.4438	0.0762584439362399	49	diastole	12	B	500	systole
733.2555000000002	0.0762584439362399	49	diastole	13	B	500	systole
733.9987999999998	0.0762584439362399	49	diastole	14	B	500	systole
736.7271000000001	0.0868726397457066	50	diastole	1	B	500	diastole
737.3470000000002	0.0868726397457066	50	diastole	2	B	500	diastole
737.9470000000001	0.0868726397457066	50	diastole	3	B	500	diastole
738.5120999999999	0.0868726397457066	50	diastole	4	B	500	diastole
739.0472	0.0868726397457066	50	diastole	5	B	500	diastole
739.6572000000001	0.0868726397457066	50	diastole	6	B	500	diastole
740.2703999999999	0.0868726397457066	50	diastole	7	B	500	diastole
740.9303	0.0868726397457066	50	diastole	8	B	500	diastole
741.5902999999998	0.0868726397457066	50	diastole	9	B	500	diastole
742.2503000000002	0.0868726397457066	50	diastole	10	B	500	diastole
742.9103	0.0868726397457066	50	diastole	11	B	500	diastole
743.6003000000001	0.0868726397457066	50	diastole	12	B	500	diastole
744.3069999999998	0.0868726397457066	50	diastole	13	B	500	diastole
745.0221000000001	0.0868726397457066	50	diastole	14	B	500	diastole
745.7287000000001	0.0868726397457066	50	diastole	15	B	500	diastole
746.4187000000002	0.0868726397457066	50	diastole	16	B	500	diastole
749.6188000000002	0.0837497999891638	51	diastole	1	B	500	systole
750.2237	0.0837497999891638	51	diastole	2	B	500	systole
750.8535999999999	0.0837497999891638	51	diastole	3	B	500	systole
751.4852999999998	0.0837497999891638	51	diastole	4	B	500	systole
752.1552000000001	0.0837497999891638	51	diastole	5	B	500	systole
752.8251	0.0837497999891638	51	diastole	6	B	500	systole
753.5450000000001	0.0837497999891638	51	diastole	7	B	500	systole
754.2750999999998	0.0837497999891638	51	diastole	8	B	500	systole
755.0882999999999	0.0837497999891638	51	diastole	9	B	500	systole
755.8182000000002	0.0837497999891638	51	diastole	10	B	500	systole
756.56	0.0837497999891638	51	diastole	11	B	500	systole
757.2698999999998	0.0837497999891638	51	diastole	12	B	500	systole
757.9798000000001	0.0837497999891638	51	diastole	13	B	500	systole
761.4070999999999	0.0875035751669202	52	diastole	1	B	500	systole
761.9904000000001	0.0875035751669202	52	diastole	2	B	500	systole
762.5904	0.0875035751669202	52	diastole	3	B	500	systole
763.1637000000001	0.0875035751669202	52	diastole	4	B	500	systole
763.7154	0.0875035751669202	52	diastole	5	B	500	systole
764.2755000000002	0.0875035751669202	52	diastole	6	B	500	systole
764.7622000000001	0.0875035751669202	52	diastole	7	B	500	systole
765.3288000000002	0.0875035751669202	52	diastole	8	B	500	systole
765.9805000000001	0.0875035751669202	52	diastole	9	B	500	systole
766.6323000000002	0.0875035751669202	52	diastole	10	B	500	systole
767.3523	0.0875035751669202	52	diastole	11	B	500	systole
768.1354000000001	0.0875035751669202	52	diastole	12	B	500	systole
768.9393	0.0875035751669202	52	diastole	13	B	500	systole
769.6792	0.0875035751669202	52	diastole	14	B	500	systole
770.3791000000001	0.0875035751669202	52	diastole	15	B	500	systole
771.0587	0.0875035751669202	52	diastole	16	B	500	systole
774.4171999999999	0.0856170966872014	53	diastole	1	B	500	diastole
775.0117	0.0856170966872014	53	diastole	2	B	500	diastole
775.6214	0.0856170966872014	53	diastole	3	B	500	diastole
776.203	0.0856170966872014	53	diastole	4	B	500	diastole
776.7930000000001	0.0856170966872014	53	diastole	5	B	500	diastole
777.3352	0.0856170966872014	53	diastole	6	B	500	diastole
777.9052999999999	0.0856170966872014	53	diastole	7	B	500	diastole
778.4385000000002	0.0856170966872014	53	diastole	8	B	500	diastole
779.0682000000002	0.0856170966872014	53	diastole	9	B	500	diastole
779.7782000000002	0.0856170966872014	53	diastole	10	B	500	diastole
780.4778000000001	0.0856170966872014	53	diastole	11	B	500	diastole
781.2143999999998	0.0856170966872014	53	diastole	12	B	500	diastole
781.9342999999999	0.0856170966872014	53	diastole	13	B	500	diastole
782.6543000000001	0.0856170966872014	53	diastole	14	B	500	diastole
783.4310999999998	0.0856170966872014	53	diastole	15	B	500	diastole
787.3206	0.0806269999884534	54	systole	1	B	500	diastole
787.8863000000001	0.0806269999884534	54	systole	2	B	500	diastole
788.4576999999999	0.0806269999884534	54	systole	3	B	500	diastole
789.0292	0.0806269999884534	54	systole	4	B	500	diastole
789.5783000000001	0.0806269999884534	54	systole	5	B	500	diastole
790.1684	0.0806269999884534	54	systole	6	B	500	diastole
790.7584000000002	0.0806269999884534	54	systole	7	B	500	diastole
791.6183999999998	0.0806269999884534	54	systole	8	B	500	diastole
792.4784	0.0806269999884534	54	systole	9	B	500	diastole
793.3184000000001	0.0806269999884534	54	systole	10	B	500	diastole
794.1950999999999	0.0806269999884534	54	systole	11	B	500	diastole
795.0551999999998	0.0806269999884534	54	systole	12	B	500	diastole
796.1617999999999	0.0806269999884534	54	systole	13	B	500	diastole
799.9270000000001	0.100620200013509	55	systole	1	B	500	systole
800.5679	0.100620200013509	55	systole	2	B	500	systole
801.2379000000001	0.100620200013509	55	systole	3	B	500	systole
801.9079000000002	0.100620200013509	55	systole	4	B	500	systole
802.5463	0.100620200013509	55	systole	5	B	500	systole
803.1804000000002	0.100620200013509	55	systole	6	B	500	systole
803.7739000000001	0.100620200013509	55	systole	7	B	500	systole
804.4139	0.100620200013509	55	systole	8	B	500	systole
805.0446000000002	0.100620200013509	55	systole	9	B	500	systole
805.6828999999998	0.100620200013509	55	systole	10	B	500	systole
806.3429000000001	0.100620200013509	55	systole	11	B	500	systole
806.9870000000001	0.100620200013509	55	systole	12	B	500	systole
807.6368000000002	0.100620200013509	55	systole	13	B	500	systole
808.2768000000001	0.100620200013509	55	systole	14	B	500	systole
808.9009999999998	0.100620200013509	55	systole	15	B	500	systole
818.6233000000002	0.0775161147175822	56	diastole	1	B	500	diastole
819.2433000000001	0.0775161147175822	56	diastole	2	B	500	diastole
819.8631999999998	0.0775161147175822	56	diastole	3	B	500	diastole
820.4531999999999	0.0775161147175822	56	diastole	4	B	500	diastole
821.0436	0.0775161147175822	56	diastole	5	B	500	diastole
821.6235999999999	0.0775161147175822	56	diastole	6	B	500	diastole
822.1867000000002	0.0775161147175822	56	diastole	7	B	500	diastole
822.6927999999998	0.0775161147175822	56	diastole	8	B	500	diastole
823.2730999999999	0.0775161147175822	56	diastole	9	B	500	diastole
823.8447000000001	0.0775161147175822	56	diastole	10	B	500	diastole
824.4247	0.0775161147175822	56	diastole	11	B	500	diastole
825.0351	0.0775161147175822	56	diastole	12	B	500	diastole
825.6551	0.0775161147175822	56	diastole	13	B	500	diastole
826.2750999999998	0.0775161147175822	56	diastole	14	B	500	diastole
826.8951000000002	0.0775161147175822	56	diastole	15	B	500	diastole
830.3519000000001	0.0774732241698075	57	systole	1	B	500	systole
830.9413	0.0774732241698075	57	systole	2	B	500	systole
831.5309000000002	0.0774732241698075	57	systole	3	B	500	systole
832.1305000000002	0.0774732241698075	57	systole	4	B	500	systole
832.7141000000001	0.0774732241698075	57	systole	5	B	500	systole
833.3136	0.0774732241698075	57	systole	6	B	500	systole
833.9333000000001	0.0774732241698075	57	systole	7	B	500	systole
834.5529000000001	0.0774732241698075	57	systole	8	B	500	systole
835.1833000000001	0.0774732241698075	57	systole	9	B	500	systole
835.8128999999999	0.0774732241698075	57	systole	10	B	500	systole
836.4641000000001	0.0774732241698075	57	systole	11	B	500	systole
837.1041	0.0774732241698075	57	systole	12	B	500	systole
837.7440999999999	0.0774732241698075	57	systole	13	B	500	systole
838.3824	0.0774732241698075	57	systole	14	B	500	systole
839.0104000000001	0.0774732241698075	57	systole	15	B	500	systole
839.6664000000001	0.0774732241698075	57	systole	16	B	500	systole
842.5284999999999	0.0788766688492614	58	diastole	1	B	500	diastole
843.1484999999998	0.0788766688492614	58	diastole	2	B	500	diastole
843.7685000000001	0.0788766688492614	58	diastole	3	B	500	diastole
844.3784999999998	0.0788766688492614	58	diastole	4	B	500	diastole
844.9686000000002	0.0788766688492614	58	diastole	5	B	500	diastole
845.5702000000001	0.0788766688492614	58	diastole	6	B	500	diastole
846.2019	0.0788766688492614	58	diastole	7	B	500	diastole
846.8418999999999	0.0788766688492614	58	diastole	8	B	500	diastole
847.5120000000002	0.0788766688492614	58	diastole	9	B	500	diastole
848.1819999999998	0.0788766688492614	58	diastole	10	B	500	diastole
848.9087	0.0788766688492614	58	diastole	11	B	500	diastole
849.6187	0.0788766688492614	58	diastole	12	B	500	diastole
850.3919999999998	0.0788766688492614	58	diastole	13	B	500	diastole
851.0419999999999	0.0788766688492614	58	diastole	14	B	500	diastole
851.6921000000002	0.0788766688492614	58	diastole	15	B	500	diastole
854.0043999999998	0.0837578063365072	59	systole	1	B	500	systole
854.6844000000001	0.0837578063365072	59	systole	2	B	500	systole
855.3326999999999	0.0837578063365072	59	systole	3	B	500	systole
855.9928	0.0837578063365072	59	systole	4	B	500	systole
856.6109000000001	0.0837578063365072	59	systole	5	B	500	systole
857.2350999999999	0.0837578063365072	59	systole	6	B	500	systole
857.8651	0.0837578063365072	59	systole	7	B	500	systole
858.4951000000001	0.0837578063365072	59	systole	8	B	500	systole
859.1709999999998	0.0837578063365072	59	systole	9	B	500	systole
859.8409999999999	0.0837578063365072	59	systole	10	B	500	systole
860.614	0.0837578063365072	59	systole	11	B	500	systole
861.3341	0.0837578063365072	59	systole	12	B	500	systole
862.0542	0.0837578063365072	59	systole	13	B	500	systole
862.7743	0.0837578063365072	59	systole	14	B	500	systole
863.4976000000001	0.0837578063365072	59	systole	15	B	500	systole
869.0985000000001	0.0826162105950061	60	diastole	1	B	500	systole
869.7384999999999	0.0826162105950061	60	diastole	2	B	500	systole
870.3886000000002	0.0826162105950061	60	diastole	3	B	500	systole
871.0302999999999	0.0826162105950061	60	diastole	4	B	500	systole
871.6904	0.0826162105950061	60	diastole	5	B	500	systole
872.3505	0.0826162105950061	60	diastole	6	B	500	systole
873.018	0.0826162105950061	60	diastole	7	B	500	systole
873.6884	0.0826162105950061	60	diastole	8	B	500	systole
874.3587000000002	0.0826162105950061	60	diastole	9	B	500	systole
875.0187000000001	0.0826162105950061	60	diastole	10	B	500	systole
875.6786999999999	0.0826162105950061	60	diastole	11	B	500	systole
876.3492000000001	0.0826162105950061	60	diastole	12	B	500	systole
877.0457999999999	0.0826162105950061	60	diastole	13	B	500	systole
877.7357000000002	0.0826162105950061	60	diastole	14	B	500	systole
891.6183000000001	0.0937336060451343	61	diastole	1	B	500	diastole
892.2582000000002	0.0937336060451343	61	diastole	2	B	500	diastole
892.8980999999999	0.0937336060451343	61	diastole	3	B	500	diastole
893.5081	0.0937336060451343	61	diastole	4	B	500	diastole
894.0565999999999	0.0937336060451343	61	diastole	5	B	500	diastole
894.5884000000001	0.0937336060451343	61	diastole	6	B	500	diastole
895.1082000000001	0.0937336060451343	61	diastole	7	B	500	diastole
895.7282	0.0937336060451343	61	diastole	8	B	500	diastole
896.3481000000002	0.0937336060451343	61	diastole	9	B	500	diastole
897.0583000000001	0.0937336060451343	61	diastole	10	B	500	diastole
897.8182999999999	0.0937336060451343	61	diastole	11	B	500	diastole
898.5882000000001	0.0937336060451343	61	diastole	12	B	500	diastole
899.3849	0.0937336060451343	61	diastole	13	B	500	diastole
900.1649000000002	0.0937336060451343	61	diastole	14	B	500	diastole
900.9917	0.0937336060451343	61	diastole	15	B	500	diastole
904.3101999999999	0.0875062234699726	62	diastole	1	B	500	diastole
904.9133000000002	0.0875062234699726	62	diastole	2	B	500	diastole
905.5333	0.0875062234699726	62	diastole	3	B	500	diastole
906.1565	0.0875062234699726	62	diastole	4	B	500	diastole
906.7783	0.0875062234699726	62	diastole	5	B	500	diastole
907.4200000000001	0.0875062234699726	62	diastole	6	B	500	diastole
908.0618	0.0875062234699726	62	diastole	7	B	500	diastole
908.7318	0.0875062234699726	62	diastole	8	B	500	diastole
909.4218000000001	0.0875062234699726	62	diastole	9	B	500	diastole
910.1017000000002	0.0875062234699726	62	diastole	10	B	500	diastole
910.7817	0.0875062234699726	62	diastole	11	B	500	diastole
911.5032999999999	0.0875062234699726	62	diastole	12	B	500	diastole
912.1730000000002	0.0875062234699726	62	diastole	13	B	500	diastole
912.8436000000002	0.0875062234699726	62	diastole	14	B	500	diastole
913.5138999999999	0.0875062234699726	62	diastole	15	B	500	diastole
917.3035	0.0812470750242937	63	diastole	1	B	500	diastole
917.9069	0.0812470750242937	63	diastole	2	B	500	diastole
918.4904000000001	0.0812470750242937	63	diastole	3	B	500	diastole
919.0904	0.0812470750242937	63	diastole	4	B	500	diastole
919.672	0.0812470750242937	63	diastole	5	B	500	diastole
920.2619	0.0812470750242937	63	diastole	6	B	500	diastole
920.8618000000001	0.0812470750242937	63	diastole	7	B	500	diastole
921.4618	0.0812470750242937	63	diastole	8	B	500	diastole
922.0817999999999	0.0812470750242937	63	diastole	9	B	500	diastole
922.7017999999998	0.0812470750242937	63	diastole	10	B	500	diastole
923.3217	0.0812470750242937	63	diastole	11	B	500	diastole
923.9715999999999	0.0812470750242937	63	diastole	12	B	500	diastole
924.6219999999998	0.0812470750242937	63	diastole	13	B	500	diastole
925.3018999999999	0.0812470750242937	63	diastole	14	B	500	diastole
925.9814999999999	0.0812470750242937	63	diastole	15	B	500	diastole
926.6913	0.0812470750242937	63	diastole	16	B	500	diastole
932.8166000000001	0.0762374458718113	64	diastole	1	B	500	diastole
933.3600000000001	0.0762374458718113	64	diastole	2	B	500	diastole
933.9200000000001	0.0762374458718113	64	diastole	3	B	500	diastole
934.48	0.0762374458718113	64	diastole	4	B	500	diastole
935.0136000000002	0.0762374458718113	64	diastole	5	B	500	diastole
935.6251000000002	0.0762374458718113	64	diastole	6	B	500	diastole
936.2451000000001	0.0762374458718113	64	diastole	7	B	500	diastole
937.0151000000001	0.0762374458718113	64	diastole	8	B	500	diastole
937.8649999999998	0.0762374458718113	64	diastole	9	B	500	diastole
938.7149	0.0762374458718113	64	diastole	10	B	500	diastole
939.7667000000001	0.0762374458718113	64	diastole	11	B	500	diastole
940.6266999999998	0.0762374458718113	64	diastole	12	B	500	diastole
941.6950000000002	0.0762374458718113	64	diastole	13	B	500	diastole
948.2869000000001	0.103757838049205	65	diastole	1	B	500	diastole
949.0268999999998	0.103757838049205	65	diastole	2	B	500	diastole
949.7220000000002	0.103757838049205	65	diastole	3	B	500	diastole
950.3969999999999	0.103757838049205	65	diastole	4	B	500	diastole
951.0801999999999	0.103757838049205	65	diastole	5	B	500	diastole
951.7800000000002	0.103757838049205	65	diastole	6	B	500	diastole
952.4248000000002	0.103757838049205	65	diastole	7	B	500	diastole
953.1749	0.103757838049205	65	diastole	8	B	500	diastole
953.9548	0.103757838049205	65	diastole	9	B	500	diastole
954.7149	0.103757838049205	65	diastole	10	B	500	diastole
955.4749000000002	0.103757838049205	65	diastole	11	B	500	diastole
956.2325000000001	0.103757838049205	65	diastole	12	B	500	diastole
956.9857999999999	0.103757838049205	65	diastole	13	B	500	diastole
960.317	0.0923724460008088	66	diastole	1	B	500	systole
960.9769999999999	0.0923724460008088	66	diastole	2	B	500	systole
961.605	0.0923724460008088	66	diastole	3	B	500	systole
962.1884	0.0923724460008088	66	diastole	4	B	500	systole
962.8380000000002	0.0923724460008088	66	diastole	5	B	500	systole
963.4877999999999	0.0923724460008088	66	diastole	6	B	500	systole
964.1477	0.0923724460008088	66	diastole	7	B	500	systole
964.8177000000001	0.0923724460008088	66	diastole	8	B	500	systole
965.4877000000001	0.0923724460008088	66	diastole	9	B	500	systole
966.1677	0.0923724460008088	66	diastole	10	B	500	systole
966.8476999999998	0.0923724460008088	66	diastole	11	B	500	systole
967.5464000000002	0.0923724460008088	66	diastole	12	B	500	systole
968.2244000000001	0.0923724460008088	66	diastole	13	B	500	systole
968.9126999999999	0.0923724460008088	66	diastole	14	B	500	systole
972.0767999999998	0.0843736999959219	67	diastole	1	B	500	diastole
972.6617999999999	0.0843736999959219	67	diastole	2	B	500	diastole
973.2487000000001	0.0843736999959219	67	diastole	3	B	500	diastole
973.8887	0.0843736999959219	67	diastole	4	B	500	diastole
974.5286999999998	0.0843736999959219	67	diastole	5	B	500	diastole
975.1687000000002	0.0843736999959219	67	diastole	6	B	500	diastole
975.7903000000001	0.0843736999959219	67	diastole	7	B	500	diastole
976.4203000000002	0.0843736999959219	67	diastole	8	B	500	diastole
977.0322000000001	0.0843736999959219	67	diastole	9	B	500	diastole
977.6705000000002	0.0843736999959219	67	diastole	10	B	500	diastole
978.3285999999998	0.0843736999959219	67	diastole	11	B	500	diastole
979.0068999999999	0.0843736999959219	67	diastole	12	B	500	diastole
979.7251000000001	0.0843736999959219	67	diastole	13	B	500	diastole
980.435	0.0843736999959219	67	diastole	14	B	500	diastole
981.1981000000001	0.0843736999959219	67	diastole	15	B	500	diastole
983.7811999999999	0.0881230549421161	68	systole	1	B	500	diastole
984.4212000000002	0.0881230549421161	68	systole	2	B	500	diastole
985.0412000000001	0.0881230549421161	68	systole	3	B	500	diastole
985.6610999999998	0.0881230549421161	68	systole	4	B	500	diastole
986.2811000000002	0.0881230549421161	68	systole	5	B	500	diastole
986.8951999999999	0.0881230549421161	68	systole	6	B	500	diastole
987.4857999999999	0.0881230549421161	68	systole	7	B	500	diastole
988.087	0.0881230549421161	68	systole	8	B	500	diastole
988.7768999999998	0.0881230549421161	68	systole	9	B	500	diastole
989.4668000000001	0.0881230549421161	68	systole	10	B	500	diastole
990.1563999999998	0.0881230549421161	68	systole	11	B	500	diastole
990.8461000000002	0.0881230549421161	68	systole	12	B	500	diastole
991.5663	0.0881230549421161	68	systole	13	B	500	diastole
992.3051999999998	0.0881230549421161	68	systole	14	B	500	diastole
993.0127000000002	0.0881230549421161	68	systole	15	B	500	diastole
998.7905999999998	0.0812321651610545	69	systole	1	B	500	systole
999.3991999999998	0.0812321651610545	69	systole	2	B	500	systole
999.9975	0.0812321651610545	69	systole	3	B	500	systole
1000.6075000000001	0.0812321651610545	69	systole	4	B	500	systole
1001.2175000000002	0.0812321651610545	69	systole	5	B	500	systole
1001.8118	0.0812321651610545	69	systole	6	B	500	systole
1002.4119000000001	0.0812321651610545	69	systole	7	B	500	systole
1003.0318000000002	0.0812321651610545	69	systole	8	B	500	systole
1003.6516999999999	0.0812321651610545	69	systole	9	B	500	systole
1004.2917000000002	0.0812321651610545	69	systole	10	B	500	systole
1004.9517000000001	0.0812321651610545	69	systole	11	B	500	systole
1005.6116000000002	0.0812321651610545	69	systole	12	B	500	systole
1006.2876000000001	0.0812321651610545	69	systole	13	B	500	systole
1007.0068000000001	0.0812321651610545	69	systole	14	B	500	systole
1007.6968000000002	0.0812321651610545	69	systole	15	B	500	systole
1011.5715	0.0849913790880236	70	diastole	1	B	500	systole
1012.2114000000001	0.0849913790880236	70	diastole	2	B	500	systole
1012.8512999999998	0.0849913790880236	70	diastole	3	B	500	systole
1013.4348	0.0849913790880236	70	diastole	4	B	500	systole
1013.9814000000001	0.0849913790880236	70	diastole	5	B	500	systole
1014.5382	0.0849913790880236	70	diastole	6	B	500	systole
1015.1280999999999	0.0849913790880236	70	diastole	7	B	500	systole
1015.6949	0.0849913790880236	70	diastole	8	B	500	systole
1016.3649999999998	0.0849913790880236	70	diastole	9	B	500	systole
1017.1044999999999	0.0849913790880236	70	diastole	10	B	500	systole
1017.8645000000001	0.0849913790880236	70	diastole	11	B	500	systole
1018.6244999999999	0.0849913790880236	70	diastole	12	B	500	systole
1019.4630999999999	0.0849913790880236	70	diastole	13	B	500	systole
1020.2431000000001	0.0849913790880236	70	diastole	14	B	500	systole
1024.0277	0.0936986031301785	71	diastole	1	B	500	diastole
1024.6918999999998	0.0936986031301785	71	diastole	2	B	500	diastole
1025.3638	0.0936986031301785	71	diastole	3	B	500	diastole
1025.9501	0.0936986031301785	71	diastole	4	B	500	diastole
1026.5338000000002	0.0936986031301785	71	diastole	5	B	500	diastole
1027.1423	0.0936986031301785	71	diastole	6	B	500	diastole
1027.7121000000002	0.0936986031301785	71	diastole	7	B	500	diastole
1028.2721999999999	0.0936986031301785	71	diastole	8	B	500	diastole
1028.8854999999999	0.0936986031301785	71	diastole	9	B	500	diastole
1029.5455000000002	0.0936986031301785	71	diastole	10	B	500	diastole
1030.2055	0.0936986031301785	71	diastole	11	B	500	diastole
1030.8455	0.0936986031301785	71	diastole	12	B	500	diastole
1031.4856	0.0936986031301785	71	diastole	13	B	500	diastole
1032.1255	0.0936986031301785	71	diastole	14	B	500	diastole
1032.7655	0.0936986031301785	71	diastole	15	B	500	diastole
1036.4926	0.0812450149096548	72	systole	1	B	500	diastole
1037.1626999999999	0.0812450149096548	72	systole	2	B	500	diastole
1037.8327	0.0812450149096548	72	systole	3	B	500	diastole
1038.4726999999998	0.0812450149096548	72	systole	4	B	500	diastole
1039.0926	0.0812450149096548	72	systole	5	B	500	diastole
1039.7026	0.0812450149096548	72	systole	6	B	500	diastole
1040.3125	0.0812450149096548	72	systole	7	B	500	diastole
1040.9068000000002	0.0812450149096548	72	systole	8	B	500	diastole
1041.4933999999998	0.0812450149096548	72	systole	9	B	500	diastole
1042.1176	0.0812450149096548	72	systole	10	B	500	diastole
1042.7476000000001	0.0812450149096548	72	systole	11	B	500	diastole
1043.3975999999998	0.0812450149096548	72	systole	12	B	500	diastole
1044.0776999999998	0.0812450149096548	72	systole	13	B	500	diastole
1044.7577999999999	0.0812450149096548	72	systole	14	B	500	diastole
1045.4735999999998	0.0812450149096548	72	systole	15	B	500	diastole
1048.9485	0.0825037311878986	73	diastole	1	B	500	diastole
1049.5585999999998	0.0825037311878986	73	diastole	2	B	500	diastole
1050.1266999999998	0.0825037311878986	73	diastole	3	B	500	diastole
1050.7035	0.0825037311878986	73	diastole	4	B	500	diastole
1051.3051999999998	0.0825037311878986	73	diastole	5	B	500	diastole
1051.9152	0.0825037311878986	73	diastole	6	B	500	diastole
1052.5353	0.0825037311878986	73	diastole	7	B	500	diastole
1053.1554	0.0825037311878986	73	diastole	8	B	500	diastole
1053.8555000000001	0.0825037311878986	73	diastole	9	B	500	diastole
1054.5954000000002	0.0825037311878986	73	diastole	10	B	500	diastole
1055.3353000000002	0.0825037311878986	73	diastole	11	B	500	diastole
1056.0752000000002	0.0825037311878986	73	diastole	12	B	500	diastole
1056.8237	0.0825037311878986	73	diastole	13	B	500	diastole
1057.6151	0.0825037311878986	73	diastole	14	B	500	diastole
1058.4119	0.0825037311878986	73	diastole	15	B	500	diastole
1061.1785	0.08563023750321	74	systole	1	B	500	systole
1061.8283999999999	0.08563023750321	74	systole	2	B	500	systole
1062.4409	0.08563023750321	74	systole	3	B	500	systole
1063.0709000000002	0.08563023750321	74	systole	4	B	500	systole
1063.6749	0.08563023750321	74	systole	5	B	500	systole
1064.279	0.08563023750321	74	systole	6	B	500	systole
1064.8851	0.08563023750321	74	systole	7	B	500	systole
1065.4969999999998	0.08563023750321	74	systole	8	B	500	systole
1066.1088	0.08563023750321	74	systole	9	B	500	systole
1066.8134	0.08563023750321	74	systole	10	B	500	systole
1067.5333999999998	0.08563023750321	74	systole	11	B	500	systole
1068.2534	0.08563023750321	74	systole	12	B	500	systole
1069.0167999999999	0.08563023750321	74	systole	13	B	500	systole
1069.7568	0.08563023750321	74	systole	14	B	500	systole
1070.5331	0.08563023750321	74	systole	15	B	500	systole
1071.3022	0.08563023750321	74	systole	16	B	500	systole
1075.0201000000002	0.0906163125182502	75	diastole	1	B	500	diastole
1075.6217000000001	0.0906163125182502	75	diastole	2	B	500	diastole
1076.1803	0.0906163125182502	75	diastole	3	B	500	diastole
1076.7804	0.0906163125182502	75	diastole	4	B	500	diastole
1077.2869	0.0906163125182502	75	diastole	5	B	500	diastole
1077.8769000000002	0.0906163125182502	75	diastole	6	B	500	diastole
1078.4283999999998	0.0906163125182502	75	diastole	7	B	500	diastole
1078.9932	0.0906163125182502	75	diastole	8	B	500	diastole
1079.6017000000002	0.0906163125182502	75	diastole	9	B	500	diastole
1080.2116999999998	0.0906163125182502	75	diastole	10	B	500	diastole
1080.8217	0.0906163125182502	75	diastole	11	B	500	diastole
1081.4316	0.0906163125182502	75	diastole	12	B	500	diastole
1082.0515999999998	0.0906163125182502	75	diastole	13	B	500	diastole
1082.6882	0.0906163125182502	75	diastole	14	B	500	diastole
1083.3084	0.0906163125182502	75	diastole	15	B	500	diastole
1083.9467	0.0906163125182502	75	diastole	16	B	500	diastole
1086.4116	0.0774980352143757	76	diastole	1	B	500	systole
1087.0115999999998	0.0774980352143757	76	diastole	2	B	500	systole
1087.6116000000002	0.0774980352143757	76	diastole	3	B	500	systole
1088.1918	0.0774980352143757	76	diastole	4	B	500	systole
1088.7633999999998	0.0774980352143757	76	diastole	5	B	500	systole
1089.3368	0.0774980352143757	76	diastole	6	B	500	systole
1089.9101999999998	0.0774980352143757	76	diastole	7	B	500	systole
1090.5002	0.0774980352143757	76	diastole	8	B	500	systole
1091.1100999999999	0.0774980352143757	76	diastole	9	B	500	systole
1091.8101000000001	0.0774980352143757	76	diastole	10	B	500	systole
1092.5102000000002	0.0774980352143757	76	diastole	11	B	500	systole
1093.2102	0.0774980352143757	76	diastole	12	B	500	systole
1094.0084000000002	0.0774980352143757	76	diastole	13	B	500	systole
1094.7485000000001	0.0774980352143757	76	diastole	14	B	500	systole
1095.5335	0.0774980352143757	76	diastole	15	B	500	systole
1096.2734999999998	0.0774980352143757	76	diastole	16	B	500	systole
1098.9553	0.0881280411267653	77	diastole	1	B	500	diastole
1099.5502999999999	0.0881280411267653	77	diastole	2	B	500	diastole
1100.1269000000002	0.0881280411267653	77	diastole	3	B	500	diastole
1100.7053999999998	0.0881280411267653	77	diastole	4	B	500	diastole
1101.3252000000002	0.0881280411267653	77	diastole	5	B	500	diastole
1101.9384	0.0881280411267653	77	diastole	6	B	500	diastole
1102.5783999999999	0.0881280411267653	77	diastole	7	B	500	diastole
1103.2183	0.0881280411267653	77	diastole	8	B	500	diastole
1103.8683999999998	0.0881280411267653	77	diastole	9	B	500	diastole
1104.5185000000001	0.0881280411267653	77	diastole	10	B	500	diastole
1105.2163999999998	0.0881280411267653	77	diastole	11	B	500	diastole
1105.9449	0.0881280411267653	77	diastole	12	B	500	diastole
1106.7183	0.0881280411267653	77	diastole	13	B	500	diastole
1107.4915999999998	0.0881280411267653	77	diastole	14	B	500	diastole
1108.2732999999998	0.0881280411267653	77	diastole	15	B	500	diastole
1114.5408000000002	0.08249284219346	78	systole	1	B	500	diastole
1115.1608	0.08249284219346	78	systole	2	B	500	diastole
1115.7593000000002	0.08249284219346	78	systole	3	B	500	diastole
1116.3694999999998	0.08249284219346	78	systole	4	B	500	diastole
1116.9879	0.08249284219346	78	systole	5	B	500	diastole
1117.6179000000002	0.08249284219346	78	systole	6	B	500	diastole
1118.2478999999998	0.08249284219346	78	systole	7	B	500	diastole
1118.8878	0.08249284219346	78	systole	8	B	500	diastole
1119.5277999999998	0.08249284219346	78	systole	9	B	500	diastole
1120.1779000000001	0.08249284219346	78	systole	10	B	500	diastole
1120.8337999999999	0.08249284219346	78	systole	11	B	500	diastole
1121.5095000000001	0.08249284219346	78	systole	12	B	500	diastole
1122.1853	0.08249284219346	78	systole	13	B	500	diastole
1122.8772	0.08249284219346	78	systole	14	B	500	diastole
1123.5572000000002	0.08249284219346	78	systole	15	B	500	diastole
1126.4886999999999	0.0825095812324434	79	diastole	1	B	500	diastole
1127.0987	0.0825095812324434	79	diastole	2	B	500	diastole
1127.6736	0.0825095812324434	79	diastole	3	B	500	diastole
1128.2305999999999	0.0825095812324434	79	diastole	4	B	500	diastole
1128.8204999999998	0.0825095812324434	79	diastole	5	B	500	diastole
1129.3836999999999	0.0825095812324434	79	diastole	6	B	500	diastole
1129.9569999999999	0.0825095812324434	79	diastole	7	B	500	diastole
1130.5686999999998	0.0825095812324434	79	diastole	8	B	500	diastole
1131.1887000000002	0.0825095812324434	79	diastole	9	B	500	diastole
1131.8085999999998	0.0825095812324434	79	diastole	10	B	500	diastole
1132.4286000000002	0.0825095812324434	79	diastole	11	B	500	diastole
1133.0787	0.0825095812324434	79	diastole	12	B	500	diastole
1133.7287000000001	0.0825095812324434	79	diastole	13	B	500	diastole
1134.3787000000002	0.0825095812324434	79	diastole	14	B	500	diastole
1135.0688	0.0825095812324434	79	diastole	15	B	500	diastole
1135.667	0.0825095812324434	79	diastole	16	B	500	diastole
1138.1452	0.0731341607170179	80	systole	1	B	500	systole
1138.7152	0.0731341607170179	80	systole	2	B	500	systole
1139.2851999999998	0.0731341607170179	80	systole	3	B	500	systole
1139.8434000000002	0.0731341607170179	80	systole	4	B	500	systole
1140.4234999999999	0.0731341607170179	80	systole	5	B	500	systole
1141.0034	0.0731341607170179	80	systole	6	B	500	systole
1141.6034	0.0731341607170179	80	systole	7	B	500	systole
1142.2233999999999	0.0731341607170179	80	systole	8	B	500	systole
1142.8694	0.0731341607170179	80	systole	9	B	500	systole
1143.5268	0.0731341607170179	80	systole	10	B	500	systole
1144.1668	0.0731341607170179	80	systole	11	B	500	systole
1144.8202	0.0731341607170179	80	systole	12	B	500	systole
1145.4577	0.0731341607170179	80	systole	13	B	500	systole
1146.0776999999998	0.0731341607170179	80	systole	14	B	500	systole
1146.6977000000002	0.0731341607170179	80	systole	15	B	500	systole
1147.3094999999998	0.0731341607170179	80	systole	16	B	500	systole
1149.5501	0.0749006636615376	81	systole	1	B	500	diastole
1150.1201	0.0749006636615376	81	systole	2	B	500	diastole
1150.6900999999998	0.0749006636615376	81	systole	3	B	500	diastole
1151.2894000000001	0.0749006636615376	81	systole	4	B	500	diastole
1151.9995	0.0749006636615376	81	systole	5	B	500	diastole
1152.7096000000001	0.0749006636615376	81	systole	6	B	500	diastole
1153.4197	0.0749006636615376	81	systole	7	B	500	diastole
1154.1697	0.0749006636615376	81	systole	8	B	500	diastole
1154.9998	0.0749006636615376	81	systole	9	B	500	diastole
1155.7599	0.0749006636615376	81	systole	10	B	500	diastole
1156.6407	0.0749006636615376	81	systole	11	B	500	diastole
1157.4107	0.0749006636615376	81	systole	12	B	500	diastole
1158.1807	0.0749006636615376	81	systole	13	B	500	diastole
1158.9596999999999	0.0749006636615376	81	systole	14	B	500	diastole
1163.4519	0.0906311937142163	82	diastole	1	B	500	diastole
1164.0821999999998	0.0906311937142163	82	diastole	2	B	500	diastole
1164.6488	0.0906311937142163	82	diastole	3	B	500	diastole
1165.1689999999999	0.0906311937142163	82	diastole	4	B	500	diastole
1165.739	0.0906311937142163	82	diastole	5	B	500	diastole
1166.2657	0.0906311937142163	82	diastole	6	B	500	diastole
1166.7323000000001	0.0906311937142163	82	diastole	7	B	500	diastole
1167.2822999999999	0.0906311937142163	82	diastole	8	B	500	diastole
1167.8074000000001	0.0906311937142163	82	diastole	9	B	500	diastole
1168.3422999999998	0.0906311937142163	82	diastole	10	B	500	diastole
1168.9143	0.0906311937142163	82	diastole	11	B	500	diastole
1169.4923	0.0906311937142163	82	diastole	12	B	500	diastole
1170.0704	0.0906311937142163	82	diastole	13	B	500	diastole
1170.6403	0.0906311937142163	82	diastole	14	B	500	diastole
1171.2223	0.0906311937142163	82	diastole	15	B	500	diastole
1171.8042999999998	0.0906311937142163	82	diastole	16	B	500	diastole
1172.3863000000001	0.0906311937142163	82	diastole	17	B	500	diastole
1177.2950999999998	0.072505713062128	83	systole	1	B	500	diastole
1177.8652000000002	0.072505713062128	83	systole	2	B	500	diastole
1178.4352	0.072505713062128	83	systole	3	B	500	diastole
1179.0048000000002	0.072505713062128	83	systole	4	B	500	diastole
1179.5747000000001	0.072505713062128	83	systole	5	B	500	diastole
1180.165	0.072505713062128	83	systole	6	B	500	diastole
1180.8049	0.072505713062128	83	systole	7	B	500	diastole
1181.4607	0.072505713062128	83	systole	8	B	500	diastole
1182.1507000000001	0.072505713062128	83	systole	9	B	500	diastole
1182.8957	0.072505713062128	83	systole	10	B	500	diastole
1183.6057	0.072505713062128	83	systole	11	B	500	diastole
1184.3865999999998	0.072505713062128	83	systole	12	B	500	diastole
1185.1498000000001	0.072505713062128	83	systole	13	B	500	diastole
1185.9149000000002	0.072505713062128	83	systole	14	B	500	diastole
1186.6448999999998	0.072505713062128	83	systole	15	B	500	diastole
1187.3539	0.072505713062128	83	systole	16	B	500	diastole
1190.9903	0.0876275583577808	84	diastole	1	B	500	systole
1191.6006000000002	0.0876275583577808	84	diastole	2	B	500	systole
1192.1722	0.0876275583577808	84	diastole	3	B	500	systole
1192.7356	0.0876275583577808	84	diastole	4	B	500	systole
1193.3256000000001	0.0876275583577808	84	diastole	5	B	500	systole
1193.8789000000002	0.0876275583577808	84	diastole	6	B	500	systole
1194.5493000000001	0.0876275583577808	84	diastole	7	B	500	systole
1195.2197	0.0876275583577808	84	diastole	8	B	500	systole
1195.9393	0.0876275583577808	84	diastole	9	B	500	systole
1196.6589	0.0876275583577808	84	diastole	10	B	500	systole
1197.3784999999998	0.0876275583577808	84	diastole	11	B	500	systole
1198.1464999999998	0.0876275583577808	84	diastole	12	B	500	systole
1198.9585000000002	0.0876275583577808	84	diastole	13	B	500	systole
1199.8330999999998	0.0876275583577808	84	diastole	14	B	500	systole
1204.1257999999998	0.0868545684497803	85	systole	1	B	500	diastole
1204.6981999999998	0.0868545684497803	85	systole	2	B	500	diastole
1205.2881000000002	0.0868545684497803	85	systole	3	B	500	diastole
1205.8521999999998	0.0868545684497803	85	systole	4	B	500	diastole
1206.4218999999998	0.0868545684497803	85	systole	5	B	500	diastole
1207.0030000000002	0.0868545684497803	85	systole	6	B	500	diastole
1207.6846	0.0868545684497803	85	systole	7	B	500	diastole
1208.3946	0.0868545684497803	85	systole	8	B	500	diastole
1209.1046000000001	0.0868545684497803	85	systole	9	B	500	diastole
1209.8380000000002	0.0868545684497803	85	systole	10	B	500	diastole
1210.6053000000002	0.0868545684497803	85	systole	11	B	500	diastole
1211.3249999999998	0.0868545684497803	85	systole	12	B	500	diastole
1212.0803	0.0868545684497803	85	systole	13	B	500	diastole
1212.7603	0.0868545684497803	85	systole	14	B	500	diastole
1213.4404	0.0868545684497803	85	systole	15	B	500	diastole
1218.7059	0.0781227124971337	86	systole	1	B	500	systole
1219.2658999999999	0.0781227124971337	86	systole	2	B	500	systole
1219.7926000000002	0.0781227124971337	86	systole	3	B	500	systole
1220.3017	0.0781227124971337	86	systole	4	B	500	systole
1220.8517000000002	0.0781227124971337	86	systole	5	B	500	systole
1221.4117	0.0781227124971337	86	systole	6	B	500	systole
1222.0016999999998	0.0781227124971337	86	systole	7	B	500	systole
1222.6018	0.0781227124971337	86	systole	8	B	500	systole
1223.2718	0.0781227124971337	86	systole	9	B	500	systole
1223.9693000000002	0.0781227124971337	86	systole	10	B	500	systole
1224.6826999999998	0.0781227124971337	86	systole	11	B	500	systole
1225.3917999999999	0.0781227124971337	86	systole	12	B	500	systole
1226.1026000000002	0.0781227124971337	86	systole	13	B	500	systole
1226.8001	0.0781227124971337	86	systole	14	B	500	systole
1227.4701	0.0781227124971337	86	systole	15	B	500	systole
1228.1399999999999	0.0781227124971337	86	systole	16	B	500	systole
1232.6336000000001	0.0843810110818594	87	diastole	1	B	500	systole
1233.2736	0.0843810110818594	87	diastole	2	B	500	systole
1233.8771000000002	0.0843810110818594	87	diastole	3	B	500	systole
1234.4769999999999	0.0843810110818594	87	diastole	4	B	500	systole
1235.0348	0.0843810110818594	87	diastole	5	B	500	systole
1235.5928	0.0843810110818594	87	diastole	6	B	500	systole
1236.1176999999998	0.0843810110818594	87	diastole	7	B	500	systole
1236.5961000000002	0.0843810110818594	87	diastole	8	B	500	systole
1237.1527999999998	0.0843810110818594	87	diastole	9	B	500	systole
1237.7131	0.0843810110818594	87	diastole	10	B	500	systole
1238.3031	0.0843810110818594	87	diastole	11	B	500	systole
1238.8931000000002	0.0843810110818594	87	diastole	12	B	500	systole
1239.4831	0.0843810110818594	87	diastole	13	B	500	systole
1240.0933	0.0843810110818594	87	diastole	14	B	500	systole
1240.7233999999999	0.0843810110818594	87	diastole	15	B	500	systole
1241.3734	0.0843810110818594	87	diastole	16	B	500	systole
1242.0629	0.0843810110818594	87	diastole	17	B	500	systole
1245.1852	0.0800067124364432	88	systole	1	B	500	diastole
1245.8152	0.0800067124364432	88	systole	2	B	500	diastole
1246.4476	0.0800067124364432	88	systole	3	B	500	diastole
1247.0758999999998	0.0800067124364432	88	systole	4	B	500	diastole
1247.7159000000001	0.0800067124364432	88	systole	5	B	500	diastole
1248.3759	0.0800067124364432	88	systole	6	B	500	diastole
1249.0459999999998	0.0800067124364432	88	systole	7	B	500	diastole
1249.7260999999999	0.0800067124364432	88	systole	8	B	500	diastole
1250.4218999999998	0.0800067124364432	88	systole	9	B	500	diastole
1251.1361000000002	0.0800067124364432	88	systole	10	B	500	diastole
1251.812	0.0800067124364432	88	systole	11	B	500	diastole
1252.4821000000002	0.0800067124364432	88	systole	12	B	500	diastole
1253.1320999999998	0.0800067124364432	88	systole	13	B	500	diastole
1253.7721000000001	0.0800067124364432	88	systole	14	B	500	diastole
1254.4119999999998	0.0800067124364432	88	systole	15	B	500	diastole
1257.3195	0.079999300010968	89	systole	1	B	500	systole
1257.8597	0.079999300010968	89	systole	2	B	500	systole
1258.4162000000001	0.079999300010968	89	systole	3	B	500	systole
1258.9310999999998	0.079999300010968	89	systole	4	B	500	systole
1259.4794000000002	0.079999300010968	89	systole	5	B	500	systole
1260.0392000000002	0.079999300010968	89	systole	6	B	500	systole
1260.5776999999998	0.079999300010968	89	systole	7	B	500	systole
1261.116	0.079999300010968	89	systole	8	B	500	systole
1261.6660000000002	0.079999300010968	89	systole	9	B	500	systole
1262.2359999999999	0.079999300010968	89	systole	10	B	500	systole
1262.8361	0.079999300010968	89	systole	11	B	500	systole
1263.4816999999998	0.079999300010968	89	systole	12	B	500	systole
1264.0974999999999	0.079999300010968	89	systole	13	B	500	systole
1264.7073999999998	0.079999300010968	89	systole	14	B	500	systole
1265.3483999999999	0.079999300010968	89	systole	15	B	500	systole
1265.9484000000002	0.079999300010968	89	systole	16	B	500	systole
1266.5384	0.079999300010968	89	systole	17	B	500	systole
1273.7256000000002	0.0843654793861787	90	systole	1	B	500	diastole
1274.4742999999999	0.0843654793861787	90	systole	2	B	500	diastole
1275.2042999999999	0.0843654793861787	90	systole	3	B	500	diastole
1275.8943	0.0843654793861787	90	systole	4	B	500	diastole
1276.5537	0.0843654793861787	90	systole	5	B	500	diastole
1277.2138	0.0843654793861787	90	systole	6	B	500	diastole
1277.8739	0.0843654793861787	90	systole	7	B	500	diastole
1278.6264999999999	0.0843654793861787	90	systole	8	B	500	diastole
1279.3964999999998	0.0843654793861787	90	systole	9	B	500	diastole
1280.1765	0.0843654793861787	90	systole	10	B	500	diastole
1280.9618	0.0843654793861787	90	systole	11	B	500	diastole
1281.6918	0.0843654793861787	90	systole	12	B	500	diastole
1282.4218	0.0843654793861787	90	systole	13	B	500	diastole
1283.1218	0.0843654793861787	90	systole	14	B	500	diastole
1285.8764999999999	0.0893782499479129	91	systole	1	B	500	diastole
1286.5965	0.0893782499479129	91	systole	2	B	500	diastole
1287.3166	0.0893782499479129	91	systole	3	B	500	diastole
1287.9850000000001	0.0893782499479129	91	systole	4	B	500	diastole
1288.6691	0.0893782499479129	91	systole	5	B	500	diastole
1289.3631999999998	0.0893782499479129	91	systole	6	B	500	diastole
1290.0632	0.0893782499479129	91	systole	7	B	500	diastole
1290.779	0.0893782499479129	91	systole	8	B	500	diastole
1291.505	0.0893782499479129	91	systole	9	B	500	diastole
1292.2307999999998	0.0893782499479129	91	systole	10	B	500	diastole
1292.9467	0.0893782499479129	91	systole	11	B	500	diastole
1293.6667000000002	0.0893782499479129	91	systole	12	B	500	diastole
1294.3766	0.0893782499479129	91	systole	13	B	500	diastole
1295.0767	0.0893782499479129	91	systole	14	B	500	diastole
1300.19	0.0825026658421848	92	systole	1	B	500	systole
1300.7840999999999	0.0825026658421848	92	systole	2	B	500	systole
1301.3924000000002	0.0825026658421848	92	systole	3	B	500	systole
1302.0124	0.0825026658421848	92	systole	4	B	500	systole
1302.5943000000002	0.0825026658421848	92	systole	5	B	500	systole
1303.1828	0.0825026658421848	92	systole	6	B	500	systole
1303.7702	0.0825026658421848	92	systole	7	B	500	systole
1304.3701999999998	0.0825026658421848	92	systole	8	B	500	systole
1304.9612000000002	0.0825026658421848	92	systole	9	B	500	systole
1305.5796	0.0825026658421848	92	systole	10	B	500	systole
1306.1979999999999	0.0825026658421848	92	systole	11	B	500	systole
1306.8081000000002	0.0825026658421848	92	systole	12	B	500	systole
1307.4479999999999	0.0825026658421848	92	systole	13	B	500	systole
1308.074	0.0825026658421848	92	systole	14	B	500	systole
1308.7141000000001	0.0825026658421848	92	systole	15	B	500	systole
1309.3417	0.0825026658421848	92	systole	16	B	500	systole
1314.1655	0.07748313745833	93	systole	1	B	500	systole
1314.7255	0.07748313745833	93	systole	2	B	500	systole
1315.2791000000002	0.07748313745833	93	systole	3	B	500	systole
1315.7908000000002	0.07748313745833	93	systole	4	B	500	systole
1316.2975000000001	0.07748313745833	93	systole	5	B	500	systole
1316.8219	0.07748313745833	93	systole	6	B	500	systole
1317.3521999999998	0.07748313745833	93	systole	7	B	500	systole
1317.8905	0.07748313745833	93	systole	8	B	500	systole
1318.4405000000002	0.07748313745833	93	systole	9	B	500	systole
1319.0205	0.07748313745833	93	systole	10	B	500	systole
1319.6005	0.07748313745833	93	systole	11	B	500	systole
1320.2103000000002	0.07748313745833	93	systole	12	B	500	systole
1320.8201	0.07748313745833	93	systole	13	B	500	systole
1321.4476	0.07748313745833	93	systole	14	B	500	systole
1322.0576	0.07748313745833	93	systole	15	B	500	systole
1322.6867000000002	0.07748313745833	93	systole	16	B	500	systole
1323.2986	0.07748313745833	93	systole	17	B	500	systole
1326.8326000000002	0.0749913937761448	94	systole	1	B	500	diastole
1327.3827	0.0749913937761448	94	systole	2	B	500	diastole
1327.9328999999998	0.0749913937761448	94	systole	3	B	500	diastole
1328.4956000000002	0.0749913937761448	94	systole	4	B	500	diastole
1329.0756999999999	0.0749913937761448	94	systole	5	B	500	diastole
1329.7756	0.0749913937761448	94	systole	6	B	500	diastole
1330.4753999999998	0.0749913937761448	94	systole	7	B	500	diastole
1331.2558	0.0749913937761448	94	systole	8	B	500	diastole
1332.0457999999999	0.0749913937761448	94	systole	9	B	500	diastole
1332.8854999999999	0.0749913937761448	94	systole	10	B	500	diastole
1333.6552000000001	0.0749913937761448	94	systole	11	B	500	diastole
1334.4250000000002	0.0749913937761448	94	systole	12	B	500	diastole
1335.2716999999998	0.0749913937761448	94	systole	13	B	500	diastole
1335.9816999999998	0.0749913937761448	94	systole	14	B	500	diastole
1339.5749	0.0825022568751592	95	systole	1	B	500	diastole
1340.145	0.0825022568751592	95	systole	2	B	500	diastole
1340.6542	0.0825022568751592	95	systole	3	B	500	diastole
1341.2042000000001	0.0825022568751592	95	systole	4	B	500	diastole
1341.7325	0.0825022568751592	95	systole	5	B	500	diastole
1342.2161	0.0825022568751592	95	systole	6	B	500	diastole
1342.7345	0.0825022568751592	95	systole	7	B	500	diastole
1343.3226	0.0825022568751592	95	systole	8	B	500	diastole
1343.9223000000002	0.0825022568751592	95	systole	9	B	500	diastole
1344.522	0.0825022568751592	95	systole	10	B	500	diastole
1345.4821000000002	0.0825022568751592	95	systole	11	B	500	diastole
1346.2621	0.0825022568751592	95	systole	12	B	500	diastole
1347.1851000000001	0.0825022568751592	95	systole	13	B	500	diastole
1348.0850999999998	0.0825022568751592	95	systole	14	B	500	diastole
1349.2480999999998	0.0825022568751592	95	systole	15	B	500	diastole
1355.4214000000002	0.109350095706759	96	systole	1	B	500	diastole
1356.0913999999998	0.109350095706759	96	systole	2	B	500	diastole
1356.7042000000001	0.109350095706759	96	systole	3	B	500	diastole
1357.2974	0.109350095706759	96	systole	4	B	500	diastole
1357.8691	0.109350095706759	96	systole	5	B	500	diastole
1358.4241000000002	0.109350095706759	96	systole	6	B	500	diastole
1359.0783000000001	0.109350095706759	96	systole	7	B	500	diastole
1359.7583	0.109350095706759	96	systole	8	B	500	diastole
1360.4283	0.109350095706759	96	systole	9	B	500	diastole
1361.0983	0.109350095706759	96	systole	10	B	500	diastole
1361.7782000000002	0.109350095706759	96	systole	11	B	500	diastole
1362.4783000000002	0.109350095706759	96	systole	12	B	500	diastole
1363.1941000000002	0.109350095706759	96	systole	13	B	500	diastole
1363.9058	0.109350095706759	96	systole	14	B	500	diastole
1369.6309	0.0812536680605262	97	systole	1	B	500	systole
1370.2649999999999	0.0812536680605262	97	systole	2	B	500	systole
1370.9050000000002	0.0812536680605262	97	systole	3	B	500	systole
1371.565	0.0812536680605262	97	systole	4	B	500	systole
1372.225	0.0812536680605262	97	systole	5	B	500	systole
1372.8850000000002	0.0812536680605262	97	systole	6	B	500	systole
1373.565	0.0812536680605262	97	systole	7	B	500	systole
1374.2350999999999	0.0812536680605262	97	systole	8	B	500	systole
1374.9052000000001	0.0812536680605262	97	systole	9	B	500	systole
1375.6001999999999	0.0812536680605262	97	systole	10	B	500	systole
1376.2586000000001	0.0812536680605262	97	systole	11	B	500	systole
1376.9171000000001	0.0812536680605262	97	systole	12	B	500	systole
1377.5671000000002	0.0812536680605262	97	systole	13	B	500	systole
1378.2071	0.0812536680605262	97	systole	14	B	500	systole
1378.8471	0.0812536680605262	97	systole	15	B	500	systole
1381.2492000000002	0.0799859909166116	98	systole	1	B	500	systole
1381.8636999999999	0.0799859909166116	98	systole	2	B	500	systole
1382.4838	0.0799859909166116	98	systole	3	B	500	systole
1383.1336999999999	0.0799859909166116	98	systole	4	B	500	systole
1383.7894999999999	0.0799859909166116	98	systole	5	B	500	systole
1384.4295000000002	0.0799859909166116	98	systole	6	B	500	systole
1385.0848999999998	0.0799859909166116	98	systole	7	B	500	systole
1385.7408	0.0799859909166116	98	systole	8	B	500	systole
1386.4283	0.0799859909166116	98	systole	9	B	500	systole
1387.1100000000001	0.0799859909166116	98	systole	10	B	500	systole
1387.7903000000001	0.0799859909166116	98	systole	11	B	500	systole
1388.4604	0.0799859909166116	98	systole	12	B	500	systole
1389.1185999999998	0.0799859909166116	98	systole	13	B	500	systole
1389.7761	0.0799859909166116	98	systole	14	B	500	systole
1390.4413	0.0799859909166116	98	systole	15	B	500	systole
1393.85	0.0837467063392978	99	systole	1	B	500	systole
1394.52	0.0837467063392978	99	systole	2	B	500	systole
1395.1691	0.0837467063392978	99	systole	3	B	500	systole
1395.7944000000002	0.0837467063392978	99	systole	4	B	500	systole
1396.4243000000001	0.0837467063392978	99	systole	5	B	500	systole
1397.0545000000002	0.0837467063392978	99	systole	6	B	500	systole
1397.6846	0.0837467063392978	99	systole	7	B	500	systole
1398.3147	0.0837467063392978	99	systole	8	B	500	systole
1398.9740000000002	0.0837467063392978	99	systole	9	B	500	systole
1399.6939000000002	0.0837467063392978	99	systole	10	B	500	systole
1400.4339	0.0837467063392978	99	systole	11	B	500	systole
1401.174	0.0837467063392978	99	systole	12	B	500	systole
1401.8874999999998	0.0837467063392978	99	systole	13	B	500	systole
1402.5892	0.0837467063392978	99	systole	14	B	500	systole
1407.5619000000002	0.0768716585589572	100	diastole	1	B	500	diastole
1408.0819999999999	0.0768716585589572	100	diastole	2	B	500	diastole
1408.6021999999998	0.0768716585589572	100	diastole	3	B	500	diastole
1409.1003999999998	0.0768716585589572	100	diastole	4	B	500	diastole
1409.6224000000002	0.0768716585589572	100	diastole	5	B	500	diastole
1410.1527999999998	0.0768716585589572	100	diastole	6	B	500	diastole
1410.6390999999999	0.0768716585589572	100	diastole	7	B	500	diastole
1411.1508	0.0768716585589572	100	diastole	8	B	500	diastole
1411.6704	0.0768716585589572	100	diastole	9	B	500	diastole
1412.1822000000002	0.0768716585589572	100	diastole	10	B	500	diastole
1412.7136999999998	0.0768716585589572	100	diastole	11	B	500	diastole
1413.2537000000002	0.0768716585589572	100	diastole	12	B	500	diastole
1413.8121	0.0768716585589572	100	diastole	13	B	500	diastole
1414.362	0.0768716585589572	100	diastole	14	B	500	diastole
1414.9299999999998	0.0768716585589572	100	diastole	15	B	500	diastole
1415.4899	0.0768716585589572	100	diastole	16	B	500	diastole
1416.0286	0.0768716585589572	100	diastole	17	B	500	diastole
1416.5589	0.0768716585589572	100	diastole	18	B	500	diastole
