onset	duration	trial_num	trial_type	tone_num	tone_type	frequency	response
91.8454	0.1131288008182309	1	systole	1	A	1578.5670027440333	coherent
92.0742	0.1131288008182309	1	systole	2	B	500.0	coherent
92.3028	0.1131288008182309	1	systole	3	A	1578.5670027440333	coherent
92.7353	0.1131288008182309	1	systole	4	A	1578.5670027440333	coherent
92.9642	0.1131288008182309	1	systole	5	B	500.0	coherent
93.1928	0.1131288008182309	1	systole	6	A	1578.5670027440333	coherent
93.6745	0.1131288008182309	1	systole	7	A	1578.5670027440333	coherent
93.9059	0.1131288008182309	1	systole	8	B	500.0	coherent
94.137	0.1131288008182309	1	systole	9	A	1578.5670027440333	coherent
94.6045	0.1131288008182309	1	systole	10	A	1578.5670027440333	coherent
94.8359	0.1131288008182309	1	systole	11	B	500.0	coherent
95.067	0.1131288008182309	1	systole	12	A	1578.5670027440333	coherent
95.5145	0.1131288008182309	1	systole	13	A	1578.5670027440333	coherent
95.7459	0.1131288008182309	1	systole	14	B	500.0	coherent
95.977	0.1131288008182309	1	systole	15	A	1578.5670027440333	coherent
96.3453	0.1131288008182309	1	systole	16	A	1578.5670027440333	coherent
96.5742	0.1131288008182309	1	systole	17	B	500.0	coherent
96.8028	0.1131288008182309	1	systole	18	A	1578.5670027440333	coherent
97.2161	0.1131288008182309	1	systole	19	A	1578.5670027440333	coherent
97.4425	0.1131288008182309	1	systole	20	B	500.0	coherent
97.6686	0.1131288008182309	1	systole	21	A	1578.5670027440333	coherent
98.1453	0.1131288008182309	1	systole	22	A	1578.5670027440333	coherent
98.3742	0.1131288008182309	1	systole	23	B	500.0	coherent
98.6028	0.1131288008182309	1	systole	24	A	1578.5670027440333	coherent
99.0653	0.1131288008182309	1	systole	25	A	1578.5670027440333	coherent
99.2942	0.1131288008182309	1	systole	26	B	500.0	coherent
99.5228	0.1131288008182309	1	systole	27	A	1578.5670027440333	coherent
100.0199	0.1131288008182309	1	systole	28	A	1578.5670027440333	coherent
100.2501	0.1131288008182309	1	systole	29	B	500.0	coherent
100.4799	0.1131288008182309	1	systole	30	A	1578.5670027440333	coherent
104.6301	0.1143739340477623	2	systole	1	A	2180.0224995339627	coherent
104.8601	0.1143739340477623	2	systole	2	B	500.0	coherent
105.0901	0.1143739340477623	2	systole	3	A	2180.0224995339627	coherent
105.5601	0.1143739340477623	2	systole	4	A	2180.0224995339627	coherent
105.7902	0.1143739340477623	2	systole	5	B	500.0	coherent
106.0201	0.1143739340477623	2	systole	6	A	2180.0224995339627	coherent
106.5393	0.1143739340477623	2	systole	7	A	2180.0224995339627	coherent
106.7719	0.1143739340477623	2	systole	8	B	500.0	coherent
107.0044	0.1143739340477623	2	systole	9	A	2180.0224995339627	coherent
107.5094	0.1143739340477623	2	systole	10	A	2180.0224995339627	coherent
107.742	0.1143739340477623	2	systole	11	B	500.0	coherent
107.9744	0.1143739340477623	2	systole	12	A	2180.0224995339627	coherent
108.4094	0.1143739340477623	2	systole	13	A	2180.0224995339627	coherent
108.642	0.1143739340477623	2	systole	14	B	500.0	coherent
108.8745	0.1143739340477623	2	systole	15	A	2180.0224995339627	coherent
109.3095	0.1143739340477623	2	systole	16	A	2180.0224995339627	coherent
109.542	0.1143739340477623	2	systole	17	B	500.0	coherent
109.7745	0.1143739340477623	2	systole	18	A	2180.0224995339627	coherent
110.1349	0.1143739340477623	2	systole	19	A	2180.0224995339627	coherent
110.3662	0.1143739340477623	2	systole	20	B	500.0	coherent
110.5974	0.1143739340477623	2	systole	21	A	2180.0224995339627	coherent
110.9649	0.1143739340477623	2	systole	22	A	2180.0224995339627	coherent
111.1962	0.1143739340477623	2	systole	23	B	500.0	coherent
111.4274	0.1143739340477623	2	systole	24	A	2180.0224995339627	coherent
111.8649	0.1143739340477623	2	systole	25	A	2180.0224995339627	coherent
112.0962	0.1143739340477623	2	systole	26	B	500.0	coherent
112.3274	0.1143739340477623	2	systole	27	A	2180.0224995339627	coherent
112.8295	0.1143739340477623	2	systole	28	A	2180.0224995339627	coherent
113.0621	0.1143739340477623	2	systole	29	B	500.0	coherent
113.2945	0.1143739340477623	2	systole	30	A	2180.0224995339627	coherent
116.591	0.1125062537612393	3	systole	1	A	1987.9452401467304	coherent
116.8184	0.1125062537612393	3	systole	2	B	500.0	coherent
117.0459	0.1125062537612393	3	systole	3	A	1987.9452401467304	coherent
117.5908	0.1125062537612393	3	systole	4	A	1987.9452401467304	coherent
117.8183	0.1125062537612393	3	systole	5	B	500.0	coherent
118.0458	0.1125062537612393	3	systole	6	A	1987.9452401467304	coherent
118.584	0.1125062537612393	3	systole	7	A	1987.9452401467304	coherent
118.8177	0.1125062537612393	3	systole	8	B	500.0	coherent
119.0515	0.1125062537612393	3	systole	9	A	1987.9452401467304	coherent
119.4337	0.1125062537612393	3	systole	10	A	1987.9452401467304	coherent
119.6675	0.1125062537612393	3	systole	11	B	500.0	coherent
119.9012	0.1125062537612393	3	systole	12	A	1987.9452401467304	coherent
120.3254	0.1125062537612393	3	systole	13	A	1987.9452401467304	coherent
120.5541	0.1125062537612393	3	systole	14	B	500.0	coherent
120.7829	0.1125062537612393	3	systole	15	A	1987.9452401467304	coherent
121.2354	0.1125062537612393	3	systole	16	A	1987.9452401467304	coherent
121.4641	0.1125062537612393	3	systole	17	B	500.0	coherent
121.6928	0.1125062537612393	3	systole	18	A	1987.9452401467304	coherent
122.0471	0.1125062537612393	3	systole	19	A	1987.9452401467304	coherent
122.2708	0.1125062537612393	3	systole	20	B	500.0	coherent
122.4946	0.1125062537612393	3	systole	21	A	1987.9452401467304	coherent
122.877	0.1125062537612393	3	systole	22	A	1987.9452401467304	coherent
123.1007	0.1125062537612393	3	systole	23	B	500.0	coherent
123.3246	0.1125062537612393	3	systole	24	A	1987.9452401467304	coherent
123.7768	0.1125062537612393	3	systole	25	A	1987.9452401467304	coherent
124.0005	0.1125062537612393	3	systole	26	B	500.0	coherent
124.2243	0.1125062537612393	3	systole	27	A	1987.9452401467304	coherent
124.608	0.1125062537612393	3	systole	28	A	1987.9452401467304	coherent
124.8293	0.1125062537612393	3	systole	29	B	500.0	coherent
125.0505	0.1125062537612393	3	systole	30	A	1987.9452401467304	coherent
127.2145	0.1087481873109936	4	systole	1	A	2942.014383864825	coherent
127.432	0.1087481873109936	4	systole	2	B	500.0	coherent
127.6494	0.1087481873109936	4	systole	3	A	2942.014383864825	coherent
128.1845	0.1087481873109936	4	systole	4	A	2942.014383864825	coherent
128.402	0.1087481873109936	4	systole	5	B	500.0	coherent
128.6195	0.1087481873109936	4	systole	6	A	2942.014383864825	coherent
129.1527	0.1087481873109936	4	systole	7	A	2942.014383864825	coherent
129.3752	0.1087481873109936	4	systole	8	B	500.0	coherent
129.5977	0.1087481873109936	4	systole	9	A	2942.014383864825	coherent
130.1026	0.1087481873109936	4	systole	10	A	2942.014383864825	coherent
130.3252	0.1087481873109936	4	systole	11	B	500.0	coherent
130.5476	0.1087481873109936	4	systole	12	A	2942.014383864825	coherent
130.945	0.1087481873109936	4	systole	13	A	2942.014383864825	coherent
131.1626	0.1087481873109936	4	systole	14	B	500.0	coherent
131.3801	0.1087481873109936	4	systole	15	A	2942.014383864825	coherent
131.8055	0.1087481873109936	4	systole	16	A	2942.014383864825	coherent
132.0231	0.1087481873109936	4	systole	17	B	500.0	coherent
132.2406	0.1087481873109936	4	systole	18	A	2942.014383864825	coherent
132.7332	0.1087481873109936	4	systole	19	A	2942.014383864825	coherent
132.9557	0.1087481873109936	4	systole	20	B	500.0	coherent
133.1781	0.1087481873109936	4	systole	21	A	2942.014383864825	coherent
133.6968	0.1087481873109936	4	systole	22	A	2942.014383864825	coherent
133.923	0.1087481873109936	4	systole	23	B	500.0	coherent
134.1492	0.1087481873109936	4	systole	24	A	2942.014383864825	coherent
134.6468	0.1087481873109936	4	systole	25	A	2942.014383864825	coherent
134.873	0.1087481873109936	4	systole	26	B	500.0	coherent
135.0992	0.1087481873109936	4	systole	27	A	2942.014383864825	coherent
135.5014	0.1087481873109936	4	systole	28	A	2942.014383864825	coherent
135.7289	0.1087481873109936	4	systole	29	B	500.0	coherent
135.9564	0.1087481873109936	4	systole	30	A	2942.014383864825	coherent
136.3714	0.1087481873109936	4	systole	31	A	2942.014383864825	coherent
136.5989	0.1087481873109936	4	systole	32	B	500.0	coherent
136.8263	0.1087481873109936	4	systole	33	A	2942.014383864825	coherent
139.6798	0.1143486936343833	5	diastole	1	A	1578.5670027440333	coherent
139.91	0.1143486936343833	5	diastole	2	B	500.0	coherent
140.1398	0.1143486936343833	5	diastole	3	A	1578.5670027440333	coherent
140.7111	0.1143486936343833	5	diastole	4	A	1578.5670027440333	coherent
140.945	0.1143486936343833	5	diastole	5	B	500.0	coherent
141.1786	0.1143486936343833	5	diastole	6	A	1578.5670027440333	coherent
141.7424	0.1143486936343833	5	diastole	7	A	1578.5670027440333	coherent
141.98	0.1143486936343833	5	diastole	8	B	500.0	coherent
142.2174	0.1143486936343833	5	diastole	9	A	1578.5670027440333	coherent
142.6223	0.1143486936343833	5	diastole	10	A	1578.5670027440333	coherent
142.86	0.1143486936343833	5	diastole	11	B	500.0	coherent
143.0973	0.1143486936343833	5	diastole	12	A	1578.5670027440333	coherent
143.5023	0.1143486936343833	5	diastole	13	A	1578.5670027440333	coherent
143.74	0.1143486936343833	5	diastole	14	B	500.0	coherent
143.9773	0.1143486936343833	5	diastole	15	A	1578.5670027440333	coherent
144.3823	0.1143486936343833	5	diastole	16	A	1578.5670027440333	coherent
144.62	0.1143486936343833	5	diastole	17	B	500.0	coherent
144.8573	0.1143486936343833	5	diastole	18	A	1578.5670027440333	coherent
145.2623	0.1143486936343833	5	diastole	19	A	1578.5670027440333	coherent
145.5	0.1143486936343833	5	diastole	20	B	500.0	coherent
145.7373	0.1143486936343833	5	diastole	21	A	1578.5670027440333	coherent
146.2424	0.1143486936343833	5	diastole	22	A	1578.5670027440333	coherent
146.48	0.1143486936343833	5	diastole	23	B	500.0	coherent
146.7173	0.1143486936343833	5	diastole	24	A	1578.5670027440333	coherent
147.1183	0.1143486936343833	5	diastole	25	A	1578.5670027440333	coherent
147.3535	0.1143486936343833	5	diastole	26	B	500.0	coherent
147.5883	0.1143486936343833	5	diastole	27	A	1578.5670027440333	coherent
148.0083	0.1143486936343833	5	diastole	28	A	1578.5670027440333	coherent
148.2435	0.1143486936343833	5	diastole	29	B	500.0	coherent
148.4783	0.1143486936343833	5	diastole	30	A	1578.5670027440333	coherent
151.3509	0.1162513610324822	6	systole	1	A	2446.423693900757	coherent
151.5835	0.1162513610324822	6	systole	2	B	500.0	coherent
151.8159	0.1162513610324822	6	systole	3	A	2446.423693900757	coherent
152.1927	0.1162513610324822	6	systole	4	A	2446.423693900757	coherent
152.4253	0.1162513610324822	6	systole	5	B	500.0	coherent
152.6577	0.1162513610324822	6	systole	6	A	2446.423693900757	coherent
153.0827	0.1162513610324822	6	systole	7	A	2446.423693900757	coherent
153.3153	0.1162513610324822	6	systole	8	B	500.0	coherent
153.5477	0.1162513610324822	6	systole	9	A	2446.423693900757	coherent
153.9742	0.1162513610324822	6	systole	10	A	2446.423693900757	coherent
154.2019	0.1162513610324822	6	systole	11	B	500.0	coherent
154.4292	0.1162513610324822	6	systole	12	A	2446.423693900757	coherent
154.8551	0.1162513610324822	6	systole	13	A	2446.423693900757	coherent
155.0802	0.1162513610324822	6	systole	14	B	500.0	coherent
155.3051	0.1162513610324822	6	systole	15	A	2446.423693900757	coherent
155.7451	0.1162513610324822	6	systole	16	A	2446.423693900757	coherent
155.9702	0.1162513610324822	6	systole	17	B	500.0	coherent
156.1951	0.1162513610324822	6	systole	18	A	2446.423693900757	coherent
156.5851	0.1162513610324822	6	systole	19	A	2446.423693900757	coherent
156.8103	0.1162513610324822	6	systole	20	B	500.0	coherent
157.0351	0.1162513610324822	6	systole	21	A	2446.423693900757	coherent
157.4457	0.1162513610324822	6	systole	22	A	2446.423693900757	coherent
157.6683	0.1162513610324822	6	systole	23	B	500.0	coherent
157.8907	0.1162513610324822	6	systole	24	A	2446.423693900757	coherent
158.4654	0.1162513610324822	6	systole	25	A	2446.423693900757	coherent
158.688	0.1162513610324822	6	systole	26	B	500.0	coherent
158.9104	0.1162513610324822	6	systole	27	A	2446.423693900757	coherent
159.4157	0.1162513610324822	6	systole	28	A	2446.423693900757	coherent
159.6384	0.1162513610324822	6	systole	29	B	500.0	coherent
159.8608	0.1162513610324822	6	systole	30	A	2446.423693900757	coherent
162.8614	0.1162710037315264	7	diastole	1	A	2180.0224995339627	streaming
163.0953	0.1162710037315264	7	diastole	2	B	500.0	streaming
163.329	0.1162710037315264	7	diastole	3	A	2180.0224995339627	streaming
163.7814	0.1162710037315264	7	diastole	4	A	2180.0224995339627	streaming
164.0152	0.1162710037315264	7	diastole	5	B	500.0	streaming
164.2489	0.1162710037315264	7	diastole	6	A	2180.0224995339627	streaming
164.7014	0.1162710037315264	7	diastole	7	A	2180.0224995339627	streaming
164.9352	0.1162710037315264	7	diastole	8	B	500.0	streaming
165.1689	0.1162710037315264	7	diastole	9	A	2180.0224995339627	streaming
165.6556	0.1162710037315264	7	diastole	10	A	2180.0224995339627	streaming
165.8919	0.1162710037315264	7	diastole	11	B	500.0	streaming
166.1282	0.1162710037315264	7	diastole	12	A	2180.0224995339627	streaming
166.576	0.1162710037315264	7	diastole	13	A	2180.0224995339627	streaming
166.8124	0.1162710037315264	7	diastole	14	B	500.0	streaming
167.0486	0.1162710037315264	7	diastole	15	A	2180.0224995339627	streaming
167.5455	0.1162710037315264	7	diastole	16	A	2180.0224995339627	streaming
167.7819	0.1162710037315264	7	diastole	17	B	500.0	streaming
168.0181	0.1162710037315264	7	diastole	18	A	2180.0224995339627	streaming
168.5151	0.1162710037315264	7	diastole	19	A	2180.0224995339627	streaming
168.7515	0.1162710037315264	7	diastole	20	B	500.0	streaming
168.9877	0.1162710037315264	7	diastole	21	A	2180.0224995339627	streaming
169.4655	0.1162710037315264	7	diastole	22	A	2180.0224995339627	streaming
169.7019	0.1162710037315264	7	diastole	23	B	500.0	streaming
169.9381	0.1162710037315264	7	diastole	24	A	2180.0224995339627	streaming
170.394	0.1162710037315264	7	diastole	25	A	2180.0224995339627	streaming
170.6266	0.1162710037315264	7	diastole	26	B	500.0	streaming
170.8591	0.1162710037315264	7	diastole	27	A	2180.0224995339627	streaming
171.3436	0.1162710037315264	7	diastole	28	A	2180.0224995339627	streaming
171.5763	0.1162710037315264	7	diastole	29	B	500.0	streaming
171.8087	0.1162710037315264	7	diastole	30	A	2180.0224995339627	streaming
174.5778	0.1174537456827238	8	systole	1	A	3538.000656405778	streaming
174.8153	0.1174537456827238	8	systole	2	B	500.0	streaming
175.0528	0.1174537456827238	8	systole	3	A	3538.000656405778	streaming
175.5281	0.1174537456827238	8	systole	4	A	3538.000656405778	streaming
175.7656	0.1174537456827238	8	systole	5	B	500.0	streaming
176.0032	0.1174537456827238	8	systole	6	A	3538.000656405778	streaming
176.4184	0.1174537456827238	8	systole	7	A	3538.000656405778	streaming
176.6533	0.1174537456827238	8	systole	8	B	500.0	streaming
176.8882	0.1174537456827238	8	systole	9	A	3538.000656405778	streaming
177.3985	0.1174537456827238	8	systole	10	A	3538.000656405778	streaming
177.6334	0.1174537456827238	8	systole	11	B	500.0	streaming
177.8683	0.1174537456827238	8	systole	12	A	3538.000656405778	streaming
178.3787	0.1174537456827238	8	systole	13	A	3538.000656405778	streaming
178.6136	0.1174537456827238	8	systole	14	B	500.0	streaming
178.8485	0.1174537456827238	8	systole	15	A	3538.000656405778	streaming
179.2889	0.1174537456827238	8	systole	16	A	3538.000656405778	streaming
179.5239	0.1174537456827238	8	systole	17	B	500.0	streaming
179.7589	0.1174537456827238	8	systole	18	A	3538.000656405778	streaming
180.1989	0.1174537456827238	8	systole	19	A	3538.000656405778	streaming
180.4338	0.1174537456827238	8	systole	20	B	500.0	streaming
180.6689	0.1174537456827238	8	systole	21	A	3538.000656405778	streaming
181.1555	0.1174537456827238	8	systole	22	A	3538.000656405778	streaming
181.3927	0.1174537456827238	8	systole	23	B	500.0	streaming
181.6301	0.1174537456827238	8	systole	24	A	3538.000656405778	streaming
182.0074	0.1174537456827238	8	systole	25	A	3538.000656405778	streaming
182.2447	0.1174537456827238	8	systole	26	B	500.0	streaming
182.4821	0.1174537456827238	8	systole	27	A	3538.000656405778	streaming
182.8274	0.1174537456827238	8	systole	28	A	3538.000656405778	streaming
183.0596	0.1174537456827238	8	systole	29	B	500.0	streaming
183.2919	0.1174537456827238	8	systole	30	A	3538.000656405778	streaming
194.1292	0.1237262154463678	9	diastole	1	A	1253.4921645871675	coherent
194.3766	0.1237262154463678	9	diastole	2	B	500.0	coherent
194.6241	0.1237262154463678	9	diastole	3	A	1253.4921645871675	coherent
194.9591	0.1237262154463678	9	diastole	4	A	1253.4921645871675	coherent
195.2065	0.1237262154463678	9	diastole	5	B	500.0	coherent
195.454	0.1237262154463678	9	diastole	6	A	1253.4921645871675	coherent
195.7691	0.1237262154463678	9	diastole	7	A	1253.4921645871675	coherent
196.0165	0.1237262154463678	9	diastole	8	B	500.0	coherent
196.264	0.1237262154463678	9	diastole	9	A	1253.4921645871675	coherent
196.5791	0.1237262154463678	9	diastole	10	A	1253.4921645871675	coherent
196.8265	0.1237262154463678	9	diastole	11	B	500.0	coherent
197.074	0.1237262154463678	9	diastole	12	A	1253.4921645871675	coherent
197.3891	0.1237262154463678	9	diastole	13	A	1253.4921645871675	coherent
197.6365	0.1237262154463678	9	diastole	14	B	500.0	coherent
197.884	0.1237262154463678	9	diastole	15	A	1253.4921645871675	coherent
198.348	0.1237262154463678	9	diastole	16	A	1253.4921645871675	coherent
198.5917	0.1237262154463678	9	diastole	17	B	500.0	coherent
198.8355	0.1237262154463678	9	diastole	18	A	1253.4921645871675	coherent
199.2456	0.1237262154463678	9	diastole	19	A	1253.4921645871675	coherent
199.4853	0.1237262154463678	9	diastole	20	B	500.0	coherent
199.7251	0.1237262154463678	9	diastole	21	A	1253.4921645871675	coherent
200.1819	0.1237262154463678	9	diastole	22	A	1253.4921645871675	coherent
200.4192	0.1237262154463678	9	diastole	23	B	500.0	coherent
200.6565	0.1237262154463678	9	diastole	24	A	1253.4921645871675	coherent
201.1321	0.1237262154463678	9	diastole	25	A	1253.4921645871675	coherent
201.3694	0.1237262154463678	9	diastole	26	B	500.0	coherent
201.6067	0.1237262154463678	9	diastole	27	A	1253.4921645871675	coherent
202.0107	0.1237262154463678	9	diastole	28	A	1253.4921645871675	coherent
202.2441	0.1237262154463678	9	diastole	29	B	500.0	coherent
202.4777	0.1237262154463678	9	diastole	30	A	1253.4921645871675	coherent
208.4188	0.1143754920340143	10	diastole	1	A	2621.646269519023	streaming
208.6449	0.1143754920340143	10	diastole	2	B	500.0	streaming
208.8712	0.1143754920340143	10	diastole	3	A	2621.646269519023	streaming
209.2847	0.1143754920340143	10	diastole	4	A	2621.646269519023	streaming
209.5084	0.1143754920340143	10	diastole	5	B	500.0	streaming
209.7322	0.1143754920340143	10	diastole	6	A	2621.646269519023	streaming
210.1651	0.1143754920340143	10	diastole	7	A	2621.646269519023	streaming
210.3887	0.1143754920340143	10	diastole	8	B	500.0	streaming
210.6126	0.1143754920340143	10	diastole	9	A	2621.646269519023	streaming
211.0456	0.1143754920340143	10	diastole	10	A	2621.646269519023	streaming
211.2692	0.1143754920340143	10	diastole	11	B	500.0	streaming
211.4929	0.1143754920340143	10	diastole	12	A	2621.646269519023	streaming
211.7648	0.1143754920340143	10	diastole	13	A	2621.646269519023	streaming
211.9848	0.1143754920340143	10	diastole	14	B	500.0	streaming
212.205	0.1143754920340143	10	diastole	15	A	2621.646269519023	streaming
212.4944	0.1143754920340143	10	diastole	16	A	2621.646269519023	streaming
212.7143	0.1143754920340143	10	diastole	17	B	500.0	streaming
212.9345	0.1143754920340143	10	diastole	18	A	2621.646269519023	streaming
213.2448	0.1143754920340143	10	diastole	19	A	2621.646269519023	streaming
213.4648	0.1143754920340143	10	diastole	20	B	500.0	streaming
213.6849	0.1143754920340143	10	diastole	21	A	2621.646269519023	streaming
214.1246	0.1143754920340143	10	diastole	22	A	2621.646269519023	streaming
214.3445	0.1143754920340143	10	diastole	23	B	500.0	streaming
214.5646	0.1143754920340143	10	diastole	24	A	2621.646269519023	streaming
215.0446	0.1143754920340143	10	diastole	25	A	2621.646269519023	streaming
215.2645	0.1143754920340143	10	diastole	26	B	500.0	streaming
215.4846	0.1143754920340143	10	diastole	27	A	2621.646269519023	streaming
215.8903	0.1143754920340143	10	diastole	28	A	2621.646269519023	streaming
216.1077	0.1143754920340143	10	diastole	29	B	500.0	streaming
216.3253	0.1143754920340143	10	diastole	30	A	2621.646269519023	streaming
216.8003	0.1143754920340143	10	diastole	31	A	2621.646269519023	streaming
217.0177	0.1143754920340143	10	diastole	32	B	500.0	streaming
217.2353	0.1143754920340143	10	diastole	33	A	2621.646269519023	streaming
217.75	0.1143754920340143	10	diastole	34	A	2621.646269519023	streaming
217.9674	0.1143754920340143	10	diastole	35	B	500.0	streaming
218.185	0.1143754920340143	10	diastole	36	A	2621.646269519023	streaming
220.5661	0.111878456082195	11	diastole	1	A	1196.9977780158051	coherent
220.7935	0.111878456082195	11	diastole	2	B	500.0	coherent
221.0211	0.111878456082195	11	diastole	3	A	1196.9977780158051	coherent
221.4761	0.111878456082195	11	diastole	4	A	1196.9977780158051	coherent
221.7035	0.111878456082195	11	diastole	5	B	500.0	coherent
221.9311	0.111878456082195	11	diastole	6	A	1196.9977780158051	coherent
222.3861	0.111878456082195	11	diastole	7	A	1196.9977780158051	coherent
222.6136	0.111878456082195	11	diastole	8	B	500.0	coherent
222.8411	0.111878456082195	11	diastole	9	A	1196.9977780158051	coherent
223.2428	0.111878456082195	11	diastole	10	A	1196.9977780158051	coherent
223.4715	0.111878456082195	11	diastole	11	B	500.0	coherent
223.7004	0.111878456082195	11	diastole	12	A	1196.9977780158051	coherent
224.0458	0.111878456082195	11	diastole	13	A	1196.9977780158051	coherent
224.2732	0.111878456082195	11	diastole	14	B	500.0	coherent
224.5008	0.111878456082195	11	diastole	15	A	1196.9977780158051	coherent
224.8558	0.111878456082195	11	diastole	16	A	1196.9977780158051	coherent
225.0833	0.111878456082195	11	diastole	17	B	500.0	coherent
225.3108	0.111878456082195	11	diastole	18	A	1196.9977780158051	coherent
225.6859	0.111878456082195	11	diastole	19	A	1196.9977780158051	coherent
225.9133	0.111878456082195	11	diastole	20	B	500.0	coherent
226.1409	0.111878456082195	11	diastole	21	A	1196.9977780158051	coherent
226.5446	0.111878456082195	11	diastole	22	A	1196.9977780158051	coherent
226.7683	0.111878456082195	11	diastole	23	B	500.0	coherent
226.9921	0.111878456082195	11	diastole	24	A	1196.9977780158051	coherent
227.4245	0.111878456082195	11	diastole	25	A	1196.9977780158051	coherent
227.6482	0.111878456082195	11	diastole	26	B	500.0	coherent
227.872	0.111878456082195	11	diastole	27	A	1196.9977780158051	coherent
228.1763	0.111878456082195	11	diastole	28	A	1196.9977780158051	coherent
228.3949	0.111878456082195	11	diastole	29	B	500.0	coherent
228.6137	0.111878456082195	11	diastole	30	A	1196.9977780158051	coherent
228.9563	0.111878456082195	11	diastole	31	A	1196.9977780158051	coherent
229.175	0.111878456082195	11	diastole	32	B	500.0	coherent
229.3938	0.111878456082195	11	diastole	33	A	1196.9977780158051	coherent
232.7066	0.1062560126301832	12	diastole	1	A	2682.7996005075997	streaming
232.9252	0.1062560126301832	12	diastole	2	B	500.0	streaming
233.144	0.1062560126301832	12	diastole	3	A	2682.7996005075997	streaming
233.6266	0.1062560126301832	12	diastole	4	A	2682.7996005075997	streaming
233.8453	0.1062560126301832	12	diastole	5	B	500.0	streaming
234.0641	0.1062560126301832	12	diastole	6	A	2682.7996005075997	streaming
234.5467	0.1062560126301832	12	diastole	7	A	2682.7996005075997	streaming
234.7653	0.1062560126301832	12	diastole	8	B	500.0	streaming
234.9842	0.1062560126301832	12	diastole	9	A	2682.7996005075997	streaming
235.4268	0.1062560126301832	12	diastole	10	A	2682.7996005075997	streaming
235.6455	0.1062560126301832	12	diastole	11	B	500.0	streaming
235.8643	0.1062560126301832	12	diastole	12	A	2682.7996005075997	streaming
236.2967	0.1062560126301832	12	diastole	13	A	2682.7996005075997	streaming
236.5154	0.1062560126301832	12	diastole	14	B	500.0	streaming
236.7343	0.1062560126301832	12	diastole	15	A	2682.7996005075997	streaming
237.0966	0.1062560126301832	12	diastole	16	A	2682.7996005075997	streaming
237.3153	0.1062560126301832	12	diastole	17	B	500.0	streaming
237.5341	0.1062560126301832	12	diastole	18	A	2682.7996005075997	streaming
237.8965	0.1062560126301832	12	diastole	19	A	2682.7996005075997	streaming
238.1152	0.1062560126301832	12	diastole	20	B	500.0	streaming
238.334	0.1062560126301832	12	diastole	21	A	2682.7996005075997	streaming
238.7565	0.1062560126301832	12	diastole	22	A	2682.7996005075997	streaming
238.9752	0.1062560126301832	12	diastole	23	B	500.0	streaming
239.194	0.1062560126301832	12	diastole	24	A	2682.7996005075997	streaming
239.6606	0.1062560126301832	12	diastole	25	A	2682.7996005075997	streaming
239.8818	0.1062560126301832	12	diastole	26	B	500.0	streaming
240.1031	0.1062560126301832	12	diastole	27	A	2682.7996005075997	streaming
240.5506	0.1062560126301832	12	diastole	28	A	2682.7996005075997	streaming
240.7718	0.1062560126301832	12	diastole	29	B	500.0	streaming
240.9931	0.1062560126301832	12	diastole	30	A	2682.7996005075997	streaming
241.3563	0.1062560126301832	12	diastole	31	A	2682.7996005075997	streaming
241.5749	0.1062560126301832	12	diastole	32	B	500.0	streaming
241.7938	0.1062560126301832	12	diastole	33	A	2682.7996005075997	streaming
244.557	0.1099958028062246	13	systole	1	A	2130.3297690552017	coherent
244.7808	0.1099958028062246	13	systole	2	B	500.0	coherent
245.0045	0.1099958028062246	13	systole	3	A	2130.3297690552017	coherent
245.457	0.1099958028062246	13	systole	4	A	2130.3297690552017	coherent
245.6808	0.1099958028062246	13	systole	5	B	500.0	coherent
245.9045	0.1099958028062246	13	systole	6	A	2130.3297690552017	coherent
246.4016	0.1099958028062246	13	systole	7	A	2130.3297690552017	coherent
246.6266	0.1099958028062246	13	systole	8	B	500.0	coherent
246.8516	0.1099958028062246	13	systole	9	A	2130.3297690552017	coherent
247.3416	0.1099958028062246	13	systole	10	A	2130.3297690552017	coherent
247.5666	0.1099958028062246	13	systole	11	B	500.0	coherent
247.7916	0.1099958028062246	13	systole	12	A	2130.3297690552017	coherent
248.2516	0.1099958028062246	13	systole	13	A	2130.3297690552017	coherent
248.4766	0.1099958028062246	13	systole	14	B	500.0	coherent
248.7016	0.1099958028062246	13	systole	15	A	2130.3297690552017	coherent
249.2016	0.1099958028062246	13	systole	16	A	2130.3297690552017	coherent
249.4267	0.1099958028062246	13	systole	17	B	500.0	coherent
249.6516	0.1099958028062246	13	systole	18	A	2130.3297690552017	coherent
250.1516	0.1099958028062246	13	systole	19	A	2130.3297690552017	coherent
250.3767	0.1099958028062246	13	systole	20	B	500.0	coherent
250.6016	0.1099958028062246	13	systole	21	A	2130.3297690552017	coherent
251.0362	0.1099958028062246	13	systole	22	A	2130.3297690552017	coherent
251.2625	0.1099958028062246	13	systole	23	B	500.0	coherent
251.4887	0.1099958028062246	13	systole	24	A	2130.3297690552017	coherent
251.9162	0.1099958028062246	13	systole	25	A	2130.3297690552017	coherent
252.1425	0.1099958028062246	13	systole	26	B	500.0	coherent
252.3687	0.1099958028062246	13	systole	27	A	2130.3297690552017	coherent
252.8262	0.1099958028062246	13	systole	28	A	2130.3297690552017	coherent
253.0525	0.1099958028062246	13	systole	29	B	500.0	coherent
253.2787	0.1099958028062246	13	systole	30	A	2130.3297690552017	coherent
253.6563	0.1099958028062246	13	systole	31	A	2130.3297690552017	coherent
253.8825	0.1099958028062246	13	systole	32	B	500.0	coherent
254.1088	0.1099958028062246	13	systole	33	A	2130.3297690552017	coherent
256.659	0.1112508812220767	14	diastole	1	A	1282.731510155574	coherent
256.8852	0.1112508812220767	14	diastole	2	B	500.0	coherent
257.1115	0.1112508812220767	14	diastole	3	A	1282.731510155574	coherent
257.5076	0.1112508812220767	14	diastole	4	A	1282.731510155574	coherent
257.7301	0.1112508812220767	14	diastole	5	B	500.0	coherent
257.9526	0.1112508812220767	14	diastole	6	A	1282.731510155574	coherent
258.4077	0.1112508812220767	14	diastole	7	A	1282.731510155574	coherent
258.6302	0.1112508812220767	14	diastole	8	B	500.0	coherent
258.8527	0.1112508812220767	14	diastole	9	A	1282.731510155574	coherent
259.3677	0.1112508812220767	14	diastole	10	A	1282.731510155574	coherent
259.5902	0.1112508812220767	14	diastole	11	B	500.0	coherent
259.8127	0.1112508812220767	14	diastole	12	A	1282.731510155574	coherent
260.3419	0.1112508812220767	14	diastole	13	A	1282.731510155574	coherent
260.5669	0.1112508812220767	14	diastole	14	B	500.0	coherent
260.7919	0.1112508812220767	14	diastole	15	A	1282.731510155574	coherent
261.3019	0.1112508812220767	14	diastole	16	A	1282.731510155574	coherent
261.5269	0.1112508812220767	14	diastole	17	B	500.0	coherent
261.7519	0.1112508812220767	14	diastole	18	A	1282.731510155574	coherent
262.1306	0.1112508812220767	14	diastole	19	A	1282.731510155574	coherent
262.3518	0.1112508812220767	14	diastole	20	B	500.0	coherent
262.5731	0.1112508812220767	14	diastole	21	A	1282.731510155574	coherent
262.9806	0.1112508812220767	14	diastole	22	A	1282.731510155574	coherent
263.2018	0.1112508812220767	14	diastole	23	B	500.0	coherent
263.4231	0.1112508812220767	14	diastole	24	A	1282.731510155574	coherent
263.8635	0.1112508812220767	14	diastole	25	A	1282.731510155574	coherent
264.0835	0.1112508812220767	14	diastole	26	B	500.0	coherent
264.3035	0.1112508812220767	14	diastole	27	A	1282.731510155574	coherent
264.7948	0.1112508812220767	14	diastole	28	A	1282.731510155574	coherent
265.0186	0.1112508812220767	14	diastole	29	B	500.0	coherent
265.2423	0.1112508812220767	14	diastole	30	A	1282.731510155574	coherent
265.6048	0.1112508812220767	14	diastole	31	A	1282.731510155574	coherent
265.8286	0.1112508812220767	14	diastole	32	B	500.0	coherent
266.0524	0.1112508812220767	14	diastole	33	A	1282.731510155574	coherent
267.7281	0.1125011195545084	15	systole	1	A	4157.735780147634	streaming
267.9493	0.1125011195545084	15	systole	2	B	500.0	streaming
268.1706	0.1125011195545084	15	systole	3	A	4157.735780147634	streaming
268.5889	0.1125011195545084	15	systole	4	A	4157.735780147634	streaming
268.8076	0.1125011195545084	15	systole	5	B	500.0	streaming
269.0264	0.1125011195545084	15	systole	6	A	4157.735780147634	streaming
269.4981	0.1125011195545084	15	systole	7	A	4157.735780147634	streaming
269.7193	0.1125011195545084	15	systole	8	B	500.0	streaming
269.9406	0.1125011195545084	15	systole	9	A	4157.735780147634	streaming
270.3981	0.1125011195545084	15	systole	10	A	4157.735780147634	streaming
270.6193	0.1125011195545084	15	systole	11	B	500.0	streaming
270.8406	0.1125011195545084	15	systole	12	A	4157.735780147634	streaming
271.2389	0.1125011195545084	15	systole	13	A	4157.735780147634	streaming
271.4576	0.1125011195545084	15	systole	14	B	500.0	streaming
271.6764	0.1125011195545084	15	systole	15	A	4157.735780147634	streaming
272.1581	0.1125011195545084	15	systole	16	A	4157.735780147634	streaming
272.3792	0.1125011195545084	15	systole	17	B	500.0	streaming
272.6006	0.1125011195545084	15	systole	18	A	4157.735780147634	streaming
273.068	0.1125011195545084	15	systole	19	A	4157.735780147634	streaming
273.2892	0.1125011195545084	15	systole	20	B	500.0	streaming
273.5105	0.1125011195545084	15	systole	21	A	4157.735780147634	streaming
273.978	0.1125011195545084	15	systole	22	A	4157.735780147634	streaming
274.1991	0.1125011195545084	15	systole	23	B	500.0	streaming
274.4205	0.1125011195545084	15	systole	24	A	4157.735780147634	streaming
274.8664	0.1125011195545084	15	systole	25	A	4157.735780147634	streaming
275.0925	0.1125011195545084	15	systole	26	B	500.0	streaming
275.3189	0.1125011195545084	15	systole	27	A	4157.735780147634	streaming
275.6581	0.1125011195545084	15	systole	28	A	4157.735780147634	streaming
275.8793	0.1125011195545084	15	systole	29	B	500.0	streaming
276.1006	0.1125011195545084	15	systole	30	A	4157.735780147634	streaming
276.4681	0.1125011195545084	15	systole	31	A	4157.735780147634	streaming
276.6893	0.1125011195545084	15	systole	32	B	500.0	streaming
276.9106	0.1125011195545084	15	systole	33	A	4157.735780147634	streaming
277.3143	0.1125011195545084	15	systole	34	A	4157.735780147634	streaming
277.5317	0.1125011195545084	15	systole	35	B	500.0	streaming
277.7493	0.1125011195545084	15	systole	36	A	4157.735780147634	streaming
280.1172	0.1100032582180574	16	systole	1	A	4157.735780147634	streaming
280.3409	0.1100032582180574	16	systole	2	B	500.0	streaming
280.5647	0.1100032582180574	16	systole	3	A	4157.735780147634	streaming
281.0272	0.1100032582180574	16	systole	4	A	4157.735780147634	streaming
281.2508	0.1100032582180574	16	systole	5	B	500.0	streaming
281.4747	0.1100032582180574	16	systole	6	A	4157.735780147634	streaming
281.9371	0.1100032582180574	16	systole	7	A	4157.735780147634	streaming
282.1608	0.1100032582180574	16	systole	8	B	500.0	streaming
282.3846	0.1100032582180574	16	systole	9	A	4157.735780147634	streaming
282.6905	0.1100032582180574	16	systole	10	A	4157.735780147634	streaming
282.9042	0.1100032582180574	16	systole	11	B	500.0	streaming
283.118	0.1100032582180574	16	systole	12	A	4157.735780147634	streaming
283.4805	0.1100032582180574	16	systole	13	A	4157.735780147634	streaming
283.6942	0.1100032582180574	16	systole	14	B	500.0	streaming
283.908	0.1100032582180574	16	systole	15	A	4157.735780147634	streaming
284.345	0.1100032582180574	16	systole	16	A	4157.735780147634	streaming
284.56	0.1100032582180574	16	systole	17	B	500.0	streaming
284.775	0.1100032582180574	16	systole	18	A	4157.735780147634	streaming
285.2888	0.1100032582180574	16	systole	19	A	4157.735780147634	streaming
285.5075	0.1100032582180574	16	systole	20	B	500.0	streaming
285.7263	0.1100032582180574	16	systole	21	A	4157.735780147634	streaming
286.2188	0.1100032582180574	16	systole	22	A	4157.735780147634	streaming
286.4374	0.1100032582180574	16	systole	23	B	500.0	streaming
286.6562	0.1100032582180574	16	systole	24	A	4157.735780147634	streaming
287.0004	0.1100032582180574	16	systole	25	A	4157.735780147634	streaming
287.2141	0.1100032582180574	16	systole	26	B	500.0	streaming
287.4279	0.1100032582180574	16	systole	27	A	4157.735780147634	streaming
287.8003	0.1100032582180574	16	systole	28	A	4157.735780147634	streaming
288.014	0.1100032582180574	16	systole	29	B	500.0	streaming
288.2278	0.1100032582180574	16	systole	30	A	4157.735780147634	streaming
288.5684	0.1100032582180574	16	systole	31	A	4157.735780147634	streaming
288.7733	0.1100032582180574	16	systole	32	B	500.0	streaming
288.9784	0.1100032582180574	16	systole	33	A	4157.735780147634	streaming
289.3685	0.1100032582180574	16	systole	34	A	4157.735780147634	streaming
289.5734	0.1100032582180574	16	systole	35	B	500.0	streaming
289.7785	0.1100032582180574	16	systole	36	A	4157.735780147634	streaming
291.9087	0.096247331239283	17	systole	1	A	4062.961875947593	coherent
292.0976	0.096247331239283	17	systole	2	B	500.0	coherent
292.2862	0.096247331239283	17	systole	3	A	4062.961875947593	coherent
292.6388	0.096247331239283	17	systole	4	A	4062.961875947593	coherent
292.8276	0.096247331239283	17	systole	5	B	500.0	coherent
293.0163	0.096247331239283	17	systole	6	A	4062.961875947593	coherent
293.4488	0.096247331239283	17	systole	7	A	4062.961875947593	coherent
293.6377	0.096247331239283	17	systole	8	B	500.0	coherent
293.8263	0.096247331239283	17	systole	9	A	4062.961875947593	coherent
294.2688	0.096247331239283	17	systole	10	A	4062.961875947593	coherent
294.4576	0.096247331239283	17	systole	11	B	500.0	coherent
294.6463	0.096247331239283	17	systole	12	A	4062.961875947593	coherent
295.0887	0.096247331239283	17	systole	13	A	4062.961875947593	coherent
295.2776	0.096247331239283	17	systole	14	B	500.0	coherent
295.4662	0.096247331239283	17	systole	15	A	4062.961875947593	coherent
295.8587	0.096247331239283	17	systole	16	A	4062.961875947593	coherent
296.0476	0.096247331239283	17	systole	17	B	500.0	coherent
296.2362	0.096247331239283	17	systole	18	A	4062.961875947593	coherent
296.6867	0.096247331239283	17	systole	19	A	4062.961875947593	coherent
296.8806	0.096247331239283	17	systole	20	B	500.0	coherent
297.0742	0.096247331239283	17	systole	21	A	4062.961875947593	coherent
297.4964	0.096247331239283	17	systole	22	A	4062.961875947593	coherent
297.6903	0.096247331239283	17	systole	23	B	500.0	coherent
297.8839	0.096247331239283	17	systole	24	A	4062.961875947593	coherent
298.2754	0.096247331239283	17	systole	25	A	4062.961875947593	coherent
298.4718	0.096247331239283	17	systole	26	B	500.0	coherent
298.668	0.096247331239283	17	systole	27	A	4062.961875947593	coherent
299.0354	0.096247331239283	17	systole	28	A	4062.961875947593	coherent
299.2318	0.096247331239283	17	systole	29	B	500.0	coherent
299.4279	0.096247331239283	17	systole	30	A	4062.961875947593	coherent
299.8591	0.096247331239283	17	systole	31	A	4062.961875947593	coherent
300.0591	0.096247331239283	17	systole	32	B	500.0	coherent
300.259	0.096247331239283	17	systole	33	A	4062.961875947593	coherent
300.6691	0.096247331239283	17	systole	34	A	4062.961875947593	coherent
300.8692	0.096247331239283	17	systole	35	B	500.0	coherent
301.069	0.096247331239283	17	systole	36	A	4062.961875947593	coherent
303.8857	0.1012330708326771	18	diastole	1	A	2561.886903957566	coherent
304.0918	0.1012330708326771	18	diastole	2	B	500.0	coherent
304.2982	0.1012330708326771	18	diastole	3	A	2561.886903957566	coherent
304.8468	0.1012330708326771	18	diastole	4	A	2561.886903957566	coherent
305.0567	0.1012330708326771	18	diastole	5	B	500.0	coherent
305.2668	0.1012330708326771	18	diastole	6	A	2561.886903957566	coherent
305.7867	0.1012330708326771	18	diastole	7	A	2561.886903957566	coherent
305.9965	0.1012330708326771	18	diastole	8	B	500.0	coherent
306.2066	0.1012330708326771	18	diastole	9	A	2561.886903957566	coherent
306.6167	0.1012330708326771	18	diastole	10	A	2561.886903957566	coherent
306.8266	0.1012330708326771	18	diastole	11	B	500.0	coherent
307.0367	0.1012330708326771	18	diastole	12	A	2561.886903957566	coherent
307.4396	0.1012330708326771	18	diastole	13	A	2561.886903957566	coherent
307.6482	0.1012330708326771	18	diastole	14	B	500.0	coherent
307.8571	0.1012330708326771	18	diastole	15	A	2561.886903957566	coherent
308.3268	0.1012330708326771	18	diastole	16	A	2561.886903957566	coherent
308.5366	0.1012330708326771	18	diastole	17	B	500.0	coherent
308.7468	0.1012330708326771	18	diastole	18	A	2561.886903957566	coherent
309.2352	0.1012330708326771	18	diastole	19	A	2561.886903957566	coherent
309.45	0.1012330708326771	18	diastole	20	B	500.0	coherent
309.6652	0.1012330708326771	18	diastole	21	A	2561.886903957566	coherent
310.1152	0.1012330708326771	18	diastole	22	A	2561.886903957566	coherent
310.33	0.1012330708326771	18	diastole	23	B	500.0	coherent
310.5452	0.1012330708326771	18	diastole	24	A	2561.886903957566	coherent
310.9352	0.1012330708326771	18	diastole	25	A	2561.886903957566	coherent
311.15	0.1012330708326771	18	diastole	26	B	500.0	coherent
311.3652	0.1012330708326771	18	diastole	27	A	2561.886903957566	coherent
311.6952	0.1012330708326771	18	diastole	28	A	2561.886903957566	coherent
311.9101	0.1012330708326771	18	diastole	29	B	500.0	coherent
312.1252	0.1012330708326771	18	diastole	30	A	2561.886903957566	coherent
312.4481	0.1012330708326771	18	diastole	31	A	2561.886903957566	coherent
312.6617	0.1012330708326771	18	diastole	32	B	500.0	coherent
312.8756	0.1012330708326771	18	diastole	33	A	2561.886903957566	coherent
315.3425	0.1043824370717629	19	systole	1	A	2034.3166651064248	coherent
315.5512	0.1043824370717629	19	systole	2	B	500.0	coherent
315.76	0.1043824370717629	19	systole	3	A	2034.3166651064248	coherent
316.2325	0.1043824370717629	19	systole	4	A	2034.3166651064248	coherent
316.4412	0.1043824370717629	19	systole	5	B	500.0	coherent
316.65	0.1043824370717629	19	systole	6	A	2034.3166651064248	coherent
317.2149	0.1043824370717629	19	systole	7	A	2034.3166651064248	coherent
317.4324	0.1043824370717629	19	systole	8	B	500.0	coherent
317.6499	0.1043824370717629	19	systole	9	A	2034.3166651064248	coherent
318.0794	0.1043824370717629	19	systole	10	A	2034.3166651064248	coherent
318.2981	0.1043824370717629	19	systole	11	B	500.0	coherent
318.5169	0.1043824370717629	19	systole	12	A	2034.3166651064248	coherent
318.9394	0.1043824370717629	19	systole	13	A	2034.3166651064248	coherent
319.1581	0.1043824370717629	19	systole	14	B	500.0	coherent
319.3769	0.1043824370717629	19	systole	15	A	2034.3166651064248	coherent
319.729	0.1043824370717629	19	systole	16	A	2034.3166651064248	coherent
319.9477	0.1043824370717629	19	systole	17	B	500.0	coherent
320.1665	0.1043824370717629	19	systole	18	A	2034.3166651064248	coherent
320.5407	0.1043824370717629	19	systole	19	A	2034.3166651064248	coherent
320.7545	0.1043824370717629	19	systole	20	B	500.0	coherent
320.9682	0.1043824370717629	19	systole	21	A	2034.3166651064248	coherent
321.3707	0.1043824370717629	19	systole	22	A	2034.3166651064248	coherent
321.5845	0.1043824370717629	19	systole	23	B	500.0	coherent
321.7983	0.1043824370717629	19	systole	24	A	2034.3166651064248	coherent
322.1915	0.1043824370717629	19	systole	25	A	2034.3166651064248	coherent
322.4028	0.1043824370717629	19	systole	26	B	500.0	coherent
322.614	0.1043824370717629	19	systole	27	A	2034.3166651064248	coherent
323.0215	0.1043824370717629	19	systole	28	A	2034.3166651064248	coherent
323.2328	0.1043824370717629	19	systole	29	B	500.0	coherent
323.444	0.1043824370717629	19	systole	30	A	2034.3166651064248	coherent
323.7576	0.1043824370717629	19	systole	31	A	2034.3166651064248	coherent
323.9651	0.1043824370717629	19	systole	32	B	500.0	coherent
324.1726	0.1043824370717629	19	systole	33	A	2034.3166651064248	coherent
326.7987	0.1025246605277061	20	diastole	1	A	3970.34830453257	coherent
327.0039	0.1025246605277061	20	diastole	2	B	500.0	coherent
327.2088	0.1025246605277061	20	diastole	3	A	3970.34830453257	coherent
327.7027	0.1025246605277061	20	diastole	4	A	3970.34830453257	coherent
327.9103	0.1025246605277061	20	diastole	5	B	500.0	coherent
328.1177	0.1025246605277061	20	diastole	6	A	3970.34830453257	coherent
328.6555	0.1025246605277061	20	diastole	7	A	3970.34830453257	coherent
328.8669	0.1025246605277061	20	diastole	8	B	500.0	coherent
329.078	0.1025246605277061	20	diastole	9	A	3970.34830453257	coherent
329.626	0.1025246605277061	20	diastole	10	A	3970.34830453257	coherent
329.8448	0.1025246605277061	20	diastole	11	B	500.0	coherent
330.0635	0.1025246605277061	20	diastole	12	A	3970.34830453257	coherent
330.554	0.1025246605277061	20	diastole	13	A	3970.34830453257	coherent
330.7728	0.1025246605277061	20	diastole	14	B	500.0	coherent
330.9914	0.1025246605277061	20	diastole	15	A	3970.34830453257	coherent
331.4858	0.1025246605277061	20	diastole	16	A	3970.34830453257	coherent
331.7099	0.1025246605277061	20	diastole	17	B	500.0	coherent
331.9339	0.1025246605277061	20	diastole	18	A	3970.34830453257	coherent
332.3039	0.1025246605277061	20	diastole	19	A	3970.34830453257	coherent
332.5281	0.1025246605277061	20	diastole	20	B	500.0	coherent
332.752	0.1025246605277061	20	diastole	21	A	3970.34830453257	coherent
333.1643	0.1025246605277061	20	diastole	22	A	3970.34830453257	coherent
333.3884	0.1025246605277061	20	diastole	23	B	500.0	coherent
333.6123	0.1025246605277061	20	diastole	24	A	3970.34830453257	coherent
334.0439	0.1025246605277061	20	diastole	25	A	3970.34830453257	coherent
334.268	0.1025246605277061	20	diastole	26	B	500.0	coherent
334.4919	0.1025246605277061	20	diastole	27	A	3970.34830453257	coherent
334.878	0.1025246605277061	20	diastole	28	A	3970.34830453257	coherent
335.0993	0.1025246605277061	20	diastole	29	B	500.0	coherent
335.3204	0.1025246605277061	20	diastole	30	A	3970.34830453257	coherent
335.7509	0.1025246605277061	20	diastole	31	A	3970.34830453257	coherent
335.971	0.1025246605277061	20	diastole	32	B	500.0	coherent
336.1909	0.1025246605277061	20	diastole	33	A	3970.34830453257	coherent
337.9386	0.1093540175352245	21	systole	1	A	2180.0224995339627	coherent
338.1574	0.1093540175352245	21	systole	2	B	500.0	coherent
338.376	0.1093540175352245	21	systole	3	A	2180.0224995339627	coherent
338.8486	0.1093540175352245	21	systole	4	A	2180.0224995339627	coherent
339.0674	0.1093540175352245	21	systole	5	B	500.0	coherent
339.286	0.1093540175352245	21	systole	6	A	2180.0224995339627	coherent
339.7886	0.1093540175352245	21	systole	7	A	2180.0224995339627	coherent
340.0074	0.1093540175352245	21	systole	8	B	500.0	coherent
340.226	0.1093540175352245	21	systole	9	A	2180.0224995339627	coherent
340.7286	0.1093540175352245	21	systole	10	A	2180.0224995339627	coherent
340.9474	0.1093540175352245	21	systole	11	B	500.0	coherent
341.166	0.1093540175352245	21	systole	12	A	2180.0224995339627	coherent
341.5887	0.1093540175352245	21	systole	13	A	2180.0224995339627	coherent
341.8074	0.1093540175352245	21	systole	14	B	500.0	coherent
342.0261	0.1093540175352245	21	systole	15	A	2180.0224995339627	coherent
342.4286	0.1093540175352245	21	systole	16	A	2180.0224995339627	coherent
342.6474	0.1093540175352245	21	systole	17	B	500.0	coherent
342.866	0.1093540175352245	21	systole	18	A	2180.0224995339627	coherent
343.2742	0.1093540175352245	21	systole	19	A	2180.0224995339627	coherent
343.4918	0.1093540175352245	21	systole	20	B	500.0	coherent
343.7092	0.1093540175352245	21	systole	21	A	2180.0224995339627	coherent
344.1445	0.1093540175352245	21	systole	22	A	2180.0224995339627	coherent
344.362	0.1093540175352245	21	systole	23	B	500.0	coherent
344.5795	0.1093540175352245	21	systole	24	A	2180.0224995339627	coherent
344.9445	0.1093540175352245	21	systole	25	A	2180.0224995339627	coherent
345.1621	0.1093540175352245	21	systole	26	B	500.0	coherent
345.3795	0.1093540175352245	21	systole	27	A	2180.0224995339627	coherent
345.7095	0.1093540175352245	21	systole	28	A	2180.0224995339627	coherent
345.9258	0.1093540175352245	21	systole	29	B	500.0	coherent
346.142	0.1093540175352245	21	systole	30	A	2180.0224995339627	coherent
346.5003	0.1093540175352245	21	systole	31	A	2180.0224995339627	coherent
346.7142	0.1093540175352245	21	systole	32	B	500.0	coherent
346.9279	0.1093540175352245	21	systole	33	A	2180.0224995339627	coherent
347.3003	0.1093540175352245	21	systole	34	A	2180.0224995339627	coherent
347.5141	0.1093540175352245	21	systole	35	B	500.0	coherent
347.7278	0.1093540175352245	21	systole	36	A	2180.0224995339627	coherent
350.0655	0.1062541104620322	22	systole	1	A	4999.999999999997	streaming
350.2805	0.1062541104620322	22	systole	2	B	500.0	streaming
350.4955	0.1062541104620322	22	systole	3	A	4999.999999999997	streaming
350.9758	0.1062541104620322	22	systole	4	A	4999.999999999997	streaming
351.1908	0.1062541104620322	22	systole	5	B	500.0	streaming
351.4059	0.1062541104620322	22	systole	6	A	4999.999999999997	streaming
351.8862	0.1062541104620322	22	systole	7	A	4999.999999999997	streaming
352.1012	0.1062541104620322	22	systole	8	B	500.0	streaming
352.3163	0.1062541104620322	22	systole	9	A	4999.999999999997	streaming
352.7966	0.1062541104620322	22	systole	10	A	4999.999999999997	streaming
353.0116	0.1062541104620322	22	systole	11	B	500.0	streaming
353.2267	0.1062541104620322	22	systole	12	A	4999.999999999997	streaming
353.7677	0.1062541104620322	22	systole	13	A	4999.999999999997	streaming
353.994	0.1062541104620322	22	systole	14	B	500.0	streaming
354.2202	0.1062541104620322	22	systole	15	A	4999.999999999997	streaming
354.6378	0.1062541104620322	22	systole	16	A	4999.999999999997	streaming
354.864	0.1062541104620322	22	systole	17	B	500.0	streaming
355.0903	0.1062541104620322	22	systole	18	A	4999.999999999997	streaming
355.4781	0.1062541104620322	22	systole	19	A	4999.999999999997	streaming
355.7043	0.1062541104620322	22	systole	20	B	500.0	streaming
355.9306	0.1062541104620322	22	systole	21	A	4999.999999999997	streaming
356.3185	0.1062541104620322	22	systole	22	A	4999.999999999997	streaming
356.5447	0.1062541104620322	22	systole	23	B	500.0	streaming
356.771	0.1062541104620322	22	systole	24	A	4999.999999999997	streaming
357.1785	0.1062541104620322	22	systole	25	A	4999.999999999997	streaming
357.4047	0.1062541104620322	22	systole	26	B	500.0	streaming
357.631	0.1062541104620322	22	systole	27	A	4999.999999999997	streaming
358.0385	0.1062541104620322	22	systole	28	A	4999.999999999997	streaming
358.2647	0.1062541104620322	22	systole	29	B	500.0	streaming
358.4909	0.1062541104620322	22	systole	30	A	4999.999999999997	streaming
358.9591	0.1062541104620322	22	systole	31	A	4999.999999999997	streaming
359.1828	0.1062541104620322	22	systole	32	B	500.0	streaming
359.4065	0.1062541104620322	22	systole	33	A	4999.999999999997	streaming
361.4795	0.1081268000416457	23	systole	1	A	4999.999999999997	streaming
361.6957	0.1081268000416457	23	systole	2	B	500.0	streaming
361.912	0.1081268000416457	23	systole	3	A	4999.999999999997	streaming
362.4195	0.1081268000416457	23	systole	4	A	4999.999999999997	streaming
362.6357	0.1081268000416457	23	systole	5	B	500.0	streaming
362.852	0.1081268000416457	23	systole	6	A	4999.999999999997	streaming
363.3178	0.1081268000416457	23	systole	7	A	4999.999999999997	streaming
363.539	0.1081268000416457	23	systole	8	B	500.0	streaming
363.7603	0.1081268000416457	23	systole	9	A	4999.999999999997	streaming
364.1978	0.1081268000416457	23	systole	10	A	4999.999999999997	streaming
364.419	0.1081268000416457	23	systole	11	B	500.0	streaming
364.6403	0.1081268000416457	23	systole	12	A	4999.999999999997	streaming
365.0777	0.1081268000416457	23	systole	13	A	4999.999999999997	streaming
365.2989	0.1081268000416457	23	systole	14	B	500.0	streaming
365.5202	0.1081268000416457	23	systole	15	A	4999.999999999997	streaming
365.9286	0.1081268000416457	23	systole	16	A	4999.999999999997	streaming
366.1473	0.1081268000416457	23	systole	17	B	500.0	streaming
366.3661	0.1081268000416457	23	systole	18	A	4999.999999999997	streaming
366.8569	0.1081268000416457	23	systole	19	A	4999.999999999997	streaming
367.0806	0.1081268000416457	23	systole	20	B	500.0	streaming
367.3044	0.1081268000416457	23	systole	21	A	4999.999999999997	streaming
367.7669	0.1081268000416457	23	systole	22	A	4999.999999999997	streaming
367.9906	0.1081268000416457	23	systole	23	B	500.0	streaming
368.2143	0.1081268000416457	23	systole	24	A	4999.999999999997	streaming
368.6181	0.1081268000416457	23	systole	25	A	4999.999999999997	streaming
368.8393	0.1081268000416457	23	systole	26	B	500.0	streaming
369.0606	0.1081268000416457	23	systole	27	A	4999.999999999997	streaming
369.4785	0.1081268000416457	23	systole	28	A	4999.999999999997	streaming
369.6997	0.1081268000416457	23	systole	29	B	500.0	streaming
369.921	0.1081268000416457	23	systole	30	A	4999.999999999997	streaming
370.3725	0.1081268000416457	23	systole	31	A	4999.999999999997	streaming
370.5949	0.1081268000416457	23	systole	32	B	500.0	streaming
370.8174	0.1081268000416457	23	systole	33	A	4999.999999999997	streaming
373.2119	0.1112555875442922	24	systole	1	A	4886.027023828005	coherent
373.437	0.1112555875442922	24	systole	2	B	500.0	coherent
373.6619	0.1112555875442922	24	systole	3	A	4886.027023828005	coherent
374.1423	0.1112555875442922	24	systole	4	A	4886.027023828005	coherent
374.3674	0.1112555875442922	24	systole	5	B	500.0	coherent
374.5923	0.1112555875442922	24	systole	6	A	4886.027023828005	coherent
374.9627	0.1112555875442922	24	systole	7	A	4886.027023828005	coherent
375.1853	0.1112555875442922	24	systole	8	B	500.0	coherent
375.4077	0.1112555875442922	24	systole	9	A	4886.027023828005	coherent
375.7825	0.1112555875442922	24	systole	10	A	4886.027023828005	coherent
376.0051	0.1112555875442922	24	systole	11	B	500.0	coherent
376.2274	0.1112555875442922	24	systole	12	A	4886.027023828005	coherent
376.7026	0.1112555875442922	24	systole	13	A	4886.027023828005	coherent
376.9251	0.1112555875442922	24	systole	14	B	500.0	coherent
377.1474	0.1112555875442922	24	systole	15	A	4886.027023828005	coherent
377.5933	0.1112555875442922	24	systole	16	A	4886.027023828005	coherent
377.8159	0.1112555875442922	24	systole	17	B	500.0	coherent
378.0384	0.1112555875442922	24	systole	18	A	4886.027023828005	coherent
378.4685	0.1112555875442922	24	systole	19	A	4886.027023828005	coherent
378.6899	0.1112555875442922	24	systole	20	B	500.0	coherent
378.911	0.1112555875442922	24	systole	21	A	4886.027023828005	coherent
379.3486	0.1112555875442922	24	systole	22	A	4886.027023828005	coherent
379.5699	0.1112555875442922	24	systole	23	B	500.0	coherent
379.7911	0.1112555875442922	24	systole	24	A	4886.027023828005	coherent
380.3071	0.1112555875442922	24	systole	25	A	4886.027023828005	coherent
380.5335	0.1112555875442922	24	systole	26	B	500.0	coherent
380.7597	0.1112555875442922	24	systole	27	A	4886.027023828005	coherent
381.2471	0.1112555875442922	24	systole	28	A	4886.027023828005	coherent
381.4735	0.1112555875442922	24	systole	29	B	500.0	coherent
381.6997	0.1112555875442922	24	systole	30	A	4886.027023828005	coherent
382.1487	0.1112555875442922	24	systole	31	A	4886.027023828005	coherent
382.3701	0.1112555875442922	24	systole	32	B	500.0	coherent
382.5914	0.1112555875442922	24	systole	33	A	4886.027023828005	coherent
385.2497	0.1131503471988253	25	diastole	1	A	995.3600980827048	coherent
385.4757	0.1131503471988253	25	diastole	2	B	500.0	coherent
385.7023	0.1131503471988253	25	diastole	3	A	995.3600980827048	coherent
386.1354	0.1131503471988253	25	diastole	4	A	995.3600980827048	coherent
386.3589	0.1131503471988253	25	diastole	5	B	500.0	coherent
386.583	0.1131503471988253	25	diastole	6	A	995.3600980827048	coherent
387.0354	0.1131503471988253	25	diastole	7	A	995.3600980827048	coherent
387.2589	0.1131503471988253	25	diastole	8	B	500.0	coherent
387.4829	0.1131503471988253	25	diastole	9	A	995.3600980827048	coherent
387.855	0.1131503471988253	25	diastole	10	A	995.3600980827048	coherent
388.0785	0.1131503471988253	25	diastole	11	B	500.0	coherent
388.3025	0.1131503471988253	25	diastole	12	A	995.3600980827048	coherent
388.708	0.1131503471988253	25	diastole	13	A	995.3600980827048	coherent
388.9302	0.1131503471988253	25	diastole	14	B	500.0	coherent
389.153	0.1131503471988253	25	diastole	15	A	995.3600980827048	coherent
389.608	0.1131503471988253	25	diastole	16	A	995.3600980827048	coherent
389.8302	0.1131503471988253	25	diastole	17	B	500.0	coherent
390.053	0.1131503471988253	25	diastole	18	A	995.3600980827048	coherent
390.508	0.1131503471988253	25	diastole	19	A	995.3600980827048	coherent
390.7302	0.1131503471988253	25	diastole	20	B	500.0	coherent
390.9531	0.1131503471988253	25	diastole	21	A	995.3600980827048	coherent
391.3279	0.1131503471988253	25	diastole	22	A	995.3600980827048	coherent
391.5501	0.1131503471988253	25	diastole	23	B	500.0	coherent
391.7729	0.1131503471988253	25	diastole	24	A	995.3600980827048	coherent
392.1479	0.1131503471988253	25	diastole	25	A	995.3600980827048	coherent
392.3701	0.1131503471988253	25	diastole	26	B	500.0	coherent
392.5929	0.1131503471988253	25	diastole	27	A	995.3600980827048	coherent
393.0038	0.1131503471988253	25	diastole	28	A	995.3600980827048	coherent
393.2235	0.1131503471988253	25	diastole	29	B	500.0	coherent
393.4438	0.1131503471988253	25	diastole	30	A	995.3600980827048	coherent
393.8596	0.1131503471988253	25	diastole	31	A	995.3600980827048	coherent
394.0768	0.1131503471988253	25	diastole	32	B	500.0	coherent
394.2946	0.1131503471988253	25	diastole	33	A	995.3600980827048	coherent
396.4695	0.1081256600446067	26	diastole	1	A	1018.5781753033378	coherent
396.6867	0.1081256600446067	26	diastole	2	B	500.0	coherent
396.9045	0.1081256600446067	26	diastole	3	A	1018.5781753033378	coherent
397.3696	0.1081256600446067	26	diastole	4	A	1018.5781753033378	coherent
397.5868	0.1081256600446067	26	diastole	5	B	500.0	coherent
397.8045	0.1081256600446067	26	diastole	6	A	1018.5781753033378	coherent
398.1896	0.1081256600446067	26	diastole	7	A	1018.5781753033378	coherent
398.4068	0.1081256600446067	26	diastole	8	B	500.0	coherent
398.6245	0.1081256600446067	26	diastole	9	A	1018.5781753033378	coherent
399.0096	0.1081256600446067	26	diastole	10	A	1018.5781753033378	coherent
399.2268	0.1081256600446067	26	diastole	11	B	500.0	coherent
399.4445	0.1081256600446067	26	diastole	12	A	1018.5781753033378	coherent
399.7854	0.1081256600446067	26	diastole	13	A	1018.5781753033378	coherent
400.0001	0.1081256600446067	26	diastole	14	B	500.0	coherent
400.2154	0.1081256600446067	26	diastole	15	A	1018.5781753033378	coherent
400.6054	0.1081256600446067	26	diastole	16	A	1018.5781753033378	coherent
400.8201	0.1081256600446067	26	diastole	17	B	500.0	coherent
401.0354	0.1081256600446067	26	diastole	18	A	1018.5781753033378	coherent
401.4253	0.1081256600446067	26	diastole	19	A	1018.5781753033378	coherent
401.6401	0.1081256600446067	26	diastole	20	B	500.0	coherent
401.8553	0.1081256600446067	26	diastole	21	A	1018.5781753033378	coherent
402.3071	0.1081256600446067	26	diastole	22	A	1018.5781753033378	coherent
402.5218	0.1081256600446067	26	diastole	23	B	500.0	coherent
402.737	0.1081256600446067	26	diastole	24	A	1018.5781753033378	coherent
403.1571	0.1081256600446067	26	diastole	25	A	1018.5781753033378	coherent
403.3704	0.1081256600446067	26	diastole	26	B	500.0	coherent
403.5842	0.1081256600446067	26	diastole	27	A	1018.5781753033378	coherent
403.9398	0.1081256600446067	26	diastole	28	A	1018.5781753033378	coherent
404.1483	0.1081256600446067	26	diastole	29	B	500.0	coherent
404.3573	0.1081256600446067	26	diastole	30	A	1018.5781753033378	coherent
404.7939	0.1081256600446067	26	diastole	31	A	1018.5781753033378	coherent
405.0048	0.1081256600446067	26	diastole	32	B	500.0	coherent
405.2164	0.1081256600446067	26	diastole	33	A	1018.5781753033378	coherent
405.6702	0.1081256600446067	26	diastole	34	A	1018.5781753033378	coherent
405.8822	0.1081256600446067	26	diastole	35	B	500.0	coherent
406.0947	0.1081256600446067	26	diastole	36	A	1018.5781753033378	coherent
407.7851	0.1043465373804792	27	systole	1	A	2081.769764253799	streaming
407.9974	0.1043465373804792	27	systole	2	B	500.0	streaming
408.2097	0.1043465373804792	27	systole	3	A	2081.769764253799	streaming
408.7252	0.1043465373804792	27	systole	4	A	2081.769764253799	streaming
408.9375	0.1043465373804792	27	systole	5	B	500.0	streaming
409.1498	0.1043465373804792	27	systole	6	A	2081.769764253799	streaming
409.5569	0.1043465373804792	27	systole	7	A	2081.769764253799	streaming
409.7669	0.1043465373804792	27	systole	8	B	500.0	streaming
409.9769	0.1043465373804792	27	systole	9	A	2081.769764253799	streaming
410.3969	0.1043465373804792	27	systole	10	A	2081.769764253799	streaming
410.607	0.1043465373804792	27	systole	11	B	500.0	streaming
410.8169	0.1043465373804792	27	systole	12	A	2081.769764253799	streaming
411.2515	0.1043465373804792	27	systole	13	A	2081.769764253799	streaming
411.4627	0.1043465373804792	27	systole	14	B	500.0	streaming
411.674	0.1043465373804792	27	systole	15	A	2081.769764253799	streaming
412.1014	0.1043465373804792	27	systole	16	A	2081.769764253799	streaming
412.3127	0.1043465373804792	27	systole	17	B	500.0	streaming
412.524	0.1043465373804792	27	systole	18	A	2081.769764253799	streaming
412.8714	0.1043465373804792	27	systole	19	A	2081.769764253799	streaming
413.0827	0.1043465373804792	27	systole	20	B	500.0	streaming
413.2939	0.1043465373804792	27	systole	21	A	2081.769764253799	streaming
413.5815	0.1043465373804792	27	systole	22	A	2081.769764253799	streaming
413.7927	0.1043465373804792	27	systole	23	B	500.0	streaming
414.004	0.1043465373804792	27	systole	24	A	2081.769764253799	streaming
414.2915	0.1043465373804792	27	systole	25	A	2081.769764253799	streaming
414.5028	0.1043465373804792	27	systole	26	B	500.0	streaming
414.714	0.1043465373804792	27	systole	27	A	2081.769764253799	streaming
415.0016	0.1043465373804792	27	systole	28	A	2081.769764253799	streaming
415.2128	0.1043465373804792	27	systole	29	B	500.0	streaming
415.4241	0.1043465373804792	27	systole	30	A	2081.769764253799	streaming
415.7116	0.1043465373804792	27	systole	31	A	2081.769764253799	streaming
415.9229	0.1043465373804792	27	systole	32	B	500.0	streaming
416.1341	0.1043465373804792	27	systole	33	A	2081.769764253799	streaming
416.4115	0.1043465373804792	27	systole	34	A	2081.769764253799	streaming
416.6228	0.1043465373804792	27	systole	35	B	500.0	streaming
416.834	0.1043465373804792	27	systole	36	A	2081.769764253799	streaming
417.145	0.1043465373804792	27	systole	37	A	2081.769764253799	streaming
417.3463	0.1043465373804792	27	systole	38	B	500.0	streaming
417.5476	0.1043465373804792	27	systole	39	A	2081.769764253799	streaming
419.9046	0.1012605373980477	28	diastole	1	A	4999.999999999997	streaming
420.1071	0.1012605373980477	28	diastole	2	B	500.0	streaming
420.3096	0.1012605373980477	28	diastole	3	A	4999.999999999997	streaming
420.887	0.1012605373980477	28	diastole	4	A	4999.999999999997	streaming
421.0969	0.1012605373980477	28	diastole	5	B	500.0	streaming
421.307	0.1012605373980477	28	diastole	6	A	4999.999999999997	streaming
421.8269	0.1012605373980477	28	diastole	7	A	4999.999999999997	streaming
422.0369	0.1012605373980477	28	diastole	8	B	500.0	streaming
422.2469	0.1012605373980477	28	diastole	9	A	4999.999999999997	streaming
422.7192	0.1012605373980477	28	diastole	10	A	4999.999999999997	streaming
422.9381	0.1012605373980477	28	diastole	11	B	500.0	streaming
423.1571	0.1012605373980477	28	diastole	12	A	4999.999999999997	streaming
423.5593	0.1012605373980477	28	diastole	13	A	4999.999999999997	streaming
423.7782	0.1012605373980477	28	diastole	14	B	500.0	streaming
423.9972	0.1012605373980477	28	diastole	15	A	4999.999999999997	streaming
424.3993	0.1012605373980477	28	diastole	16	A	4999.999999999997	streaming
424.6182	0.1012605373980477	28	diastole	17	B	500.0	streaming
424.8372	0.1012605373980477	28	diastole	18	A	4999.999999999997	streaming
425.2393	0.1012605373980477	28	diastole	19	A	4999.999999999997	streaming
425.4582	0.1012605373980477	28	diastole	20	B	500.0	streaming
425.6772	0.1012605373980477	28	diastole	21	A	4999.999999999997	streaming
426.0723	0.1012605373980477	28	diastole	22	A	4999.999999999997	streaming
426.2934	0.1012605373980477	28	diastole	23	B	500.0	streaming
426.5147	0.1012605373980477	28	diastole	24	A	4999.999999999997	streaming
426.7839	0.1012605373980477	28	diastole	25	A	4999.999999999997	streaming
426.9965	0.1012605373980477	28	diastole	26	B	500.0	streaming
427.2092	0.1012605373980477	28	diastole	27	A	4999.999999999997	streaming
427.5439	0.1012605373980477	28	diastole	28	A	4999.999999999997	streaming
427.7565	0.1012605373980477	28	diastole	29	B	500.0	streaming
427.9692	0.1012605373980477	28	diastole	30	A	4999.999999999997	streaming
428.3101	0.1012605373980477	28	diastole	31	A	4999.999999999997	streaming
428.5203	0.1012605373980477	28	diastole	32	B	500.0	streaming
428.7305	0.1012605373980477	28	diastole	33	A	4999.999999999997	streaming
429.1317	0.1012605373980477	28	diastole	34	A	4999.999999999997	streaming
429.3405	0.1012605373980477	28	diastole	35	B	500.0	streaming
429.5493	0.1012605373980477	28	diastole	36	A	4999.999999999997	streaming
431.5357	0.1050033936044201	29	systole	1	A	1374.6058324966025	coherent
431.7482	0.1050033936044201	29	systole	2	B	500.0	coherent
431.9606	0.1050033936044201	29	systole	3	A	1374.6058324966025	coherent
432.4657	0.1050033936044201	29	systole	4	A	1374.6058324966025	coherent
432.6782	0.1050033936044201	29	systole	5	B	500.0	coherent
432.8906	0.1050033936044201	29	systole	6	A	1374.6058324966025	coherent
433.3904	0.1050033936044201	29	systole	7	A	1374.6058324966025	coherent
433.6043	0.1050033936044201	29	systole	8	B	500.0	coherent
433.8179	0.1050033936044201	29	systole	9	A	1374.6058324966025	coherent
434.258	0.1050033936044201	29	systole	10	A	1374.6058324966025	coherent
434.4794	0.1050033936044201	29	systole	11	B	500.0	coherent
434.7006	0.1050033936044201	29	systole	12	A	1374.6058324966025	coherent
435.068	0.1050033936044201	29	systole	13	A	1374.6058324966025	coherent
435.2893	0.1050033936044201	29	systole	14	B	500.0	coherent
435.5105	0.1050033936044201	29	systole	15	A	1374.6058324966025	coherent
435.8878	0.1050033936044201	29	systole	16	A	1374.6058324966025	coherent
436.1092	0.1050033936044201	29	systole	17	B	500.0	coherent
436.3303	0.1050033936044201	29	systole	18	A	1374.6058324966025	coherent
436.7077	0.1050033936044201	29	systole	19	A	1374.6058324966025	coherent
436.929	0.1050033936044201	29	systole	20	B	500.0	coherent
437.1502	0.1050033936044201	29	systole	21	A	1374.6058324966025	coherent
437.6361	0.1050033936044201	29	systole	22	A	1374.6058324966025	coherent
437.8624	0.1050033936044201	29	systole	23	B	500.0	coherent
438.0886	0.1050033936044201	29	systole	24	A	1374.6058324966025	coherent
438.5462	0.1050033936044201	29	systole	25	A	1374.6058324966025	coherent
438.7725	0.1050033936044201	29	systole	26	B	500.0	coherent
438.9987	0.1050033936044201	29	systole	27	A	1374.6058324966025	coherent
439.3578	0.1050033936044201	29	systole	28	A	1374.6058324966025	coherent
439.5791	0.1050033936044201	29	systole	29	B	500.0	coherent
439.8003	0.1050033936044201	29	systole	30	A	1374.6058324966025	coherent
440.2285	0.1050033936044201	29	systole	31	A	1374.6058324966025	coherent
440.4473	0.1050033936044201	29	systole	32	B	500.0	coherent
440.666	0.1050033936044201	29	systole	33	A	1374.6058324966025	coherent
441.1785	0.1050033936044201	29	systole	34	A	1374.6058324966025	coherent
441.3973	0.1050033936044201	29	systole	35	B	500.0	coherent
441.616	0.1050033936044201	29	systole	36	A	1374.6058324966025	coherent
444.0171	0.1093756173504516	30	systole	1	A	1439.4827392967493	coherent
444.2409	0.1093756173504516	30	systole	2	B	500.0	coherent
444.4646	0.1093756173504516	30	systole	3	A	1439.4827392967493	coherent
444.9409	0.1093756173504516	30	systole	4	A	1439.4827392967493	coherent
445.1685	0.1093756173504516	30	systole	5	B	500.0	coherent
445.3959	0.1093756173504516	30	systole	6	A	1439.4827392967493	coherent
445.7609	0.1093756173504516	30	systole	7	A	1439.4827392967493	coherent
445.9885	0.1093756173504516	30	systole	8	B	500.0	coherent
446.2159	0.1093756173504516	30	systole	9	A	1439.4827392967493	coherent
446.5671	0.1093756173504516	30	systole	10	A	1439.4827392967493	coherent
446.791	0.1093756173504516	30	systole	11	B	500.0	coherent
447.0146	0.1093756173504516	30	systole	12	A	1439.4827392967493	coherent
447.3971	0.1093756173504516	30	systole	13	A	1439.4827392967493	coherent
447.621	0.1093756173504516	30	systole	14	B	500.0	coherent
447.8446	0.1093756173504516	30	systole	15	A	1439.4827392967493	coherent
448.2526	0.1093756173504516	30	systole	16	A	1439.4827392967493	coherent
448.4752	0.1093756173504516	30	systole	17	B	500.0	coherent
448.6976	0.1093756173504516	30	systole	18	A	1439.4827392967493	coherent
449.1127	0.1093756173504516	30	systole	19	A	1439.4827392967493	coherent
449.3353	0.1093756173504516	30	systole	20	B	500.0	coherent
449.5577	0.1093756173504516	30	systole	21	A	1439.4827392967493	coherent
449.8814	0.1093756173504516	30	systole	22	A	1439.4827392967493	coherent
450.0928	0.1093756173504516	30	systole	23	B	500.0	coherent
450.304	0.1093756173504516	30	systole	24	A	1439.4827392967493	coherent
450.6914	0.1093756173504516	30	systole	25	A	1439.4827392967493	coherent
450.9028	0.1093756173504516	30	systole	26	B	500.0	coherent
451.114	0.1093756173504516	30	systole	27	A	1439.4827392967493	coherent
451.5914	0.1093756173504516	30	systole	28	A	1439.4827392967493	coherent
451.8028	0.1093756173504516	30	systole	29	B	500.0	coherent
452.014	0.1093756173504516	30	systole	30	A	1439.4827392967493	coherent
452.4615	0.1093756173504516	30	systole	31	A	1439.4827392967493	coherent
452.6728	0.1093756173504516	30	systole	32	B	500.0	coherent
452.884	0.1093756173504516	30	systole	33	A	1439.4827392967493	coherent
453.3314	0.1093756173504516	30	systole	34	A	1439.4827392967493	coherent
453.5428	0.1093756173504516	30	systole	35	B	500.0	coherent
453.754	0.1093756173504516	30	systole	36	A	1439.4827392967493	coherent
456.5511	0.1087501375004649	31	diastole	1	A	4999.999999999997	streaming
456.7685	0.1087501375004649	31	diastole	2	B	500.0	streaming
456.9861	0.1087501375004649	31	diastole	3	A	4999.999999999997	streaming
457.4524	0.1087501375004649	31	diastole	4	A	4999.999999999997	streaming
457.6722	0.1087501375004649	31	diastole	5	B	500.0	streaming
457.892	0.1087501375004649	31	diastole	6	A	4999.999999999997	streaming
458.3566	0.1087501375004649	31	diastole	7	A	4999.999999999997	streaming
458.5789	0.1087501375004649	31	diastole	8	B	500.0	streaming
458.8012	0.1087501375004649	31	diastole	9	A	4999.999999999997	streaming
459.2467	0.1087501375004649	31	diastole	10	A	4999.999999999997	streaming
459.4689	0.1087501375004649	31	diastole	11	B	500.0	streaming
459.6912	0.1087501375004649	31	diastole	12	A	4999.999999999997	streaming
460.1166	0.1087501375004649	31	diastole	13	A	4999.999999999997	streaming
460.3388	0.1087501375004649	31	diastole	14	B	500.0	streaming
460.5612	0.1087501375004649	31	diastole	15	A	4999.999999999997	streaming
461.0065	0.1087501375004649	31	diastole	16	A	4999.999999999997	streaming
461.2288	0.1087501375004649	31	diastole	17	B	500.0	streaming
461.4511	0.1087501375004649	31	diastole	18	A	4999.999999999997	streaming
461.8665	0.1087501375004649	31	diastole	19	A	4999.999999999997	streaming
462.0887	0.1087501375004649	31	diastole	20	B	500.0	streaming
462.3111	0.1087501375004649	31	diastole	21	A	4999.999999999997	streaming
462.7265	0.1087501375004649	31	diastole	22	A	4999.999999999997	streaming
462.9488	0.1087501375004649	31	diastole	23	B	500.0	streaming
463.1711	0.1087501375004649	31	diastole	24	A	4999.999999999997	streaming
463.6165	0.1087501375004649	31	diastole	25	A	4999.999999999997	streaming
463.8388	0.1087501375004649	31	diastole	26	B	500.0	streaming
464.0611	0.1087501375004649	31	diastole	27	A	4999.999999999997	streaming
464.5065	0.1087501375004649	31	diastole	28	A	4999.999999999997	streaming
464.7287	0.1087501375004649	31	diastole	29	B	500.0	streaming
464.9511	0.1087501375004649	31	diastole	30	A	4999.999999999997	streaming
465.4164	0.1087501375004649	31	diastole	31	A	4999.999999999997	streaming
465.6386	0.1087501375004649	31	diastole	32	B	500.0	streaming
465.8609	0.1087501375004649	31	diastole	33	A	4999.999999999997	streaming
468.8636	0.1099962927401065	32	diastole	1	A	1091.5327872906942	coherent
469.0834	0.1099962927401065	32	diastole	2	B	500.0	coherent
469.3036	0.1099962927401065	32	diastole	3	A	1091.5327872906942	coherent
469.7536	0.1099962927401065	32	diastole	4	A	1091.5327872906942	coherent
469.9735	0.1099962927401065	32	diastole	5	B	500.0	coherent
470.1936	0.1099962927401065	32	diastole	6	A	1091.5327872906942	coherent
470.6577	0.1099962927401065	32	diastole	7	A	1091.5327872906942	coherent
470.8801	0.1099962927401065	32	diastole	8	B	500.0	coherent
471.1027	0.1099962927401065	32	diastole	9	A	1091.5327872906942	coherent
471.4478	0.1099962927401065	32	diastole	10	A	1091.5327872906942	coherent
471.6701	0.1099962927401065	32	diastole	11	B	500.0	coherent
471.8928	0.1099962927401065	32	diastole	12	A	1091.5327872906942	coherent
472.2378	0.1099962927401065	32	diastole	13	A	1091.5327872906942	coherent
472.4601	0.1099962927401065	32	diastole	14	B	500.0	coherent
472.6828	0.1099962927401065	32	diastole	15	A	1091.5327872906942	coherent
473.0037	0.1099962927401065	32	diastole	16	A	1091.5327872906942	coherent
473.2235	0.1099962927401065	32	diastole	17	B	500.0	coherent
473.4437	0.1099962927401065	32	diastole	18	A	1091.5327872906942	coherent
473.9038	0.1099962927401065	32	diastole	19	A	1091.5327872906942	coherent
474.1236	0.1099962927401065	32	diastole	20	B	500.0	coherent
474.3438	0.1099962927401065	32	diastole	21	A	1091.5327872906942	coherent
474.7425	0.1099962927401065	32	diastole	22	A	1091.5327872906942	coherent
474.9586	0.1099962927401065	32	diastole	23	B	500.0	coherent
475.175	0.1099962927401065	32	diastole	24	A	1091.5327872906942	coherent
475.6025	0.1099962927401065	32	diastole	25	A	1091.5327872906942	coherent
475.8186	0.1099962927401065	32	diastole	26	B	500.0	coherent
476.035	0.1099962927401065	32	diastole	27	A	1091.5327872906942	coherent
476.4211	0.1099962927401065	32	diastole	28	A	1091.5327872906942	coherent
476.6335	0.1099962927401065	32	diastole	29	B	500.0	coherent
476.8461	0.1099962927401065	32	diastole	30	A	1091.5327872906942	coherent
477.3011	0.1099962927401065	32	diastole	31	A	1091.5327872906942	coherent
477.5134	0.1099962927401065	32	diastole	32	B	500.0	coherent
477.7261	0.1099962927401065	32	diastole	33	A	1091.5327872906942	coherent
480.52	0.1037654301617294	33	diastole	1	A	4999.999999999997	coherent
480.7287	0.1037654301617294	33	diastole	2	B	500.0	coherent
480.9375	0.1037654301617294	33	diastole	3	A	4999.999999999997	coherent
481.32	0.1037654301617294	33	diastole	4	A	4999.999999999997	coherent
481.5287	0.1037654301617294	33	diastole	5	B	500.0	coherent
481.7375	0.1037654301617294	33	diastole	6	A	4999.999999999997	coherent
482.1199	0.1037654301617294	33	diastole	7	A	4999.999999999997	coherent
482.3287	0.1037654301617294	33	diastole	8	B	500.0	coherent
482.5375	0.1037654301617294	33	diastole	9	A	4999.999999999997	coherent
482.8487	0.1037654301617294	33	diastole	10	A	4999.999999999997	coherent
483.0537	0.1037654301617294	33	diastole	11	B	500.0	coherent
483.2587	0.1037654301617294	33	diastole	12	A	4999.999999999997	coherent
483.5987	0.1037654301617294	33	diastole	13	A	4999.999999999997	coherent
483.8037	0.1037654301617294	33	diastole	14	B	500.0	coherent
484.0088	0.1037654301617294	33	diastole	15	A	4999.999999999997	coherent
484.2491	0.1037654301617294	33	diastole	16	A	4999.999999999997	coherent
484.4453	0.1037654301617294	33	diastole	17	B	500.0	coherent
484.6416	0.1037654301617294	33	diastole	18	A	4999.999999999997	coherent
484.9491	0.1037654301617294	33	diastole	19	A	4999.999999999997	coherent
485.1453	0.1037654301617294	33	diastole	20	B	500.0	coherent
485.3416	0.1037654301617294	33	diastole	21	A	4999.999999999997	coherent
485.6337	0.1037654301617294	33	diastole	22	A	4999.999999999997	coherent
485.8237	0.1037654301617294	33	diastole	23	B	500.0	coherent
486.0138	0.1037654301617294	33	diastole	24	A	4999.999999999997	coherent
486.3538	0.1037654301617294	33	diastole	25	A	4999.999999999997	coherent
486.5437	0.1037654301617294	33	diastole	26	B	500.0	coherent
486.7337	0.1037654301617294	33	diastole	27	A	4999.999999999997	coherent
487.0737	0.1037654301617294	33	diastole	28	A	4999.999999999997	coherent
487.2637	0.1037654301617294	33	diastole	29	B	500.0	coherent
487.4537	0.1037654301617294	33	diastole	30	A	4999.999999999997	coherent
487.8766	0.1037654301617294	33	diastole	31	A	4999.999999999997	coherent
488.0653	0.1037654301617294	33	diastole	32	B	500.0	coherent
488.2541	0.1037654301617294	33	diastole	33	A	4999.999999999997	coherent
488.6667	0.1037654301617294	33	diastole	34	A	4999.999999999997	coherent
488.8554	0.1037654301617294	33	diastole	35	B	500.0	coherent
489.0442	0.1037654301617294	33	diastole	36	A	4999.999999999997	coherent
489.5066	0.1037654301617294	33	diastole	37	A	4999.999999999997	coherent
489.6953	0.1037654301617294	33	diastole	38	B	500.0	coherent
489.8841	0.1037654301617294	33	diastole	39	A	4999.999999999997	coherent
491.9092	0.1000028291600756	34	systole	1	A	1473.0605584831292	coherent
492.1118	0.1000028291600756	34	systole	2	B	500.0	coherent
492.3142	0.1000028291600756	34	systole	3	A	1473.0605584831292	coherent
492.799	0.1000028291600756	34	systole	4	A	1473.0605584831292	coherent
493.0017	0.1000028291600756	34	systole	5	B	500.0	coherent
493.204	0.1000028291600756	34	systole	6	A	1473.0605584831292	coherent
493.5991	0.1000028291600756	34	systole	7	A	1473.0605584831292	coherent
493.8017	0.1000028291600756	34	systole	8	B	500.0	coherent
494.0041	0.1000028291600756	34	systole	9	A	1473.0605584831292	coherent
494.3645	0.1000028291600756	34	systole	10	A	1473.0605584831292	coherent
494.5659	0.1000028291600756	34	systole	11	B	500.0	coherent
494.7671	0.1000028291600756	34	systole	12	A	1473.0605584831292	coherent
495.1345	0.1000028291600756	34	systole	13	A	1473.0605584831292	coherent
495.3359	0.1000028291600756	34	systole	14	B	500.0	coherent
495.537	0.1000028291600756	34	systole	15	A	1473.0605584831292	coherent
495.9928	0.1000028291600756	34	systole	16	A	1473.0605584831292	coherent
496.1992	0.1000028291600756	34	systole	17	B	500.0	coherent
496.4053	0.1000028291600756	34	systole	18	A	1473.0605584831292	coherent
496.8965	0.1000028291600756	34	systole	19	A	1473.0605584831292	coherent
497.1066	0.1000028291600756	34	systole	20	B	500.0	coherent
497.3165	0.1000028291600756	34	systole	21	A	1473.0605584831292	coherent
497.8065	0.1000028291600756	34	systole	22	A	1473.0605584831292	coherent
498.0166	0.1000028291600756	34	systole	23	B	500.0	coherent
498.2265	0.1000028291600756	34	systole	24	A	1473.0605584831292	coherent
498.7503	0.1000028291600756	34	systole	25	A	1473.0605584831292	coherent
498.9642	0.1000028291600756	34	systole	26	B	500.0	coherent
499.1779	0.1000028291600756	34	systole	27	A	1473.0605584831292	coherent
499.6804	0.1000028291600756	34	systole	28	A	1473.0605584831292	coherent
499.8943	0.1000028291600756	34	systole	29	B	500.0	coherent
500.108	0.1000028291600756	34	systole	30	A	1473.0605584831292	coherent
500.5894	0.1000028291600756	34	systole	31	A	1473.0605584831292	coherent
500.8058	0.1000028291600756	34	systole	32	B	500.0	coherent
501.0219	0.1000028291600756	34	systole	33	A	1473.0605584831292	coherent
501.4894	0.1000028291600756	34	systole	34	A	1473.0605584831292	coherent
501.7058	0.1000028291600756	34	systole	35	B	500.0	coherent
501.9219	0.1000028291600756	34	systole	36	A	1473.0605584831292	coherent
504.8825	0.1118729842710308	35	systole	1	A	1542.5842068661057	coherent
505.1051	0.1118729842710308	35	systole	2	B	500.0	coherent
505.3274	0.1118729842710308	35	systole	3	A	1542.5842068661057	coherent
505.7124	0.1118729842710308	35	systole	4	A	1542.5842068661057	coherent
505.9351	0.1118729842710308	35	systole	5	B	500.0	coherent
506.1574	0.1118729842710308	35	systole	6	A	1542.5842068661057	coherent
506.6217	0.1118729842710308	35	systole	7	A	1542.5842068661057	coherent
506.8469	0.1118729842710308	35	systole	8	B	500.0	coherent
507.0717	0.1118729842710308	35	systole	9	A	1542.5842068661057	coherent
507.5218	0.1118729842710308	35	systole	10	A	1542.5842068661057	coherent
507.7469	0.1118729842710308	35	systole	11	B	500.0	coherent
507.9718	0.1118729842710308	35	systole	12	A	1542.5842068661057	coherent
508.4318	0.1118729842710308	35	systole	13	A	1542.5842068661057	coherent
508.657	0.1118729842710308	35	systole	14	B	500.0	coherent
508.8818	0.1118729842710308	35	systole	15	A	1542.5842068661057	coherent
509.2826	0.1118729842710308	35	systole	16	A	1542.5842068661057	coherent
509.5053	0.1118729842710308	35	systole	17	B	500.0	coherent
509.7277	0.1118729842710308	35	systole	18	A	1542.5842068661057	coherent
510.1426	0.1118729842710308	35	systole	19	A	1542.5842068661057	coherent
510.3653	0.1118729842710308	35	systole	20	B	500.0	coherent
510.5876	0.1118729842710308	35	systole	21	A	1542.5842068661057	coherent
511.0026	0.1118729842710308	35	systole	22	A	1542.5842068661057	coherent
511.2252	0.1118729842710308	35	systole	23	B	500.0	coherent
511.4476	0.1118729842710308	35	systole	24	A	1542.5842068661057	coherent
511.7792	0.1118729842710308	35	systole	25	A	1542.5842068661057	coherent
511.9983	0.1118729842710308	35	systole	26	B	500.0	coherent
512.2171	0.1118729842710308	35	systole	27	A	1542.5842068661057	coherent
512.5687	0.1118729842710308	35	systole	28	A	1542.5842068661057	coherent
512.7879	0.1118729842710308	35	systole	29	B	500.0	coherent
513.0067	0.1118729842710308	35	systole	30	A	1542.5842068661057	coherent
513.3583	0.1118729842710308	35	systole	31	A	1542.5842068661057	coherent
513.5775	0.1118729842710308	35	systole	32	B	500.0	coherent
513.7963	0.1118729842710308	35	systole	33	A	1542.5842068661057	coherent
515.7895	0.1025000668596476	36	systole	1	A	1615.38914443753	streaming
515.9916	0.1025000668596476	36	systole	2	B	500.0	streaming
516.1944	0.1025000668596476	36	systole	3	A	1615.38914443753	streaming
516.5895	0.1025000668596476	36	systole	4	A	1615.38914443753	streaming
516.7916	0.1025000668596476	36	systole	5	B	500.0	streaming
516.9944	0.1025000668596476	36	systole	6	A	1615.38914443753	streaming
517.4495	0.1025000668596476	36	systole	7	A	1615.38914443753	streaming
517.6516	0.1025000668596476	36	systole	8	B	500.0	streaming
517.8544	0.1025000668596476	36	systole	9	A	1615.38914443753	streaming
518.3095	0.1025000668596476	36	systole	10	A	1615.38914443753	streaming
518.5116	0.1025000668596476	36	systole	11	B	500.0	streaming
518.7144	0.1025000668596476	36	systole	12	A	1615.38914443753	streaming
519.1794	0.1025000668596476	36	systole	13	A	1615.38914443753	streaming
519.3816	0.1025000668596476	36	systole	14	B	500.0	streaming
519.5844	0.1025000668596476	36	systole	15	A	1615.38914443753	streaming
520.0494	0.1025000668596476	36	systole	16	A	1615.38914443753	streaming
520.2516	0.1025000668596476	36	systole	17	B	500.0	streaming
520.4544	0.1025000668596476	36	systole	18	A	1615.38914443753	streaming
520.9194	0.1025000668596476	36	systole	19	A	1615.38914443753	streaming
521.1216	0.1025000668596476	36	systole	20	B	500.0	streaming
521.3244	0.1025000668596476	36	systole	21	A	1615.38914443753	streaming
521.8616	0.1025000668596476	36	systole	22	A	1615.38914443753	streaming
522.0725	0.1025000668596476	36	systole	23	B	500.0	streaming
522.2841	0.1025000668596476	36	systole	24	A	1615.38914443753	streaming
522.7717	0.1025000668596476	36	systole	25	A	1615.38914443753	streaming
522.9826	0.1025000668596476	36	systole	26	B	500.0	streaming
523.1942	0.1025000668596476	36	systole	27	A	1615.38914443753	streaming
523.6454	0.1025000668596476	36	systole	28	A	1615.38914443753	streaming
523.86	0.1025000668596476	36	systole	29	B	500.0	streaming
524.0753	0.1025000668596476	36	systole	30	A	1615.38914443753	streaming
524.5053	0.1025000668596476	36	systole	31	A	1615.38914443753	streaming
524.72	0.1025000668596476	36	systole	32	B	500.0	streaming
524.9353	0.1025000668596476	36	systole	33	A	1615.38914443753	streaming
525.4	0.1025000668596476	36	systole	34	A	1615.38914443753	streaming
525.6159	0.1025000668596476	36	systole	35	B	500.0	streaming
525.8325	0.1025000668596476	36	systole	36	A	1615.38914443753	streaming
528.1781	0.1106303921551443	37	systole	1	A	1143.0495706741503	coherent
528.3993	0.1106303921551443	37	systole	2	B	500.0	coherent
528.6207	0.1106303921551443	37	systole	3	A	1143.0495706741503	coherent
529.0481	0.1106303921551443	37	systole	4	A	1143.0495706741503	coherent
529.2692	0.1106303921551443	37	systole	5	B	500.0	coherent
529.4906	0.1106303921551443	37	systole	6	A	1143.0495706741503	coherent
529.9388	0.1106303921551443	37	systole	7	A	1143.0495706741503	coherent
530.1574	0.1106303921551443	37	systole	8	B	500.0	coherent
530.3763	0.1106303921551443	37	systole	9	A	1143.0495706741503	coherent
530.8388	0.1106303921551443	37	systole	10	A	1143.0495706741503	coherent
531.0574	0.1106303921551443	37	systole	11	B	500.0	coherent
531.2762	0.1106303921551443	37	systole	12	A	1143.0495706741503	coherent
531.758	0.1106303921551443	37	systole	13	A	1143.0495706741503	coherent
531.9791	0.1106303921551443	37	systole	14	B	500.0	coherent
532.2005	0.1106303921551443	37	systole	15	A	1143.0495706741503	coherent
532.608	0.1106303921551443	37	systole	16	A	1143.0495706741503	coherent
532.8291	0.1106303921551443	37	systole	17	B	500.0	coherent
533.0505	0.1106303921551443	37	systole	18	A	1143.0495706741503	coherent
533.4287	0.1106303921551443	37	systole	19	A	1143.0495706741503	coherent
533.6473	0.1106303921551443	37	systole	20	B	500.0	coherent
533.8662	0.1106303921551443	37	systole	21	A	1143.0495706741503	coherent
534.2587	0.1106303921551443	37	systole	22	A	1143.0495706741503	coherent
534.4773	0.1106303921551443	37	systole	23	B	500.0	coherent
534.6962	0.1106303921551443	37	systole	24	A	1143.0495706741503	coherent
535.1387	0.1106303921551443	37	systole	25	A	1143.0495706741503	coherent
535.3573	0.1106303921551443	37	systole	26	B	500.0	coherent
535.5762	0.1106303921551443	37	systole	27	A	1143.0495706741503	coherent
536.0234	0.1106303921551443	37	systole	28	A	1143.0495706741503	coherent
536.2433	0.1106303921551443	37	systole	29	B	500.0	coherent
536.4634	0.1106303921551443	37	systole	30	A	1143.0495706741503	coherent
536.9034	0.1106303921551443	37	systole	31	A	1143.0495706741503	coherent
537.1233	0.1106303921551443	37	systole	32	B	500.0	coherent
537.3434	0.1106303921551443	37	systole	33	A	1143.0495706741503	coherent
539.8051	0.1093576001003384	38	diastole	1	A	1042.3378445677552	coherent
540.0198	0.1093576001003384	38	diastole	2	B	500.0	coherent
540.235	0.1093576001003384	38	diastole	3	A	1042.3378445677552	coherent
540.6249	0.1093576001003384	38	diastole	4	A	1042.3378445677552	coherent
540.8396	0.1093576001003384	38	diastole	5	B	500.0	coherent
541.0548	0.1093576001003384	38	diastole	6	A	1042.3378445677552	coherent
541.475	0.1093576001003384	38	diastole	7	A	1042.3378445677552	coherent
541.6898	0.1093576001003384	38	diastole	8	B	500.0	coherent
541.905	0.1093576001003384	38	diastole	9	A	1042.3378445677552	coherent
542.325	0.1093576001003384	38	diastole	10	A	1042.3378445677552	coherent
542.5397	0.1093576001003384	38	diastole	11	B	500.0	coherent
542.7549	0.1093576001003384	38	diastole	12	A	1042.3378445677552	coherent
543.121	0.1093576001003384	38	diastole	13	A	1042.3378445677552	coherent
543.3332	0.1093576001003384	38	diastole	14	B	500.0	coherent
543.5459	0.1093576001003384	38	diastole	15	A	1042.3378445677552	coherent
543.9311	0.1093576001003384	38	diastole	16	A	1042.3378445677552	coherent
544.1433	0.1093576001003384	38	diastole	17	B	500.0	coherent
544.356	0.1093576001003384	38	diastole	18	A	1042.3378445677552	coherent
544.5989	0.1093576001003384	38	diastole	19	A	1042.3378445677552	coherent
544.8037	0.1093576001003384	38	diastole	20	B	500.0	coherent
545.0089	0.1093576001003384	38	diastole	21	A	1042.3378445677552	coherent
545.3017	0.1093576001003384	38	diastole	22	A	1042.3378445677552	coherent
545.5053	0.1093576001003384	38	diastole	23	B	500.0	coherent
545.7093	0.1093576001003384	38	diastole	24	A	1042.3378445677552	coherent
546.0647	0.1093576001003384	38	diastole	25	A	1042.3378445677552	coherent
546.267	0.1093576001003384	38	diastole	26	B	500.0	coherent
546.4697	0.1093576001003384	38	diastole	27	A	1042.3378445677552	coherent
546.8348	0.1093576001003384	38	diastole	28	A	1042.3378445677552	coherent
547.037	0.1093576001003384	38	diastole	29	B	500.0	coherent
547.2398	0.1093576001003384	38	diastole	30	A	1042.3378445677552	coherent
547.792	0.1093576001003384	38	diastole	31	A	1042.3378445677552	coherent
547.9955	0.1093576001003384	38	diastole	32	B	500.0	coherent
548.1995	0.1093576001003384	38	diastole	33	A	1042.3378445677552	coherent
548.7131	0.1093576001003384	38	diastole	34	A	1042.3378445677552	coherent
548.9204	0.1093576001003384	38	diastole	35	B	500.0	coherent
549.1282	0.1093576001003384	38	diastole	36	A	1042.3378445677552	coherent
552.589	0.1131231723702512	39	diastole	1	A	1066.651739219328	streaming
552.8151	0.1131231723702512	39	diastole	2	B	500.0	streaming
553.0415	0.1131231723702512	39	diastole	3	A	1066.651739219328	streaming
553.4288	0.1131231723702512	39	diastole	4	A	1066.651739219328	streaming
553.6549	0.1131231723702512	39	diastole	5	B	500.0	streaming
553.8813	0.1131231723702512	39	diastole	6	A	1066.651739219328	streaming
554.2888	0.1131231723702512	39	diastole	7	A	1066.651739219328	streaming
554.5148	0.1131231723702512	39	diastole	8	B	500.0	streaming
554.7413	0.1131231723702512	39	diastole	9	A	1066.651739219328	streaming
555.1688	0.1131231723702512	39	diastole	10	A	1066.651739219328	streaming
555.3948	0.1131231723702512	39	diastole	11	B	500.0	streaming
555.6213	0.1131231723702512	39	diastole	12	A	1066.651739219328	streaming
555.8993	0.1131231723702512	39	diastole	13	A	1066.651739219328	streaming
556.1166	0.1131231723702512	39	diastole	14	B	500.0	streaming
556.3343	0.1131231723702512	39	diastole	15	A	1066.651739219328	streaming
556.678	0.1131231723702512	39	diastole	16	A	1066.651739219328	streaming
556.8916	0.1131231723702512	39	diastole	17	B	500.0	streaming
557.1055	0.1131231723702512	39	diastole	18	A	1066.651739219328	streaming
557.521	0.1131231723702512	39	diastole	19	A	1066.651739219328	streaming
557.7333	0.1131231723702512	39	diastole	20	B	500.0	streaming
557.946	0.1131231723702512	39	diastole	21	A	1066.651739219328	streaming
558.431	0.1131231723702512	39	diastole	22	A	1066.651739219328	streaming
558.6432	0.1131231723702512	39	diastole	23	B	500.0	streaming
558.856	0.1131231723702512	39	diastole	24	A	1066.651739219328	streaming
559.3409	0.1131231723702512	39	diastole	25	A	1066.651739219328	streaming
559.5532	0.1131231723702512	39	diastole	26	B	500.0	streaming
559.7659	0.1131231723702512	39	diastole	27	A	1066.651739219328	streaming
560.2411	0.1131231723702512	39	diastole	28	A	1066.651739219328	streaming
560.4534	0.1131231723702512	39	diastole	29	B	500.0	streaming
560.6661	0.1131231723702512	39	diastole	30	A	1066.651739219328	streaming
561.1881	0.1131231723702512	39	diastole	31	A	1066.651739219328	streaming
561.4017	0.1131231723702512	39	diastole	32	B	500.0	streaming
561.6156	0.1131231723702512	39	diastole	33	A	1066.651739219328	streaming
565.0341	0.113751299562864	40	diastole	1	A	790.3852555644094	coherent
565.2621	0.113751299562864	40	diastole	2	B	500.0	coherent
565.4916	0.113751299562864	40	diastole	3	A	790.3852555644094	coherent
565.8536	0.113751299562864	40	diastole	4	A	790.3852555644094	coherent
566.0817	0.113751299562864	40	diastole	5	B	500.0	coherent
566.3112	0.113751299562864	40	diastole	6	A	790.3852555644094	coherent
566.6732	0.113751299562864	40	diastole	7	A	790.3852555644094	coherent
566.9013	0.113751299562864	40	diastole	8	B	500.0	coherent
567.1307	0.113751299562864	40	diastole	9	A	790.3852555644094	coherent
567.5132	0.113751299562864	40	diastole	10	A	790.3852555644094	coherent
567.7412	0.113751299562864	40	diastole	11	B	500.0	coherent
567.9707	0.113751299562864	40	diastole	12	A	790.3852555644094	coherent
568.447	0.113751299562864	40	diastole	13	A	790.3852555644094	coherent
568.6776	0.113751299562864	40	diastole	14	B	500.0	coherent
568.9095	0.113751299562864	40	diastole	15	A	790.3852555644094	coherent
569.3667	0.113751299562864	40	diastole	16	A	790.3852555644094	coherent
569.5972	0.113751299562864	40	diastole	17	B	500.0	coherent
569.8292	0.113751299562864	40	diastole	18	A	790.3852555644094	coherent
570.1924	0.113751299562864	40	diastole	19	A	790.3852555644094	coherent
570.4204	0.113751299562864	40	diastole	20	B	500.0	coherent
570.6498	0.113751299562864	40	diastole	21	A	790.3852555644094	coherent
571.0326	0.113751299562864	40	diastole	22	A	790.3852555644094	coherent
571.2606	0.113751299562864	40	diastole	23	B	500.0	coherent
571.49	0.113751299562864	40	diastole	24	A	790.3852555644094	coherent
571.8741	0.113751299562864	40	diastole	25	A	790.3852555644094	coherent
572.0971	0.113751299562864	40	diastole	26	B	500.0	coherent
572.3215	0.113751299562864	40	diastole	27	A	790.3852555644094	coherent
572.7528	0.113751299562864	40	diastole	28	A	790.3852555644094	coherent
572.9722	0.113751299562864	40	diastole	29	B	500.0	coherent
573.1928	0.113751299562864	40	diastole	30	A	790.3852555644094	coherent
573.6526	0.113751299562864	40	diastole	31	A	790.3852555644094	coherent
573.8719	0.113751299562864	40	diastole	32	B	500.0	coherent
574.0926	0.113751299562864	40	diastole	33	A	790.3852555644094	coherent
577.2238	0.1099957312108017	41	diastole	1	A	808.8220262698977	coherent
577.4432	0.1099957312108017	41	diastole	2	B	500.0	coherent
577.6638	0.1099957312108017	41	diastole	3	A	808.8220262698977	coherent
578.1234	0.1099957312108017	41	diastole	4	A	808.8220262698977	coherent
578.3427	0.1099957312108017	41	diastole	5	B	500.0	coherent
578.5634	0.1099957312108017	41	diastole	6	A	808.8220262698977	coherent
578.9613	0.1099957312108017	41	diastole	7	A	808.8220262698977	coherent
579.1807	0.1099957312108017	41	diastole	8	B	500.0	coherent
579.4013	0.1099957312108017	41	diastole	9	A	808.8220262698977	coherent
579.8519	0.1099957312108017	41	diastole	10	A	808.8220262698977	coherent
580.0727	0.1099957312108017	41	diastole	11	B	500.0	coherent
580.2948	0.1099957312108017	41	diastole	12	A	808.8220262698977	coherent
580.7338	0.1099957312108017	41	diastole	13	A	808.8220262698977	coherent
580.9547	0.1099957312108017	41	diastole	14	B	500.0	coherent
581.1768	0.1099957312108017	41	diastole	15	A	808.8220262698977	coherent
581.6205	0.1099957312108017	41	diastole	16	A	808.8220262698977	coherent
581.8412	0.1099957312108017	41	diastole	17	B	500.0	coherent
582.0631	0.1099957312108017	41	diastole	18	A	808.8220262698977	coherent
582.4435	0.1099957312108017	41	diastole	19	A	808.8220262698977	coherent
582.6594	0.1099957312108017	41	diastole	20	B	500.0	coherent
582.8765	0.1099957312108017	41	diastole	21	A	808.8220262698977	coherent
583.2935	0.1099957312108017	41	diastole	22	A	808.8220262698977	coherent
583.5094	0.1099957312108017	41	diastole	23	B	500.0	coherent
583.7265	0.1099957312108017	41	diastole	24	A	808.8220262698977	coherent
584.2204	0.1099957312108017	41	diastole	25	A	808.8220262698977	coherent
584.441	0.1099957312108017	41	diastole	26	B	500.0	coherent
584.6629	0.1099957312108017	41	diastole	27	A	808.8220262698977	coherent
585.0954	0.1099957312108017	41	diastole	28	A	808.8220262698977	coherent
585.315	0.1099957312108017	41	diastole	29	B	500.0	coherent
585.536	0.1099957312108017	41	diastole	30	A	808.8220262698977	coherent
585.9027	0.1099957312108017	41	diastole	31	A	808.8220262698977	coherent
586.1184	0.1099957312108017	41	diastole	32	B	500.0	coherent
586.3353	0.1099957312108017	41	diastole	33	A	808.8220262698977	coherent
589.2656	0.1074893500190228	42	diastole	1	A	808.8220262698977	coherent
589.4799	0.1074893500190228	42	diastole	2	B	500.0	coherent
589.6955	0.1074893500190228	42	diastole	3	A	808.8220262698977	coherent
590.1656	0.1074893500190228	42	diastole	4	A	808.8220262698977	coherent
590.3799	0.1074893500190228	42	diastole	5	B	500.0	coherent
590.5955	0.1074893500190228	42	diastole	6	A	808.8220262698977	coherent
591.047	0.1074893500190228	42	diastole	7	A	808.8220262698977	coherent
591.2651	0.1074893500190228	42	diastole	8	B	500.0	coherent
591.4845	0.1074893500190228	42	diastole	9	A	808.8220262698977	coherent
591.907	0.1074893500190228	42	diastole	10	A	808.8220262698977	coherent
592.1252	0.1074893500190228	42	diastole	11	B	500.0	coherent
592.3445	0.1074893500190228	42	diastole	12	A	808.8220262698977	coherent
592.6826	0.1074893500190228	42	diastole	13	A	808.8220262698977	coherent
592.8982	0.1074893500190228	42	diastole	14	B	500.0	coherent
593.1151	0.1074893500190228	42	diastole	15	A	808.8220262698977	coherent
593.4705	0.1074893500190228	42	diastole	16	A	808.8220262698977	coherent
593.6837	0.1074893500190228	42	diastole	17	B	500.0	coherent
593.8981	0.1074893500190228	42	diastole	18	A	808.8220262698977	coherent
594.2722	0.1074893500190228	42	diastole	19	A	808.8220262698977	coherent
594.4854	0.1074893500190228	42	diastole	20	B	500.0	coherent
594.6998	0.1074893500190228	42	diastole	21	A	808.8220262698977	coherent
595.148	0.1074893500190228	42	diastole	22	A	808.8220262698977	coherent
595.3622	0.1074893500190228	42	diastole	23	B	500.0	coherent
595.5776	0.1074893500190228	42	diastole	24	A	808.8220262698977	coherent
596.0181	0.1074893500190228	42	diastole	25	A	808.8220262698977	coherent
596.2322	0.1074893500190228	42	diastole	26	B	500.0	coherent
596.4477	0.1074893500190228	42	diastole	27	A	808.8220262698977	coherent
596.8094	0.1074893500190228	42	diastole	28	A	808.8220262698977	coherent
597.0186	0.1074893500190228	42	diastole	29	B	500.0	coherent
597.229	0.1074893500190228	42	diastole	30	A	808.8220262698977	coherent
597.6292	0.1074893500190228	42	diastole	31	A	808.8220262698977	coherent
597.8383	0.1074893500190228	42	diastole	32	B	500.0	coherent
598.0487	0.1074893500190228	42	diastole	33	A	808.8220262698977	coherent
600.3778	0.1037528623128309	43	systole	1	A	1169.7126981694591	coherent
600.5852	0.1037528623128309	43	systole	2	B	500.0	coherent
600.7928	0.1037528623128309	43	systole	3	A	1169.7126981694591	coherent
601.0978	0.1037528623128309	43	systole	4	A	1169.7126981694591	coherent
601.3052	0.1037528623128309	43	systole	5	B	500.0	coherent
601.5128	0.1037528623128309	43	systole	6	A	1169.7126981694591	coherent
601.7685	0.1037528623128309	43	systole	7	A	1169.7126981694591	coherent
601.9733	0.1037528623128309	43	systole	8	B	500.0	coherent
602.1784	0.1037528623128309	43	systole	9	A	1169.7126981694591	coherent
602.4356	0.1037528623128309	43	systole	10	A	1169.7126981694591	coherent
602.6342	0.1037528623128309	43	systole	11	B	500.0	coherent
602.833	0.1037528623128309	43	systole	12	A	1169.7126981694591	coherent
603.1381	0.1037528623128309	43	systole	13	A	1169.7126981694591	coherent
603.3293	0.1037528623128309	43	systole	14	B	500.0	coherent
603.5206	0.1037528623128309	43	systole	15	A	1169.7126981694591	coherent
604.0302	0.1037528623128309	43	systole	16	A	1169.7126981694591	coherent
604.2301	0.1037528623128309	43	systole	17	B	500.0	coherent
604.4301	0.1037528623128309	43	systole	18	A	1169.7126981694591	coherent
604.9202	0.1037528623128309	43	systole	19	A	1169.7126981694591	coherent
605.1201	0.1037528623128309	43	systole	20	B	500.0	coherent
605.3201	0.1037528623128309	43	systole	21	A	1169.7126981694591	coherent
605.8203	0.1037528623128309	43	systole	22	A	1169.7126981694591	coherent
606.0202	0.1037528623128309	43	systole	23	B	500.0	coherent
606.2202	0.1037528623128309	43	systole	24	A	1169.7126981694591	coherent
606.631	0.1037528623128309	43	systole	25	A	1169.7126981694591	coherent
606.8284	0.1037528623128309	43	systole	26	B	500.0	coherent
607.026	0.1037528623128309	43	systole	27	A	1169.7126981694591	coherent
607.5178	0.1037528623128309	43	systole	28	A	1169.7126981694591	coherent
607.7252	0.1037528623128309	43	systole	29	B	500.0	coherent
607.9328	0.1037528623128309	43	systole	30	A	1169.7126981694591	coherent
608.3679	0.1037528623128309	43	systole	31	A	1169.7126981694591	coherent
608.5753	0.1037528623128309	43	systole	32	B	500.0	coherent
608.7829	0.1037528623128309	43	systole	33	A	1169.7126981694591	coherent
609.2817	0.1037528623128309	43	systole	34	A	1169.7126981694591	coherent
609.4928	0.1037528623128309	43	systole	35	B	500.0	coherent
609.7042	0.1037528623128309	43	systole	36	A	1169.7126981694591	coherent
612.887	0.107507221866399	44	systole	1	A	1196.9977780158051	coherent
613.1019	0.107507221866399	44	systole	2	B	500.0	coherent
613.317	0.107507221866399	44	systole	3	A	1196.9977780158051	coherent
613.6349	0.107507221866399	44	systole	4	A	1196.9977780158051	coherent
613.8498	0.107507221866399	44	systole	5	B	500.0	coherent
614.0648	0.107507221866399	44	systole	6	A	1196.9977780158051	coherent
614.3829	0.107507221866399	44	systole	7	A	1196.9977780158051	coherent
614.5978	0.107507221866399	44	systole	8	B	500.0	coherent
614.8129	0.107507221866399	44	systole	9	A	1196.9977780158051	coherent
615.1184	0.107507221866399	44	systole	10	A	1196.9977780158051	coherent
615.332	0.107507221866399	44	systole	11	B	500.0	coherent
615.5459	0.107507221866399	44	systole	12	A	1196.9977780158051	coherent
615.8654	0.107507221866399	44	systole	13	A	1196.9977780158051	coherent
616.0755	0.107507221866399	44	systole	14	B	500.0	coherent
616.2857	0.107507221866399	44	systole	15	A	1196.9977780158051	coherent
616.6253	0.107507221866399	44	systole	16	A	1196.9977780158051	coherent
616.8354	0.107507221866399	44	systole	17	B	500.0	coherent
617.0457	0.107507221866399	44	systole	18	A	1196.9977780158051	coherent
617.2995	0.107507221866399	44	systole	19	A	1196.9977780158051	coherent
617.4971	0.107507221866399	44	systole	20	B	500.0	coherent
617.6949	0.107507221866399	44	systole	21	A	1196.9977780158051	coherent
618.0195	0.107507221866399	44	systole	22	A	1196.9977780158051	coherent
618.2171	0.107507221866399	44	systole	23	B	500.0	coherent
618.4149	0.107507221866399	44	systole	24	A	1196.9977780158051	coherent
618.6767	0.107507221866399	44	systole	25	A	1196.9977780158051	coherent
618.8626	0.107507221866399	44	systole	26	B	500.0	coherent
619.0487	0.107507221866399	44	systole	27	A	1196.9977780158051	coherent
619.3767	0.107507221866399	44	systole	28	A	1196.9977780158051	coherent
619.5626	0.107507221866399	44	systole	29	B	500.0	coherent
619.7487	0.107507221866399	44	systole	30	A	1196.9977780158051	coherent
620.093	0.107507221866399	44	systole	31	A	1196.9977780158051	coherent
620.2779	0.107507221866399	44	systole	32	B	500.0	coherent
620.463	0.107507221866399	44	systole	33	A	1196.9977780158051	coherent
620.893	0.107507221866399	44	systole	34	A	1196.9977780158051	coherent
621.0779	0.107507221866399	44	systole	35	B	500.0	coherent
621.263	0.107507221866399	44	systole	36	A	1196.9977780158051	coherent
621.7531	0.107507221866399	44	systole	37	A	1196.9977780158051	coherent
