onset	duration	trial_num	trial_type	tone_num	tone_type	frequency	response
176.8579	0.0912655189167708	1	systole	1	A	1578.5670027440333	coherent
177.0475	0.0912655189167708	1	systole	2	B	500.0	coherent
177.2378	0.0912655189167708	1	systole	3	A	1578.5670027440333	coherent
177.678	0.0912655189167708	1	systole	4	A	1578.5670027440333	coherent
177.8676	0.0912655189167708	1	systole	5	B	500.0	coherent
178.0579	0.0912655189167708	1	systole	6	A	1578.5670027440333	coherent
178.498	0.0912655189167708	1	systole	7	A	1578.5670027440333	coherent
178.6877	0.0912655189167708	1	systole	8	B	500.0	coherent
178.8779	0.0912655189167708	1	systole	9	A	1578.5670027440333	coherent
179.3027	0.0912655189167708	1	systole	10	A	1578.5670027440333	coherent
179.4935	0.0912655189167708	1	systole	11	B	500.0	coherent
179.685	0.0912655189167708	1	systole	12	A	1578.5670027440333	coherent
180.1027	0.0912655189167708	1	systole	13	A	1578.5670027440333	coherent
180.2936	0.0912655189167708	1	systole	14	B	500.0	coherent
180.4851	0.0912655189167708	1	systole	15	A	1578.5670027440333	coherent
180.9294	0.0912655189167708	1	systole	16	A	1578.5670027440333	coherent
181.1253	0.0912655189167708	1	systole	17	B	500.0	coherent
181.322	0.0912655189167708	1	systole	18	A	1578.5670027440333	coherent
181.7373	0.0912655189167708	1	systole	19	A	1578.5670027440333	coherent
181.9333	0.0912655189167708	1	systole	20	B	500.0	coherent
182.1299	0.0912655189167708	1	systole	21	A	1578.5670027440333	coherent
182.5846	0.0912655189167708	1	systole	22	A	1578.5670027440333	coherent
182.7852	0.0912655189167708	1	systole	23	B	500.0	coherent
182.9865	0.0912655189167708	1	systole	24	A	1578.5670027440333	coherent
183.3645	0.0912655189167708	1	systole	25	A	1578.5670027440333	coherent
183.5652	0.0912655189167708	1	systole	26	B	500.0	coherent
183.7665	0.0912655189167708	1	systole	27	A	1578.5670027440333	coherent
184.1446	0.0912655189167708	1	systole	28	A	1578.5670027440333	coherent
184.3453	0.0912655189167708	1	systole	29	B	500.0	coherent
184.5466	0.0912655189167708	1	systole	30	A	1578.5670027440333	coherent
184.9542	0.0912655189167708	1	systole	31	A	1578.5670027440333	coherent
185.1549	0.0912655189167708	1	systole	32	B	500.0	coherent
185.3562	0.0912655189167708	1	systole	33	A	1578.5670027440333	coherent
185.7642	0.0912655189167708	1	systole	34	A	1578.5670027440333	coherent
185.9649	0.0912655189167708	1	systole	35	B	500.0	coherent
186.1662	0.0912655189167708	1	systole	36	A	1578.5670027440333	coherent
197.1823	0.1043831983406562	2	systole	1	A	2180.0224995339627	coherent
197.3874	0.1043831983406562	2	systole	2	B	500.0	coherent
197.5923	0.1043831983406562	2	systole	3	A	2180.0224995339627	coherent
197.9823	0.1043831983406562	2	systole	4	A	2180.0224995339627	coherent
198.1874	0.1043831983406562	2	systole	5	B	500.0	coherent
198.3923	0.1043831983406562	2	systole	6	A	2180.0224995339627	coherent
198.7493	0.1043831983406562	2	systole	7	A	2180.0224995339627	coherent
198.9482	0.1043831983406562	2	systole	8	B	500.0	coherent
199.1468	0.1043831983406562	2	systole	9	A	2180.0224995339627	coherent
199.5894	0.1043831983406562	2	systole	10	A	2180.0224995339627	coherent
199.7882	0.1043831983406562	2	systole	11	B	500.0	coherent
199.9869	0.1043831983406562	2	systole	12	A	2180.0224995339627	coherent
200.4294	0.1043831983406562	2	systole	13	A	2180.0224995339627	coherent
200.6282	0.1043831983406562	2	systole	14	B	500.0	coherent
200.8269	0.1043831983406562	2	systole	15	A	2180.0224995339627	coherent
201.174	0.1043831983406562	2	systole	16	A	2180.0224995339627	coherent
201.3741	0.1043831983406562	2	systole	17	B	500.0	coherent
201.574	0.1043831983406562	2	systole	18	A	2180.0224995339627	coherent
201.914	0.1043831983406562	2	systole	19	A	2180.0224995339627	coherent
202.1141	0.1043831983406562	2	systole	20	B	500.0	coherent
202.314	0.1043831983406562	2	systole	21	A	2180.0224995339627	coherent
202.714	0.1043831983406562	2	systole	22	A	2180.0224995339627	coherent
202.914	0.1043831983406562	2	systole	23	B	500.0	coherent
203.114	0.1043831983406562	2	systole	24	A	2180.0224995339627	coherent
203.504	0.1043831983406562	2	systole	25	A	2180.0224995339627	coherent
203.7041	0.1043831983406562	2	systole	26	B	500.0	coherent
203.904	0.1043831983406562	2	systole	27	A	2180.0224995339627	coherent
204.2941	0.1043831983406562	2	systole	28	A	2180.0224995339627	coherent
204.4941	0.1043831983406562	2	systole	29	B	500.0	coherent
204.6941	0.1043831983406562	2	systole	30	A	2180.0224995339627	coherent
205.0841	0.1043831983406562	2	systole	31	A	2180.0224995339627	coherent
205.2842	0.1043831983406562	2	systole	32	B	500.0	coherent
205.4841	0.1043831983406562	2	systole	33	A	2180.0224995339627	coherent
205.8742	0.1043831983406562	2	systole	34	A	2180.0224995339627	coherent
206.0742	0.1043831983406562	2	systole	35	B	500.0	coherent
206.2742	0.1043831983406562	2	systole	36	A	2180.0224995339627	coherent
212.3758	0.0975033124559558	3	systole	1	A	1987.9452401467304	coherent
212.5708	0.0975033124559558	3	systole	2	B	500.0	coherent
212.7658	0.0975033124559558	3	systole	3	A	1987.9452401467304	coherent
213.1656	0.0975033124559558	3	systole	4	A	1987.9452401467304	coherent
213.3606	0.0975033124559558	3	systole	5	B	500.0	coherent
213.5556	0.0975033124559558	3	systole	6	A	1987.9452401467304	coherent
213.99	0.0975033124559558	3	systole	7	A	1987.9452401467304	coherent
214.1862	0.0975033124559558	3	systole	8	B	500.0	coherent
214.3824	0.0975033124559558	3	systole	9	A	1987.9452401467304	coherent
214.8483	0.0975033124559558	3	systole	10	A	1987.9452401467304	coherent
215.0495	0.0975033124559558	3	systole	11	B	500.0	coherent
215.2507	0.0975033124559558	3	systole	12	A	1987.9452401467304	coherent
215.7113	0.0975033124559558	3	systole	13	A	1987.9452401467304	coherent
215.9188	0.0975033124559558	3	systole	14	B	500.0	coherent
216.1263	0.0975033124559558	3	systole	15	A	1987.9452401467304	coherent
216.4613	0.0975033124559558	3	systole	16	A	1987.9452401467304	coherent
216.6687	0.0975033124559558	3	systole	17	B	500.0	coherent
216.8763	0.0975033124559558	3	systole	18	A	1987.9452401467304	coherent
217.2413	0.0975033124559558	3	systole	19	A	1987.9452401467304	coherent
217.4488	0.0975033124559558	3	systole	20	B	500.0	coherent
217.6563	0.0975033124559558	3	systole	21	A	1987.9452401467304	coherent
218.0214	0.0975033124559558	3	systole	22	A	1987.9452401467304	coherent
218.2289	0.0975033124559558	3	systole	23	B	500.0	coherent
218.4364	0.0975033124559558	3	systole	24	A	1987.9452401467304	coherent
218.8376	0.0975033124559558	3	systole	25	A	1987.9452401467304	coherent
219.0413	0.0975033124559558	3	systole	26	B	500.0	coherent
219.245	0.0975033124559558	3	systole	27	A	1987.9452401467304	coherent
219.6974	0.0975033124559558	3	systole	28	A	1987.9452401467304	coherent
219.9011	0.0975033124559558	3	systole	29	B	500.0	coherent
220.1049	0.0975033124559558	3	systole	30	A	1987.9452401467304	coherent
220.4674	0.0975033124559558	3	systole	31	A	1987.9452401467304	coherent
220.6711	0.0975033124559558	3	systole	32	B	500.0	coherent
220.8749	0.0975033124559558	3	systole	33	A	1987.9452401467304	coherent
221.2374	0.0975033124559558	3	systole	34	A	1987.9452401467304	coherent
221.4411	0.0975033124559558	3	systole	35	B	500.0	coherent
221.6449	0.0975033124559558	3	systole	36	A	1987.9452401467304	coherent
228.3158	0.1018860366311855	4	diastole	1	A	1578.5670027440333	coherent
228.5192	0.1018860366311855	4	diastole	2	B	500.0	coherent
228.7234	0.1018860366311855	4	diastole	3	A	1578.5670027440333	coherent
229.0958	0.1018860366311855	4	diastole	4	A	1578.5670027440333	coherent
229.2992	0.1018860366311855	4	diastole	5	B	500.0	coherent
229.5033	0.1018860366311855	4	diastole	6	A	1578.5670027440333	coherent
229.8758	0.1018860366311855	4	diastole	7	A	1578.5670027440333	coherent
230.0792	0.1018860366311855	4	diastole	8	B	500.0	coherent
230.2833	0.1018860366311855	4	diastole	9	A	1578.5670027440333	coherent
230.7028	0.1018860366311855	4	diastole	10	A	1578.5670027440333	coherent
230.9074	0.1018860366311855	4	diastole	11	B	500.0	coherent
231.1128	0.1018860366311855	4	diastole	12	A	1578.5670027440333	coherent
231.5429	0.1018860366311855	4	diastole	13	A	1578.5670027440333	coherent
231.7475	0.1018860366311855	4	diastole	14	B	500.0	coherent
231.9529	0.1018860366311855	4	diastole	15	A	1578.5670027440333	coherent
232.3829	0.1018860366311855	4	diastole	16	A	1578.5670027440333	coherent
232.5876	0.1018860366311855	4	diastole	17	B	500.0	coherent
232.7929	0.1018860366311855	4	diastole	18	A	1578.5670027440333	coherent
233.2229	0.1018860366311855	4	diastole	19	A	1578.5670027440333	coherent
233.4276	0.1018860366311855	4	diastole	20	B	500.0	coherent
233.6329	0.1018860366311855	4	diastole	21	A	1578.5670027440333	coherent
233.9927	0.1018860366311855	4	diastole	22	A	1578.5670027440333	coherent
234.1974	0.1018860366311855	4	diastole	23	B	500.0	coherent
234.4027	0.1018860366311855	4	diastole	24	A	1578.5670027440333	coherent
234.7527	0.1018860366311855	4	diastole	25	A	1578.5670027440333	coherent
234.9574	0.1018860366311855	4	diastole	26	B	500.0	coherent
235.1627	0.1018860366311855	4	diastole	27	A	1578.5670027440333	coherent
235.5554	0.1018860366311855	4	diastole	28	A	1578.5670027440333	coherent
235.7589	0.1018860366311855	4	diastole	29	B	500.0	coherent
235.9631	0.1018860366311855	4	diastole	30	A	1578.5670027440333	coherent
236.3184	0.1018860366311855	4	diastole	31	A	1578.5670027440333	coherent
236.5206	0.1018860366311855	4	diastole	32	B	500.0	coherent
236.7234	0.1018860366311855	4	diastole	33	A	1578.5670027440333	coherent
237.0469	0.1018860366311855	4	diastole	34	A	1578.5670027440333	coherent
237.2452	0.1018860366311855	4	diastole	35	B	500.0	coherent
237.4442	0.1018860366311855	4	diastole	36	A	1578.5670027440333	coherent
258.0544	0.1068756697932258	5	systole	1	A	2942.014383864825	streaming
258.2682	0.1068756697932258	5	systole	2	B	500.0	streaming
258.4819	0.1068756697932258	5	systole	3	A	2942.014383864825	streaming
258.8244	0.1068756697932258	5	systole	4	A	2942.014383864825	streaming
259.0382	0.1068756697932258	5	systole	5	B	500.0	streaming
259.2519	0.1068756697932258	5	systole	6	A	2942.014383864825	streaming
259.6259	0.1068756697932258	5	systole	7	A	2942.014383864825	streaming
259.8347	0.1068756697932258	5	systole	8	B	500.0	streaming
260.0434	0.1068756697932258	5	systole	9	A	2942.014383864825	streaming
260.4458	0.1068756697932258	5	systole	10	A	2942.014383864825	streaming
260.6547	0.1068756697932258	5	systole	11	B	500.0	streaming
260.8633	0.1068756697932258	5	systole	12	A	2942.014383864825	streaming
261.1958	0.1068756697932258	5	systole	13	A	2942.014383864825	streaming
261.4046	0.1068756697932258	5	systole	14	B	500.0	streaming
261.6133	0.1068756697932258	5	systole	15	A	2942.014383864825	streaming
261.9355	0.1068756697932258	5	systole	16	A	2942.014383864825	streaming
262.1443	0.1068756697932258	5	systole	17	B	500.0	streaming
262.353	0.1068756697932258	5	systole	18	A	2942.014383864825	streaming
262.6679	0.1068756697932258	5	systole	19	A	2942.014383864825	streaming
262.8692	0.1068756697932258	5	systole	20	B	500.0	streaming
263.0704	0.1068756697932258	5	systole	21	A	2942.014383864825	streaming
263.4279	0.1068756697932258	5	systole	22	A	2942.014383864825	streaming
263.6292	0.1068756697932258	5	systole	23	B	500.0	streaming
263.8304	0.1068756697932258	5	systole	24	A	2942.014383864825	streaming
264.2388	0.1068756697932258	5	systole	25	A	2942.014383864825	streaming
264.4376	0.1068756697932258	5	systole	26	B	500.0	streaming
264.6363	0.1068756697932258	5	systole	27	A	2942.014383864825	streaming
264.955	0.1068756697932258	5	systole	28	A	2942.014383864825	streaming
265.15	0.1068756697932258	5	systole	29	B	500.0	streaming
265.345	0.1068756697932258	5	systole	30	A	2942.014383864825	streaming
265.6704	0.1068756697932258	5	systole	31	A	2942.014383864825	streaming
265.8642	0.1068756697932258	5	systole	32	B	500.0	streaming
266.0579	0.1068756697932258	5	systole	33	A	2942.014383864825	streaming
266.3904	0.1068756697932258	5	systole	34	A	2942.014383864825	streaming
266.5842	0.1068756697932258	5	systole	35	B	500.0	streaming
266.7779	0.1068756697932258	5	systole	36	A	2942.014383864825	streaming
267.1521	0.1068756697932258	5	systole	37	A	2942.014383864825	streaming
267.3409	0.1068756697932258	5	systole	38	B	500.0	streaming
267.5296	0.1068756697932258	5	systole	39	A	2942.014383864825	streaming
276.0473	0.0950025312486104	6	diastole	1	A	2180.0224995339627	coherent
276.2374	0.0950025312486104	6	diastole	2	B	500.0	coherent
276.4273	0.0950025312486104	6	diastole	3	A	2180.0224995339627	coherent
276.8773	0.0950025312486104	6	diastole	4	A	2180.0224995339627	coherent
277.0674	0.0950025312486104	6	diastole	5	B	500.0	coherent
277.2573	0.0950025312486104	6	diastole	6	A	2180.0224995339627	coherent
277.7073	0.0950025312486104	6	diastole	7	A	2180.0224995339627	coherent
277.8974	0.0950025312486104	6	diastole	8	B	500.0	coherent
278.0873	0.0950025312486104	6	diastole	9	A	2180.0224995339627	coherent
278.4448	0.0950025312486104	6	diastole	10	A	2180.0224995339627	coherent
278.6361	0.0950025312486104	6	diastole	11	B	500.0	coherent
278.8273	0.0950025312486104	6	diastole	12	A	2180.0224995339627	coherent
279.1643	0.0950025312486104	6	diastole	13	A	2180.0224995339627	coherent
279.3556	0.0950025312486104	6	diastole	14	B	500.0	coherent
279.5468	0.0950025312486104	6	diastole	15	A	2180.0224995339627	coherent
279.8977	0.0950025312486104	6	diastole	16	A	2180.0224995339627	coherent
280.0878	0.0950025312486104	6	diastole	17	B	500.0	coherent
280.2777	0.0950025312486104	6	diastole	18	A	2180.0224995339627	coherent
280.6508	0.0950025312486104	6	diastole	19	A	2180.0224995339627	coherent
280.8396	0.0950025312486104	6	diastole	20	B	500.0	coherent
281.0282	0.0950025312486104	6	diastole	21	A	2180.0224995339627	coherent
281.3607	0.0950025312486104	6	diastole	22	A	2180.0224995339627	coherent
281.5495	0.0950025312486104	6	diastole	23	B	500.0	coherent
281.7381	0.0950025312486104	6	diastole	24	A	2180.0224995339627	coherent
282.0264	0.0950025312486104	6	diastole	25	A	2180.0224995339627	coherent
282.2128	0.0950025312486104	6	diastole	26	B	500.0	coherent
282.399	0.0950025312486104	6	diastole	27	A	2180.0224995339627	coherent
282.7061	0.0950025312486104	6	diastole	28	A	2180.0224995339627	coherent
282.8924	0.0950025312486104	6	diastole	29	B	500.0	coherent
283.0786	0.0950025312486104	6	diastole	30	A	2180.0224995339627	coherent
283.3625	0.0950025312486104	6	diastole	31	A	2180.0224995339627	coherent
283.5464	0.0950025312486104	6	diastole	32	B	500.0	coherent
283.7302	0.0950025312486104	6	diastole	33	A	2180.0224995339627	coherent
284.0325	0.0950025312486104	6	diastole	34	A	2180.0224995339627	coherent
284.2164	0.0950025312486104	6	diastole	35	B	500.0	coherent
284.4002	0.0950025312486104	6	diastole	36	A	2180.0224995339627	coherent
284.7778	0.0950025312486104	6	diastole	37	A	2180.0224995339627	coherent
284.9591	0.0950025312486104	6	diastole	38	B	500.0	coherent
285.1403	0.0950025312486104	6	diastole	39	A	2180.0224995339627	coherent
285.5978	0.0950025312486104	6	diastole	40	A	2180.0224995339627	coherent
285.7842	0.0950025312486104	6	diastole	41	B	500.0	coherent
285.9704	0.0950025312486104	6	diastole	42	A	2180.0224995339627	coherent
289.9713	0.1001137563143856	7	diastole	1	A	1987.9452401467304	coherent
290.1725	0.1001137563143856	7	diastole	2	B	500.0	coherent
290.3738	0.1001137563143856	7	diastole	3	A	1987.9452401467304	coherent
290.7113	0.1001137563143856	7	diastole	4	A	1987.9452401467304	coherent
290.9125	0.1001137563143856	7	diastole	5	B	500.0	coherent
291.1138	0.1001137563143856	7	diastole	6	A	1987.9452401467304	coherent
291.4512	0.1001137563143856	7	diastole	7	A	1987.9452401467304	coherent
291.6525	0.1001137563143856	7	diastole	8	B	500.0	coherent
291.8538	0.1001137563143856	7	diastole	9	A	1987.9452401467304	coherent
292.2012	0.1001137563143856	7	diastole	10	A	1987.9452401467304	coherent
292.4025	0.1001137563143856	7	diastole	11	B	500.0	coherent
292.6038	0.1001137563143856	7	diastole	12	A	1987.9452401467304	coherent
292.9512	0.1001137563143856	7	diastole	13	A	1987.9452401467304	coherent
293.1525	0.1001137563143856	7	diastole	14	B	500.0	coherent
293.3538	0.1001137563143856	7	diastole	15	A	1987.9452401467304	coherent
293.7182	0.1001137563143856	7	diastole	16	A	1987.9452401467304	coherent
293.9171	0.1001137563143856	7	diastole	17	B	500.0	coherent
294.1161	0.1001137563143856	7	diastole	18	A	1987.9452401467304	coherent
294.4699	0.1001137563143856	7	diastole	19	A	1987.9452401467304	coherent
294.6673	0.1001137563143856	7	diastole	20	B	500.0	coherent
294.8649	0.1001137563143856	7	diastole	21	A	1987.9452401467304	coherent
295.1716	0.1001137563143856	7	diastole	22	A	1987.9452401467304	coherent
295.3641	0.1001137563143856	7	diastole	23	B	500.0	coherent
295.5566	0.1001137563143856	7	diastole	24	A	1987.9452401467304	coherent
295.8673	0.1001137563143856	7	diastole	25	A	1987.9452401467304	coherent
296.0573	0.1001137563143856	7	diastole	26	B	500.0	coherent
296.2473	0.1001137563143856	7	diastole	27	A	1987.9452401467304	coherent
296.6102	0.1001137563143856	7	diastole	28	A	1987.9452401467304	coherent
296.7989	0.1001137563143856	7	diastole	29	B	500.0	coherent
296.9877	0.1001137563143856	7	diastole	30	A	1987.9452401467304	coherent
297.4002	0.1001137563143856	7	diastole	31	A	1987.9452401467304	coherent
297.5889	0.1001137563143856	7	diastole	32	B	500.0	coherent
297.7777	0.1001137563143856	7	diastole	33	A	1987.9452401467304	coherent
298.1974	0.1001137563143856	7	diastole	34	A	1987.9452401467304	coherent
298.3873	0.1001137563143856	7	diastole	35	B	500.0	coherent
298.5773	0.1001137563143856	7	diastole	36	A	1987.9452401467304	coherent
302.1115	0.0937547788198571	8	diastole	1	A	2942.014383864825	coherent
302.3041	0.0937547788198571	8	diastole	2	B	500.0	coherent
302.4965	0.0937547788198571	8	diastole	3	A	2942.014383864825	coherent
302.9315	0.0937547788198571	8	diastole	4	A	2942.014383864825	coherent
303.124	0.0937547788198571	8	diastole	5	B	500.0	coherent
303.3165	0.0937547788198571	8	diastole	6	A	2942.014383864825	coherent
303.7097	0.0937547788198571	8	diastole	7	A	2942.014383864825	coherent
303.9073	0.0937547788198571	8	diastole	8	B	500.0	coherent
304.1047	0.0937547788198571	8	diastole	9	A	2942.014383864825	coherent
304.4597	0.0937547788198571	8	diastole	10	A	2942.014383864825	coherent
304.6573	0.0937547788198571	8	diastole	11	B	500.0	coherent
304.8547	0.0937547788198571	8	diastole	12	A	2942.014383864825	coherent
305.2096	0.0937547788198571	8	diastole	13	A	2942.014383864825	coherent
305.4072	0.0937547788198571	8	diastole	14	B	500.0	coherent
305.6046	0.0937547788198571	8	diastole	15	A	2942.014383864825	coherent
305.903	0.0937547788198571	8	diastole	16	A	2942.014383864825	coherent
306.0906	0.0937547788198571	8	diastole	17	B	500.0	coherent
306.278	0.0937547788198571	8	diastole	18	A	2942.014383864825	coherent
306.643	0.0937547788198571	8	diastole	19	A	2942.014383864825	coherent
306.8305	0.0937547788198571	8	diastole	20	B	500.0	coherent
307.018	0.0937547788198571	8	diastole	21	A	2942.014383864825	coherent
307.423	0.0937547788198571	8	diastole	22	A	2942.014383864825	coherent
307.6106	0.0937547788198571	8	diastole	23	B	500.0	coherent
307.798	0.0937547788198571	8	diastole	24	A	2942.014383864825	coherent
308.163	0.0937547788198571	8	diastole	25	A	2942.014383864825	coherent
308.3505	0.0937547788198571	8	diastole	26	B	500.0	coherent
308.538	0.0937547788198571	8	diastole	27	A	2942.014383864825	coherent
308.8829	0.0937547788198571	8	diastole	28	A	2942.014383864825	coherent
309.0704	0.0937547788198571	8	diastole	29	B	500.0	coherent
309.2579	0.0937547788198571	8	diastole	30	A	2942.014383864825	coherent
309.6029	0.0937547788198571	8	diastole	31	A	2942.014383864825	coherent
309.7905	0.0937547788198571	8	diastole	32	B	500.0	coherent
309.9779	0.0937547788198571	8	diastole	33	A	2942.014383864825	coherent
310.3832	0.0937547788198571	8	diastole	34	A	2942.014383864825	coherent
310.5708	0.0937547788198571	8	diastole	35	B	500.0	coherent
310.7582	0.0937547788198571	8	diastole	36	A	2942.014383864825	coherent
311.1832	0.0937547788198571	8	diastole	37	A	2942.014383864825	coherent
311.3707	0.0937547788198571	8	diastole	38	B	500.0	coherent
311.5582	0.0937547788198571	8	diastole	39	A	2942.014383864825	coherent
320.753	0.0937498300627339	9	systole	1	A	1653.0702107864488	coherent
320.9415	0.0937498300627339	9	systole	2	B	500.0	coherent
321.1305	0.0937498300627339	9	systole	3	A	1653.0702107864488	coherent
321.5131	0.0937498300627339	9	systole	4	A	1653.0702107864488	coherent
321.7016	0.0937498300627339	9	systole	5	B	500.0	coherent
321.8906	0.0937498300627339	9	systole	6	A	1653.0702107864488	coherent
322.2777	0.0937498300627339	9	systole	7	A	1653.0702107864488	coherent
322.4674	0.0937498300627339	9	systole	8	B	500.0	coherent
322.6577	0.0937498300627339	9	systole	9	A	1653.0702107864488	coherent
323.0377	0.0937498300627339	9	systole	10	A	1653.0702107864488	coherent
323.2274	0.0937498300627339	9	systole	11	B	500.0	coherent
323.4177	0.0937498300627339	9	systole	12	A	1653.0702107864488	coherent
323.7676	0.0937498300627339	9	systole	13	A	1653.0702107864488	coherent
323.9574	0.0937498300627339	9	systole	14	B	500.0	coherent
324.1476	0.0937498300627339	9	systole	15	A	1653.0702107864488	coherent
324.4576	0.0937498300627339	9	systole	16	A	1653.0702107864488	coherent
324.6473	0.0937498300627339	9	systole	17	B	500.0	coherent
324.8376	0.0937498300627339	9	systole	18	A	1653.0702107864488	coherent
325.1476	0.0937498300627339	9	systole	19	A	1653.0702107864488	coherent
325.3373	0.0937498300627339	9	systole	20	B	500.0	coherent
325.5276	0.0937498300627339	9	systole	21	A	1653.0702107864488	coherent
325.8829	0.0937498300627339	9	systole	22	A	1653.0702107864488	coherent
326.0714	0.0937498300627339	9	systole	23	B	500.0	coherent
326.2604	0.0937498300627339	9	systole	24	A	1653.0702107864488	coherent
326.6237	0.0937498300627339	9	systole	25	A	1653.0702107864488	coherent
326.8096	0.0937498300627339	9	systole	26	B	500.0	coherent
326.9961	0.0937498300627339	9	systole	27	A	1653.0702107864488	coherent
327.3736	0.0937498300627339	9	systole	28	A	1653.0702107864488	coherent
327.5596	0.0937498300627339	9	systole	29	B	500.0	coherent
327.7461	0.0937498300627339	9	systole	30	A	1653.0702107864488	coherent
328.1337	0.0937498300627339	9	systole	31	A	1653.0702107864488	coherent
328.3196	0.0937498300627339	9	systole	32	B	500.0	coherent
328.5062	0.0937498300627339	9	systole	33	A	1653.0702107864488	coherent
328.8891	0.0937498300627339	9	systole	34	A	1653.0702107864488	coherent
329.0738	0.0937498300627339	9	systole	35	B	500.0	coherent
329.2591	0.0937498300627339	9	systole	36	A	1653.0702107864488	coherent
329.6291	0.0937498300627339	9	systole	37	A	1653.0702107864488	coherent
329.8139	0.0937498300627339	9	systole	38	B	500.0	coherent
329.9991	0.0937498300627339	9	systole	39	A	1653.0702107864488	coherent
330.3692	0.0937498300627339	9	systole	40	A	1653.0702107864488	coherent
330.5539	0.0937498300627339	9	systole	41	B	500.0	coherent
330.7392	0.0937498300627339	9	systole	42	A	1653.0702107864488	coherent
338.6529	0.0925014687527436	10	systole	1	A	3457.353363503972	streaming
338.8416	0.0925014687527436	10	systole	2	B	500.0	streaming
339.0304	0.0925014687527436	10	systole	3	A	3457.353363503972	streaming
339.4967	0.0925014687527436	10	systole	4	A	3457.353363503972	streaming
339.6891	0.0925014687527436	10	systole	5	B	500.0	streaming
339.8817	0.0925014687527436	10	systole	6	A	3457.353363503972	streaming
340.2366	0.0925014687527436	10	systole	7	A	3457.353363503972	streaming
340.4291	0.0925014687527436	10	systole	8	B	500.0	streaming
340.6216	0.0925014687527436	10	systole	9	A	3457.353363503972	streaming
340.9866	0.0925014687527436	10	systole	10	A	3457.353363503972	streaming
341.1791	0.0925014687527436	10	systole	11	B	500.0	streaming
341.3717	0.0925014687527436	10	systole	12	A	3457.353363503972	streaming
341.7467	0.0925014687527436	10	systole	13	A	3457.353363503972	streaming
341.9391	0.0925014687527436	10	systole	14	B	500.0	streaming
342.1317	0.0925014687527436	10	systole	15	A	3457.353363503972	streaming
342.5067	0.0925014687527436	10	systole	16	A	3457.353363503972	streaming
342.6991	0.0925014687527436	10	systole	17	B	500.0	streaming
342.8917	0.0925014687527436	10	systole	18	A	3457.353363503972	streaming
343.3258	0.0925014687527436	10	systole	19	A	3457.353363503972	streaming
343.5208	0.0925014687527436	10	systole	20	B	500.0	streaming
343.7158	0.0925014687527436	10	systole	21	A	3457.353363503972	streaming
344.1357	0.0925014687527436	10	systole	22	A	3457.353363503972	streaming
344.3307	0.0925014687527436	10	systole	23	B	500.0	streaming
344.5257	0.0925014687527436	10	systole	24	A	3457.353363503972	streaming
344.8666	0.0925014687527436	10	systole	25	A	3457.353363503972	streaming
345.059	0.0925014687527436	10	systole	26	B	500.0	streaming
345.2516	0.0925014687527436	10	systole	27	A	3457.353363503972	streaming
345.6066	0.0925014687527436	10	systole	28	A	3457.353363503972	streaming
345.7991	0.0925014687527436	10	systole	29	B	500.0	streaming
345.9916	0.0925014687527436	10	systole	30	A	3457.353363503972	streaming
346.3574	0.0925014687527436	10	systole	31	A	3457.353363503972	streaming
346.5473	0.0925014687527436	10	systole	32	B	500.0	streaming
346.7373	0.0925014687527436	10	systole	33	A	3457.353363503972	streaming
347.1674	0.0925014687527436	10	systole	34	A	3457.353363503972	streaming
347.3573	0.0925014687527436	10	systole	35	B	500.0	streaming
347.5474	0.0925014687527436	10	systole	36	A	3457.353363503972	streaming
347.8874	0.0925014687527436	10	systole	37	A	3457.353363503972	streaming
348.0774	0.0925014687527436	10	systole	38	B	500.0	streaming
348.2674	0.0925014687527436	10	systole	39	A	3457.353363503972	streaming
348.6073	0.0925014687527436	10	systole	40	A	3457.353363503972	streaming
348.7973	0.0925014687527436	10	systole	41	B	500.0	streaming
348.9873	0.0925014687527436	10	systole	42	A	3457.353363503972	streaming
351.3146	0.0956213812460191	11	diastole	1	A	2446.423693900757	coherent
351.5056	0.0956213812460191	11	diastole	2	B	500.0	coherent
351.6971	0.0956213812460191	11	diastole	3	A	2446.423693900757	coherent
352.0747	0.0956213812460191	11	diastole	4	A	2446.423693900757	coherent
352.2658	0.0956213812460191	11	diastole	5	B	500.0	coherent
352.4572	0.0956213812460191	11	diastole	6	A	2446.423693900757	coherent
352.8046	0.0956213812460191	11	diastole	7	A	2446.423693900757	coherent
352.9957	0.0956213812460191	11	diastole	8	B	500.0	coherent
353.1871	0.0956213812460191	11	diastole	9	A	2446.423693900757	coherent
353.5346	0.0956213812460191	11	diastole	10	A	2446.423693900757	coherent
353.7256	0.0956213812460191	11	diastole	11	B	500.0	coherent
353.9171	0.0956213812460191	11	diastole	12	A	2446.423693900757	coherent
354.2875	0.0956213812460191	11	diastole	13	A	2446.423693900757	coherent
354.4773	0.0956213812460191	11	diastole	14	B	500.0	coherent
354.6675	0.0956213812460191	11	diastole	15	A	2446.423693900757	coherent
355.0675	0.0956213812460191	11	diastole	16	A	2446.423693900757	coherent
355.2574	0.0956213812460191	11	diastole	17	B	500.0	coherent
355.4475	0.0956213812460191	11	diastole	18	A	2446.423693900757	coherent
355.7975	0.0956213812460191	11	diastole	19	A	2446.423693900757	coherent
355.9874	0.0956213812460191	11	diastole	20	B	500.0	coherent
356.1775	0.0956213812460191	11	diastole	21	A	2446.423693900757	coherent
356.5275	0.0956213812460191	11	diastole	22	A	2446.423693900757	coherent
356.7174	0.0956213812460191	11	diastole	23	B	500.0	coherent
356.9076	0.0956213812460191	11	diastole	24	A	2446.423693900757	coherent
357.2376	0.0956213812460191	11	diastole	25	A	2446.423693900757	coherent
357.4274	0.0956213812460191	11	diastole	26	B	500.0	coherent
357.6176	0.0956213812460191	11	diastole	27	A	2446.423693900757	coherent
357.9475	0.0956213812460191	11	diastole	28	A	2446.423693900757	coherent
358.1373	0.0956213812460191	11	diastole	29	B	500.0	coherent
358.3274	0.0956213812460191	11	diastole	30	A	2446.423693900757	coherent
358.6463	0.0956213812460191	11	diastole	31	A	2446.423693900757	coherent
358.8323	0.0956213812460191	11	diastole	32	B	500.0	coherent
359.0188	0.0956213812460191	11	diastole	33	A	2446.423693900757	coherent
359.4162	0.0956213812460191	11	diastole	34	A	2446.423693900757	coherent
359.6023	0.0956213812460191	11	diastole	35	B	500.0	coherent
359.7887	0.0956213812460191	11	diastole	36	A	2446.423693900757	coherent
360.1633	0.0956213812460191	11	diastole	37	A	2446.423693900757	coherent
360.3506	0.0956213812460191	11	diastole	38	B	500.0	coherent
360.5383	0.0956213812460191	11	diastole	39	A	2446.423693900757	coherent
370.7166	0.0962535240978468	12	systole	1	A	3457.353363503972	coherent
370.909	0.0962535240978468	12	systole	2	B	500.0	coherent
371.1016	0.0962535240978468	12	systole	3	A	3457.353363503972	coherent
371.4766	0.0962535240978468	12	systole	4	A	3457.353363503972	coherent
371.669	0.0962535240978468	12	systole	5	B	500.0	coherent
371.8616	0.0962535240978468	12	systole	6	A	3457.353363503972	coherent
372.2266	0.0962535240978468	12	systole	7	A	3457.353363503972	coherent
372.419	0.0962535240978468	12	systole	8	B	500.0	coherent
372.6116	0.0962535240978468	12	systole	9	A	3457.353363503972	coherent
372.9766	0.0962535240978468	12	systole	10	A	3457.353363503972	coherent
373.1691	0.0962535240978468	12	systole	11	B	500.0	coherent
373.3616	0.0962535240978468	12	systole	12	A	3457.353363503972	coherent
373.7029	0.0962535240978468	12	systole	13	A	3457.353363503972	coherent
373.8917	0.0962535240978468	12	systole	14	B	500.0	coherent
374.0804	0.0962535240978468	12	systole	15	A	3457.353363503972	coherent
374.443	0.0962535240978468	12	systole	16	A	3457.353363503972	coherent
374.6318	0.0962535240978468	12	systole	17	B	500.0	coherent
374.8206	0.0962535240978468	12	systole	18	A	3457.353363503972	coherent
375.223	0.0962535240978468	12	systole	19	A	3457.353363503972	coherent
375.4117	0.0962535240978468	12	systole	20	B	500.0	coherent
375.6005	0.0962535240978468	12	systole	21	A	3457.353363503972	coherent
376.0029	0.0962535240978468	12	systole	22	A	3457.353363503972	coherent
376.1916	0.0962535240978468	12	systole	23	B	500.0	coherent
376.3804	0.0962535240978468	12	systole	24	A	3457.353363503972	coherent
376.7375	0.0962535240978468	12	systole	25	A	3457.353363503972	coherent
376.9274	0.0962535240978468	12	systole	26	B	500.0	coherent
377.1175	0.0962535240978468	12	systole	27	A	3457.353363503972	coherent
377.4675	0.0962535240978468	12	systole	28	A	3457.353363503972	coherent
377.6574	0.0962535240978468	12	systole	29	B	500.0	coherent
377.8475	0.0962535240978468	12	systole	30	A	3457.353363503972	coherent
378.1975	0.0962535240978468	12	systole	31	A	3457.353363503972	coherent
378.3874	0.0962535240978468	12	systole	32	B	500.0	coherent
378.5774	0.0962535240978468	12	systole	33	A	3457.353363503972	coherent
378.9274	0.0962535240978468	12	systole	34	A	3457.353363503972	coherent
379.1174	0.0962535240978468	12	systole	35	B	500.0	coherent
379.3074	0.0962535240978468	12	systole	36	A	3457.353363503972	coherent
379.6928	0.0962535240978468	12	systole	37	A	3457.353363503972	coherent
379.8815	0.0962535240978468	12	systole	38	B	500.0	coherent
380.0703	0.0962535240978468	12	systole	39	A	3457.353363503972	coherent
382.3274	0.0956223296234384	13	diastole	1	A	3538.000656405778	streaming
382.5174	0.0956223296234384	13	diastole	2	B	500.0	streaming
382.7074	0.0956223296234384	13	diastole	3	A	3538.000656405778	streaming
383.0635	0.0956223296234384	13	diastole	4	A	3538.000656405778	streaming
383.251	0.0956223296234384	13	diastole	5	B	500.0	streaming
383.4386	0.0956223296234384	13	diastole	6	A	3538.000656405778	streaming
383.8137	0.0956223296234384	13	diastole	7	A	3538.000656405778	streaming
384.0012	0.0956223296234384	13	diastole	8	B	500.0	streaming
384.1887	0.0956223296234384	13	diastole	9	A	3538.000656405778	streaming
384.6133	0.0956223296234384	13	diastole	10	A	3538.000656405778	streaming
384.8008	0.0956223296234384	13	diastole	11	B	500.0	streaming
384.9883	0.0956223296234384	13	diastole	12	A	3538.000656405778	streaming
385.3137	0.0956223296234384	13	diastole	13	A	3538.000656405778	streaming
385.5012	0.0956223296234384	13	diastole	14	B	500.0	streaming
385.6887	0.0956223296234384	13	diastole	15	A	3538.000656405778	streaming
386.0492	0.0956223296234384	13	diastole	16	A	3538.000656405778	streaming
386.2357	0.0956223296234384	13	diastole	17	B	500.0	streaming
386.4221	0.0956223296234384	13	diastole	18	A	3538.000656405778	streaming
386.7962	0.0956223296234384	13	diastole	19	A	3538.000656405778	streaming
386.9825	0.0956223296234384	13	diastole	20	B	500.0	streaming
387.1687	0.0956223296234384	13	diastole	21	A	3538.000656405778	streaming
387.5445	0.0956223296234384	13	diastole	22	A	3538.000656405778	streaming
387.7307	0.0956223296234384	13	diastole	23	B	500.0	streaming
387.9169	0.0956223296234384	13	diastole	24	A	3538.000656405778	streaming
388.3245	0.0956223296234384	13	diastole	25	A	3538.000656405778	streaming
388.5107	0.0956223296234384	13	diastole	26	B	500.0	streaming
388.697	0.0956223296234384	13	diastole	27	A	3538.000656405778	streaming
389.0502	0.0956223296234384	13	diastole	28	A	3538.000656405778	streaming
389.2375	0.0956223296234384	13	diastole	29	B	500.0	streaming
389.4248	0.0956223296234384	13	diastole	30	A	3538.000656405778	streaming
389.7448	0.0956223296234384	13	diastole	31	A	3538.000656405778	streaming
389.931	0.0956223296234384	13	diastole	32	B	500.0	streaming
390.1172	0.0956223296234384	13	diastole	33	A	3538.000656405778	streaming
390.4345	0.0956223296234384	13	diastole	34	A	3538.000656405778	streaming
390.6172	0.0956223296234384	13	diastole	35	B	500.0	streaming
390.7999	0.0956223296234384	13	diastole	36	A	3538.000656405778	streaming
391.1445	0.0956223296234384	13	diastole	37	A	3538.000656405778	streaming
391.3271	0.0956223296234384	13	diastole	38	B	500.0	streaming
391.5098	0.0956223296234384	13	diastole	39	A	3538.000656405778	streaming
393.0142	0.0926064131781458	14	systole	1	A	1507.4216242556154	coherent
393.198	0.0926064131781458	14	systole	2	B	500.0	coherent
393.3816	0.0926064131781458	14	systole	3	A	1507.4216242556154	coherent
393.705	0.0926064131781458	14	systole	4	A	1507.4216242556154	coherent
393.8863	0.0926064131781458	14	systole	5	B	500.0	coherent
394.0673	0.0926064131781458	14	systole	6	A	1507.4216242556154	coherent
394.465	0.0926064131781458	14	systole	7	A	1507.4216242556154	coherent
394.6463	0.0926064131781458	14	systole	8	B	500.0	coherent
394.8274	0.0926064131781458	14	systole	9	A	1507.4216242556154	coherent
395.225	0.0926064131781458	14	systole	10	A	1507.4216242556154	coherent
395.4063	0.0926064131781458	14	systole	11	B	500.0	coherent
395.5874	0.0926064131781458	14	systole	12	A	1507.4216242556154	coherent
395.9406	0.0926064131781458	14	systole	13	A	1507.4216242556154	coherent
396.1207	0.0926064131781458	14	systole	14	B	500.0	coherent
396.3005	0.0926064131781458	14	systole	15	A	1507.4216242556154	coherent
396.6606	0.0926064131781458	14	systole	16	A	1507.4216242556154	coherent
396.8407	0.0926064131781458	14	systole	17	B	500.0	coherent
397.0206	0.0926064131781458	14	systole	18	A	1507.4216242556154	coherent
397.3806	0.0926064131781458	14	systole	19	A	1507.4216242556154	coherent
397.5607	0.0926064131781458	14	systole	20	B	500.0	coherent
397.7405	0.0926064131781458	14	systole	21	A	1507.4216242556154	coherent
398.0661	0.0926064131781458	14	systole	22	A	1507.4216242556154	coherent
398.245	0.0926064131781458	14	systole	23	B	500.0	coherent
398.4236	0.0926064131781458	14	systole	24	A	1507.4216242556154	coherent
398.7665	0.0926064131781458	14	systole	25	A	1507.4216242556154	coherent
398.9429	0.0926064131781458	14	systole	26	B	500.0	coherent
399.119	0.0926064131781458	14	systole	27	A	1507.4216242556154	coherent
399.4762	0.0926064131781458	14	systole	28	A	1507.4216242556154	coherent
399.6526	0.0926064131781458	14	systole	29	B	500.0	coherent
399.8286	0.0926064131781458	14	systole	30	A	1507.4216242556154	coherent
400.1859	0.0926064131781458	14	systole	31	A	1507.4216242556154	coherent
400.3622	0.0926064131781458	14	systole	32	B	500.0	coherent
400.5383	0.0926064131781458	14	systole	33	A	1507.4216242556154	coherent
400.9059	0.0926064131781458	14	systole	34	A	1507.4216242556154	coherent
401.0823	0.0926064131781458	14	systole	35	B	500.0	coherent
401.2584	0.0926064131781458	14	systole	36	A	1507.4216242556154	coherent
401.5915	0.0926064131781458	14	systole	37	A	1507.4216242556154	coherent
401.7666	0.0926064131781458	14	systole	38	B	500.0	coherent
401.9415	0.0926064131781458	14	systole	39	A	1507.4216242556154	coherent
402.2915	0.0926064131781458	14	systole	40	A	1507.4216242556154	coherent
402.4666	0.0926064131781458	14	systole	41	B	500.0	coherent
402.6415	0.0926064131781458	14	systole	42	A	1507.4216242556154	coherent
405.5107	0.0893707562645431	15	diastole	1	A	2130.3297690552017	coherent
405.6907	0.0893707562645431	15	diastole	2	B	500.0	coherent
405.8707	0.0893707562645431	15	diastole	3	A	2130.3297690552017	coherent
406.2507	0.0893707562645431	15	diastole	4	A	2130.3297690552017	coherent
406.4308	0.0893707562645431	15	diastole	5	B	500.0	coherent
406.6107	0.0893707562645431	15	diastole	6	A	2130.3297690552017	coherent
407.0107	0.0893707562645431	15	diastole	7	A	2130.3297690552017	coherent
407.1907	0.0893707562645431	15	diastole	8	B	500.0	coherent
407.3707	0.0893707562645431	15	diastole	9	A	2130.3297690552017	coherent
407.7449	0.0893707562645431	15	diastole	10	A	2130.3297690552017	coherent
407.9274	0.0893707562645431	15	diastole	11	B	500.0	coherent
408.1099	0.0893707562645431	15	diastole	12	A	2130.3297690552017	coherent
408.4648	0.0893707562645431	15	diastole	13	A	2130.3297690552017	coherent
408.6474	0.0893707562645431	15	diastole	14	B	500.0	coherent
408.8298	0.0893707562645431	15	diastole	15	A	2130.3297690552017	coherent
409.2149	0.0893707562645431	15	diastole	16	A	2130.3297690552017	coherent
409.3974	0.0893707562645431	15	diastole	17	B	500.0	coherent
409.5799	0.0893707562645431	15	diastole	18	A	2130.3297690552017	coherent
409.9949	0.0893707562645431	15	diastole	19	A	2130.3297690552017	coherent
410.1774	0.0893707562645431	15	diastole	20	B	500.0	coherent
410.3599	0.0893707562645431	15	diastole	21	A	2130.3297690552017	coherent
410.7961	0.0893707562645431	15	diastole	22	A	2130.3297690552017	coherent
410.9825	0.0893707562645431	15	diastole	23	B	500.0	coherent
411.1687	0.0893707562645431	15	diastole	24	A	2130.3297690552017	coherent
411.5762	0.0893707562645431	15	diastole	25	A	2130.3297690552017	coherent
411.7625	0.0893707562645431	15	diastole	26	B	500.0	coherent
411.9487	0.0893707562645431	15	diastole	27	A	2130.3297690552017	coherent
412.3103	0.0893707562645431	15	diastole	28	A	2130.3297690552017	coherent
412.4991	0.0893707562645431	15	diastole	29	B	500.0	coherent
412.6878	0.0893707562645431	15	diastole	30	A	2130.3297690552017	coherent
413.0776	0.0893707562645431	15	diastole	31	A	2130.3297690552017	coherent
413.2677	0.0893707562645431	15	diastole	32	B	500.0	coherent
413.4576	0.0893707562645431	15	diastole	33	A	2130.3297690552017	coherent
413.8377	0.0893707562645431	15	diastole	34	A	2130.3297690552017	coherent
414.0278	0.0893707562645431	15	diastole	35	B	500.0	coherent
414.2177	0.0893707562645431	15	diastole	36	A	2130.3297690552017	coherent
416.1547	0.0956301310507115	16	diastole	1	A	4157.735780147634	coherent
416.3459	0.0956301310507115	16	diastole	2	B	500.0	coherent
416.5372	0.0956301310507115	16	diastole	3	A	4157.735780147634	coherent
416.8647	0.0956301310507115	16	diastole	4	A	4157.735780147634	coherent
417.0559	0.0956301310507115	16	diastole	5	B	500.0	coherent
417.2472	0.0956301310507115	16	diastole	6	A	4157.735780147634	coherent
417.6063	0.0956301310507115	16	diastole	7	A	4157.735780147634	coherent
417.7975	0.0956301310507115	16	diastole	8	B	500.0	coherent
417.9888	0.0956301310507115	16	diastole	9	A	4157.735780147634	coherent
418.3146	0.0956301310507115	16	diastole	10	A	4157.735780147634	coherent
418.5023	0.0956301310507115	16	diastole	11	B	500.0	coherent
418.6901	0.0956301310507115	16	diastole	12	A	4157.735780147634	coherent
419.0305	0.0956301310507115	16	diastole	13	A	4157.735780147634	coherent
419.2156	0.0956301310507115	16	diastole	14	B	500.0	coherent
419.4009	0.0956301310507115	16	diastole	15	A	4157.735780147634	coherent
419.8002	0.0956301310507115	16	diastole	16	A	4157.735780147634	coherent
419.9853	0.0956301310507115	16	diastole	17	B	500.0	coherent
420.1706	0.0956301310507115	16	diastole	18	A	4157.735780147634	coherent
420.5015	0.0956301310507115	16	diastole	19	A	4157.735780147634	coherent
420.6852	0.0956301310507115	16	diastole	20	B	500.0	coherent
420.869	0.0956301310507115	16	diastole	21	A	4157.735780147634	coherent
421.2111	0.0956301310507115	16	diastole	22	A	4157.735780147634	coherent
421.3948	0.0956301310507115	16	diastole	23	B	500.0	coherent
421.5786	0.0956301310507115	16	diastole	24	A	4157.735780147634	coherent
421.923	0.0956301310507115	16	diastole	25	A	4157.735780147634	coherent
422.1053	0.0956301310507115	16	diastole	26	B	500.0	coherent
422.2877	0.0956301310507115	16	diastole	27	A	4157.735780147634	coherent
422.6432	0.0956301310507115	16	diastole	28	A	4157.735780147634	coherent
422.8254	0.0956301310507115	16	diastole	29	B	500.0	coherent
423.0078	0.0956301310507115	16	diastole	30	A	4157.735780147634	coherent
423.3912	0.0956301310507115	16	diastole	31	A	4157.735780147634	coherent
423.5749	0.0956301310507115	16	diastole	32	B	500.0	coherent
423.7587	0.0956301310507115	16	diastole	33	A	4157.735780147634	coherent
424.1312	0.0956301310507115	16	diastole	34	A	4157.735780147634	coherent
424.3148	0.0956301310507115	16	diastole	35	B	500.0	coherent
424.4986	0.0956301310507115	16	diastole	36	A	4157.735780147634	coherent
424.833	0.0956301310507115	16	diastole	37	A	4157.735780147634	coherent
425.0152	0.0956301310507115	16	diastole	38	B	500.0	coherent
425.1976	0.0956301310507115	16	diastole	39	A	4157.735780147634	coherent
425.5271	0.0956301310507115	16	diastole	40	A	4157.735780147634	coherent
425.7084	0.0956301310507115	16	diastole	41	B	500.0	coherent
425.8897	0.0956301310507115	16	diastole	42	A	4157.735780147634	coherent
429.3355	0.0918876811047084	17	diastole	1	A	2034.3166651064248	coherent
429.518	0.0918876811047084	17	diastole	2	B	500.0	coherent
429.7005	0.0918876811047084	17	diastole	3	A	2034.3166651064248	coherent
430.0454	0.0918876811047084	17	diastole	4	A	2034.3166651064248	coherent
430.228	0.0918876811047084	17	diastole	5	B	500.0	coherent
430.4105	0.0918876811047084	17	diastole	6	A	2034.3166651064248	coherent
430.8253	0.0918876811047084	17	diastole	7	A	2034.3166651064248	coherent
431.0078	0.0918876811047084	17	diastole	8	B	500.0	coherent
431.1903	0.0918876811047084	17	diastole	9	A	2034.3166651064248	coherent
431.5755	0.0918876811047084	17	diastole	10	A	2034.3166651064248	coherent
431.758	0.0918876811047084	17	diastole	11	B	500.0	coherent
431.9406	0.0918876811047084	17	diastole	12	A	2034.3166651064248	coherent
432.3255	0.0918876811047084	17	diastole	13	A	2034.3166651064248	coherent
432.5081	0.0918876811047084	17	diastole	14	B	500.0	coherent
432.6906	0.0918876811047084	17	diastole	15	A	2034.3166651064248	coherent
433.0821	0.0918876811047084	17	diastole	16	A	2034.3166651064248	coherent
433.2659	0.0918876811047084	17	diastole	17	B	500.0	coherent
433.4497	0.0918876811047084	17	diastole	18	A	2034.3166651064248	coherent
433.8057	0.0918876811047084	17	diastole	19	A	2034.3166651064248	coherent
433.9882	0.0918876811047084	17	diastole	20	B	500.0	coherent
434.1708	0.0918876811047084	17	diastole	21	A	2034.3166651064248	coherent
434.536	0.0918876811047084	17	diastole	22	A	2034.3166651064248	coherent
434.7186	0.0918876811047084	17	diastole	23	B	500.0	coherent
434.9012	0.0918876811047084	17	diastole	24	A	2034.3166651064248	coherent
435.2556	0.0918876811047084	17	diastole	25	A	2034.3166651064248	coherent
435.4382	0.0918876811047084	17	diastole	26	B	500.0	coherent
435.6208	0.0918876811047084	17	diastole	27	A	2034.3166651064248	coherent
436.0061	0.0918876811047084	17	diastole	28	A	2034.3166651064248	coherent
436.1887	0.0918876811047084	17	diastole	29	B	500.0	coherent
436.3712	0.0918876811047084	17	diastole	30	A	2034.3166651064248	coherent
436.7565	0.0918876811047084	17	diastole	31	A	2034.3166651064248	coherent
436.9391	0.0918876811047084	17	diastole	32	B	500.0	coherent
437.1217	0.0918876811047084	17	diastole	33	A	2034.3166651064248	coherent
437.5443	0.0918876811047084	17	diastole	34	A	2034.3166651064248	coherent
437.7318	0.0918876811047084	17	diastole	35	B	500.0	coherent
437.9192	0.0918876811047084	17	diastole	36	A	2034.3166651064248	coherent
441.2595	0.0925278562353923	18	diastole	1	A	2130.3297690552017	coherent
441.4446	0.0925278562353923	18	diastole	2	B	500.0	coherent
441.6296	0.0925278562353923	18	diastole	3	A	2130.3297690552017	coherent
441.9895	0.0925278562353923	18	diastole	4	A	2130.3297690552017	coherent
442.1746	0.0925278562353923	18	diastole	5	B	500.0	coherent
442.3596	0.0925278562353923	18	diastole	6	A	2130.3297690552017	coherent
442.7148	0.0925278562353923	18	diastole	7	A	2130.3297690552017	coherent
442.8974	0.0925278562353923	18	diastole	8	B	500.0	coherent
443.0798	0.0925278562353923	18	diastole	9	A	2130.3297690552017	coherent
443.4648	0.0925278562353923	18	diastole	10	A	2130.3297690552017	coherent
443.6473	0.0925278562353923	18	diastole	11	B	500.0	coherent
443.8298	0.0925278562353923	18	diastole	12	A	2130.3297690552017	coherent
444.2219	0.0925278562353923	18	diastole	13	A	2130.3297690552017	coherent
444.4056	0.0925278562353923	18	diastole	14	B	500.0	coherent
444.5893	0.0925278562353923	18	diastole	15	A	2130.3297690552017	coherent
444.9719	0.0925278562353923	18	diastole	16	A	2130.3297690552017	coherent
445.1557	0.0925278562353923	18	diastole	17	B	500.0	coherent
445.3394	0.0925278562353923	18	diastole	18	A	2130.3297690552017	coherent
445.682	0.0925278562353923	18	diastole	19	A	2130.3297690552017	coherent
445.8658	0.0925278562353923	18	diastole	20	B	500.0	coherent
446.0495	0.0925278562353923	18	diastole	21	A	2130.3297690552017	coherent
446.372	0.0925278562353923	18	diastole	22	A	2130.3297690552017	coherent
446.5558	0.0925278562353923	18	diastole	23	B	500.0	coherent
446.7395	0.0925278562353923	18	diastole	24	A	2130.3297690552017	coherent
447.0819	0.0925278562353923	18	diastole	25	A	2130.3297690552017	coherent
447.2657	0.0925278562353923	18	diastole	26	B	500.0	coherent
447.4494	0.0925278562353923	18	diastole	27	A	2130.3297690552017	coherent
447.778	0.0925278562353923	18	diastole	28	A	2130.3297690552017	coherent
447.9592	0.0925278562353923	18	diastole	29	B	500.0	coherent
448.1404	0.0925278562353923	18	diastole	30	A	2130.3297690552017	coherent
448.488	0.0925278562353923	18	diastole	31	A	2130.3297690552017	coherent
448.6693	0.0925278562353923	18	diastole	32	B	500.0	coherent
448.8505	0.0925278562353923	18	diastole	33	A	2130.3297690552017	coherent
449.2279	0.0925278562353923	18	diastole	34	A	2130.3297690552017	coherent
449.4092	0.0925278562353923	18	diastole	35	B	500.0	coherent
449.5904	0.0925278562353923	18	diastole	36	A	2130.3297690552017	coherent
449.9279	0.0925278562353923	18	diastole	37	A	2130.3297690552017	coherent
450.1092	0.0925278562353923	18	diastole	38	B	500.0	coherent
450.2904	0.0925278562353923	18	diastole	39	A	2130.3297690552017	coherent
455.6641	0.0925019812129903	19	systole	1	A	1578.5670027440333	streaming
455.85	0.0925019812129903	19	systole	2	B	500.0	streaming
456.0366	0.0925019812129903	19	systole	3	A	1578.5670027440333	streaming
456.4834	0.0925019812129903	19	systole	4	A	1578.5670027440333	streaming
456.6718	0.0925019812129903	19	systole	5	B	500.0	streaming
456.8609	0.0925019812129903	19	systole	6	A	1578.5670027440333	streaming
457.2233	0.0925019812129903	19	systole	7	A	1578.5670027440333	streaming
457.4118	0.0925019812129903	19	systole	8	B	500.0	streaming
457.6009	0.0925019812129903	19	systole	9	A	1578.5670027440333	streaming
457.9333	0.0925019812129903	19	systole	10	A	1578.5670027440333	streaming
458.1217	0.0925019812129903	19	systole	11	B	500.0	streaming
458.3108	0.0925019812129903	19	systole	12	A	1578.5670027440333	streaming
458.6432	0.0925019812129903	19	systole	13	A	1578.5670027440333	streaming
458.8316	0.0925019812129903	19	systole	14	B	500.0	streaming
459.0207	0.0925019812129903	19	systole	15	A	1578.5670027440333	streaming
459.3839	0.0925019812129903	19	systole	16	A	1578.5670027440333	streaming
459.5698	0.0925019812129903	19	systole	17	B	500.0	streaming
459.7564	0.0925019812129903	19	systole	18	A	1578.5670027440333	streaming
460.1677	0.0925019812129903	19	systole	19	A	1578.5670027440333	streaming
460.3574	0.0925019812129903	19	systole	20	B	500.0	streaming
460.5477	0.0925019812129903	19	systole	21	A	1578.5670027440333	streaming
460.9377	0.0925019812129903	19	systole	22	A	1578.5670027440333	streaming
461.1274	0.0925019812129903	19	systole	23	B	500.0	streaming
461.3177	0.0925019812129903	19	systole	24	A	1578.5670027440333	streaming
461.6877	0.0925019812129903	19	systole	25	A	1578.5670027440333	streaming
461.8773	0.0925019812129903	19	systole	26	B	500.0	streaming
462.0677	0.0925019812129903	19	systole	27	A	1578.5670027440333	streaming
462.4185	0.0925019812129903	19	systole	28	A	1578.5670027440333	streaming
462.6057	0.0925019812129903	19	systole	29	B	500.0	streaming
462.7935	0.0925019812129903	19	systole	30	A	1578.5670027440333	streaming
463.1985	0.0925019812129903	19	systole	31	A	1578.5670027440333	streaming
463.3857	0.0925019812129903	19	systole	32	B	500.0	streaming
463.5735	0.0925019812129903	19	systole	33	A	1578.5670027440333	streaming
463.9785	0.0925019812129903	19	systole	34	A	1578.5670027440333	streaming
464.1656	0.0925019812129903	19	systole	35	B	500.0	streaming
464.3534	0.0925019812129903	19	systole	36	A	1578.5670027440333	streaming
464.7584	0.0925019812129903	19	systole	37	A	1578.5670027440333	streaming
464.9456	0.0925019812129903	19	systole	38	B	500.0	streaming
465.1334	0.0925019812129903	19	systole	39	A	1578.5670027440333	streaming
467.0178	0.0937488557829056	20	systole	1	A	1018.5781753033378	streaming
467.2075	0.0937488557829056	20	systole	2	B	500.0	streaming
467.3978	0.0937488557829056	20	systole	3	A	1018.5781753033378	streaming
467.7978	0.0937488557829056	20	systole	4	A	1018.5781753033378	streaming
467.9875	0.0937488557829056	20	systole	5	B	500.0	streaming
468.1778	0.0937488557829056	20	systole	6	A	1018.5781753033378	streaming
468.5825	0.0937488557829056	20	systole	7	A	1018.5781753033378	streaming
468.7734	0.0937488557829056	20	systole	8	B	500.0	streaming
468.9649	0.0937488557829056	20	systole	9	A	1018.5781753033378	streaming
469.3324	0.0937488557829056	20	systole	10	A	1018.5781753033378	streaming
469.5234	0.0937488557829056	20	systole	11	B	500.0	streaming
469.7149	0.0937488557829056	20	systole	12	A	1018.5781753033378	streaming
470.0824	0.0937488557829056	20	systole	13	A	1018.5781753033378	streaming
470.2733	0.0937488557829056	20	systole	14	B	500.0	streaming
470.4648	0.0937488557829056	20	systole	15	A	1018.5781753033378	streaming
470.8323	0.0937488557829056	20	systole	16	A	1018.5781753033378	streaming
471.0233	0.0937488557829056	20	systole	17	B	500.0	streaming
471.2148	0.0937488557829056	20	systole	18	A	1018.5781753033378	streaming
471.5823	0.0937488557829056	20	systole	19	A	1018.5781753033378	streaming
471.7733	0.0937488557829056	20	systole	20	B	500.0	streaming
471.9647	0.0937488557829056	20	systole	21	A	1018.5781753033378	streaming
472.3357	0.0937488557829056	20	systole	22	A	1018.5781753033378	streaming
472.5244	0.0937488557829056	20	systole	23	B	500.0	streaming
472.7136	0.0937488557829056	20	systole	24	A	1018.5781753033378	streaming
473.0402	0.0937488557829056	20	systole	25	A	1018.5781753033378	streaming
473.2275	0.0937488557829056	20	systole	26	B	500.0	streaming
473.4152	0.0937488557829056	20	systole	27	A	1018.5781753033378	streaming
473.7502	0.0937488557829056	20	systole	28	A	1018.5781753033378	streaming
473.9374	0.0937488557829056	20	systole	29	B	500.0	streaming
474.1252	0.0937488557829056	20	systole	30	A	1018.5781753033378	streaming
474.4802	0.0937488557829056	20	systole	31	A	1018.5781753033378	streaming
474.6674	0.0937488557829056	20	systole	32	B	500.0	streaming
474.8552	0.0937488557829056	20	systole	33	A	1018.5781753033378	streaming
475.2302	0.0937488557829056	20	systole	34	A	1018.5781753033378	streaming
475.4175	0.0937488557829056	20	systole	35	B	500.0	streaming
475.6052	0.0937488557829056	20	systole	36	A	1018.5781753033378	streaming
475.9356	0.0937488557829056	20	systole	37	A	1018.5781753033378	streaming
476.1216	0.0937488557829056	20	systole	38	B	500.0	streaming
476.3081	0.0937488557829056	20	systole	39	A	1018.5781753033378	streaming
483.8974	0.0950001190358307	21	diastole	1	A	2282.9124430951747	coherent
484.0875	0.0950001190358307	21	diastole	2	B	500.0	coherent
484.2774	0.0950001190358307	21	diastole	3	A	2282.9124430951747	coherent
484.6275	0.0950001190358307	21	diastole	4	A	2282.9124430951747	coherent
484.8176	0.0950001190358307	21	diastole	5	B	500.0	coherent
485.0075	0.0950001190358307	21	diastole	6	A	2282.9124430951747	coherent
485.3575	0.0950001190358307	21	diastole	7	A	2282.9124430951747	coherent
485.5476	0.0950001190358307	21	diastole	8	B	500.0	coherent
485.7375	0.0950001190358307	21	diastole	9	A	2282.9124430951747	coherent
486.0762	0.0950001190358307	21	diastole	10	A	2282.9124430951747	coherent
486.2625	0.0950001190358307	21	diastole	11	B	500.0	coherent
486.4487	0.0950001190358307	21	diastole	12	A	2282.9124430951747	coherent
486.8161	0.0950001190358307	21	diastole	13	A	2282.9124430951747	coherent
487.0025	0.0950001190358307	21	diastole	14	B	500.0	coherent
487.1886	0.0950001190358307	21	diastole	15	A	2282.9124430951747	coherent
487.5732	0.0950001190358307	21	diastole	16	A	2282.9124430951747	coherent
487.7608	0.0950001190358307	21	diastole	17	B	500.0	coherent
487.9482	0.0950001190358307	21	diastole	18	A	2282.9124430951747	coherent
488.3232	0.0950001190358307	21	diastole	19	A	2282.9124430951747	coherent
488.5108	0.0950001190358307	21	diastole	20	B	500.0	coherent
488.6982	0.0950001190358307	21	diastole	21	A	2282.9124430951747	coherent
489.0162	0.0950001190358307	21	diastole	22	A	2282.9124430951747	coherent
489.2026	0.0950001190358307	21	diastole	23	B	500.0	coherent
489.3887	0.0950001190358307	21	diastole	24	A	2282.9124430951747	coherent
489.7162	0.0950001190358307	21	diastole	25	A	2282.9124430951747	coherent
489.9026	0.0950001190358307	21	diastole	26	B	500.0	coherent
490.0887	0.0950001190358307	21	diastole	27	A	2282.9124430951747	coherent
490.4821	0.0950001190358307	21	diastole	28	A	2282.9124430951747	coherent
490.6659	0.0950001190358307	21	diastole	29	B	500.0	coherent
490.8496	0.0950001190358307	21	diastole	30	A	2282.9124430951747	coherent
491.268	0.0950001190358307	21	diastole	31	A	2282.9124430951747	coherent
491.4544	0.0950001190358307	21	diastole	32	B	500.0	coherent
491.6405	0.0950001190358307	21	diastole	33	A	2282.9124430951747	coherent
492.0398	0.0950001190358307	21	diastole	34	A	2282.9124430951747	coherent
492.2262	0.0950001190358307	21	diastole	35	B	500.0	coherent
492.4123	0.0950001190358307	21	diastole	36	A	2282.9124430951747	coherent
492.7581	0.0950001190358307	21	diastole	37	A	2282.9124430951747	coherent
492.9445	0.0950001190358307	21	diastole	38	B	500.0	coherent
493.1306	0.0950001190358307	21	diastole	39	A	2282.9124430951747	coherent
493.4981	0.0950001190358307	21	diastole	40	A	2282.9124430951747	coherent
493.6844	0.0950001190358307	21	diastole	41	B	500.0	coherent
493.8706	0.0950001190358307	21	diastole	42	A	2282.9124430951747	coherent
499.1345	0.0925013749510981	22	systole	1	A	754.7629107028698	coherent
499.32	0.0925013749510981	22	systole	2	B	500.0	coherent
499.507	0.0925013749510981	22	systole	3	A	754.7629107028698	coherent
499.8645	0.0925013749510981	22	systole	4	A	754.7629107028698	coherent
500.05	0.0925013749510981	22	systole	5	B	500.0	coherent
500.237	0.0925013749510981	22	systole	6	A	754.7629107028698	coherent
500.5845	0.0925013749510981	22	systole	7	A	754.7629107028698	coherent
500.77	0.0925013749510981	22	systole	8	B	500.0	coherent
500.957	0.0925013749510981	22	systole	9	A	754.7629107028698	coherent
501.3045	0.0925013749510981	22	systole	10	A	754.7629107028698	coherent
501.49	0.0925013749510981	22	systole	11	B	500.0	coherent
501.677	0.0925013749510981	22	systole	12	A	754.7629107028698	coherent
502.0245	0.0925013749510981	22	systole	13	A	754.7629107028698	coherent
502.21	0.0925013749510981	22	systole	14	B	500.0	coherent
502.397	0.0925013749510981	22	systole	15	A	754.7629107028698	coherent
502.7445	0.0925013749510981	22	systole	16	A	754.7629107028698	coherent
502.93	0.0925013749510981	22	systole	17	B	500.0	coherent
503.117	0.0925013749510981	22	systole	18	A	754.7629107028698	coherent
503.4754	0.0925013749510981	22	systole	19	A	754.7629107028698	coherent
503.6584	0.0925013749510981	22	systole	20	B	500.0	coherent
503.8429	0.0925013749510981	22	systole	21	A	754.7629107028698	coherent
504.2155	0.0925013749510981	22	systole	22	A	754.7629107028698	coherent
504.3985	0.0925013749510981	22	systole	23	B	500.0	coherent
504.583	0.0925013749510981	22	systole	24	A	754.7629107028698	coherent
504.9257	0.0925013749510981	22	systole	25	A	754.7629107028698	coherent
505.1088	0.0925013749510981	22	systole	26	B	500.0	coherent
505.2933	0.0925013749510981	22	systole	27	A	754.7629107028698	coherent
505.636	0.0925013749510981	22	systole	28	A	754.7629107028698	coherent
505.819	0.0925013749510981	22	systole	29	B	500.0	coherent
506.0035	0.0925013749510981	22	systole	30	A	754.7629107028698	coherent
506.3267	0.0925013749510981	22	systole	31	A	754.7629107028698	coherent
506.5072	0.0925013749510981	22	systole	32	B	500.0	coherent
506.6892	0.0925013749510981	22	systole	33	A	754.7629107028698	coherent
507.0666	0.0925013749510981	22	systole	34	A	754.7629107028698	coherent
507.2471	0.0925013749510981	22	systole	35	B	500.0	coherent
507.4291	0.0925013749510981	22	systole	36	A	754.7629107028698	coherent
507.8166	0.0925013749510981	22	systole	37	A	754.7629107028698	coherent
507.9971	0.0925013749510981	22	systole	38	B	500.0	coherent
508.1791	0.0925013749510981	22	systole	39	A	754.7629107028698	coherent
511.1694	0.0912457296508364	23	diastole	1	A	2390.658456026444	streaming
511.3542	0.0912457296508364	23	diastole	2	B	500.0	streaming
511.5394	0.0912457296508364	23	diastole	3	A	2390.658456026444	streaming
511.9294	0.0912457296508364	23	diastole	4	A	2390.658456026444	streaming
512.1142	0.0912457296508364	23	diastole	5	B	500.0	streaming
512.2995	0.0912457296508364	23	diastole	6	A	2390.658456026444	streaming
512.6701	0.0912457296508364	23	diastole	7	A	2390.658456026444	streaming
512.8549	0.0912457296508364	23	diastole	8	B	500.0	streaming
513.0402	0.0912457296508364	23	diastole	9	A	2390.658456026444	streaming
513.3697	0.0912457296508364	23	diastole	10	A	2390.658456026444	streaming
513.5546	0.0912457296508364	23	diastole	11	B	500.0	streaming
513.7398	0.0912457296508364	23	diastole	12	A	2390.658456026444	streaming
514.0901	0.0912457296508364	23	diastole	13	A	2390.658456026444	streaming
514.2749	0.0912457296508364	23	diastole	14	B	500.0	streaming
514.4602	0.0912457296508364	23	diastole	15	A	2390.658456026444	streaming
514.84	0.0912457296508364	23	diastole	16	A	2390.658456026444	streaming
515.0249	0.0912457296508364	23	diastole	17	B	500.0	streaming
515.2101	0.0912457296508364	23	diastole	18	A	2390.658456026444	streaming
515.5899	0.0912457296508364	23	diastole	19	A	2390.658456026444	streaming
515.7748	0.0912457296508364	23	diastole	20	B	500.0	streaming
515.9601	0.0912457296508364	23	diastole	21	A	2390.658456026444	streaming
516.295	0.0912457296508364	23	diastole	22	A	2390.658456026444	streaming
516.4811	0.0912457296508364	23	diastole	23	B	500.0	streaming
516.6675	0.0912457296508364	23	diastole	24	A	2390.658456026444	streaming
516.9934	0.0912457296508364	23	diastole	25	A	2390.658456026444	streaming
517.1794	0.0912457296508364	23	diastole	26	B	500.0	streaming
517.3659	0.0912457296508364	23	diastole	27	A	2390.658456026444	streaming
517.7034	0.0912457296508364	23	diastole	28	A	2390.658456026444	streaming
517.8895	0.0912457296508364	23	diastole	29	B	500.0	streaming
518.0759	0.0912457296508364	23	diastole	30	A	2390.658456026444	streaming
518.4196	0.0912457296508364	23	diastole	31	A	2390.658456026444	streaming
518.6032	0.0912457296508364	23	diastole	32	B	500.0	streaming
518.7872	0.0912457296508364	23	diastole	33	A	2390.658456026444	streaming
519.1694	0.0912457296508364	23	diastole	34	A	2390.658456026444	streaming
519.353	0.0912457296508364	23	diastole	35	B	500.0	streaming
519.5369	0.0912457296508364	23	diastole	36	A	2390.658456026444	streaming
520.9519	0.091853525256738	24	systole	1	A	754.7629107028698	coherent
521.1312	0.091853525256738	24	systole	2	B	500.0	coherent
521.312	0.091853525256738	24	systole	3	A	754.7629107028698	coherent
521.6623	0.091853525256738	24	systole	4	A	754.7629107028698	coherent
521.8416	0.091853525256738	24	systole	5	B	500.0	coherent
522.0224	0.091853525256738	24	systole	6	A	754.7629107028698	coherent
522.4123	0.091853525256738	24	systole	7	A	754.7629107028698	coherent
522.5916	0.091853525256738	24	systole	8	B	500.0	coherent
522.7724	0.091853525256738	24	systole	9	A	754.7629107028698	coherent
523.1123	0.091853525256738	24	systole	10	A	754.7629107028698	coherent
523.2916	0.091853525256738	24	systole	11	B	500.0	coherent
523.4724	0.091853525256738	24	systole	12	A	754.7629107028698	coherent
523.8123	0.091853525256738	24	systole	13	A	754.7629107028698	coherent
523.9916	0.091853525256738	24	systole	14	B	500.0	coherent
524.1724	0.091853525256738	24	systole	15	A	754.7629107028698	coherent
524.5123	0.091853525256738	24	systole	16	A	754.7629107028698	coherent
524.6916	0.091853525256738	24	systole	17	B	500.0	coherent
524.8724	0.091853525256738	24	systole	18	A	754.7629107028698	coherent
525.2278	0.091853525256738	24	systole	19	A	754.7629107028698	coherent
525.4058	0.091853525256738	24	systole	20	B	500.0	coherent
525.5854	0.091853525256738	24	systole	21	A	754.7629107028698	coherent
525.9778	0.091853525256738	24	systole	22	A	754.7629107028698	coherent
526.1558	0.091853525256738	24	systole	23	B	500.0	coherent
526.3354	0.091853525256738	24	systole	24	A	754.7629107028698	coherent
526.7278	0.091853525256738	24	systole	25	A	754.7629107028698	coherent
526.9059	0.091853525256738	24	systole	26	B	500.0	coherent
527.0854	0.091853525256738	24	systole	27	A	754.7629107028698	coherent
527.4513	0.091853525256738	24	systole	28	A	754.7629107028698	coherent
527.6331	0.091853525256738	24	systole	29	B	500.0	coherent
527.8163	0.091853525256738	24	systole	30	A	754.7629107028698	coherent
528.1613	0.091853525256738	24	systole	31	A	754.7629107028698	coherent
528.3431	0.091853525256738	24	systole	32	B	500.0	coherent
528.5263	0.091853525256738	24	systole	33	A	754.7629107028698	coherent
528.8812	0.091853525256738	24	systole	34	A	754.7629107028698	coherent
529.063	0.091853525256738	24	systole	35	B	500.0	coherent
529.2462	0.091853525256738	24	systole	36	A	754.7629107028698	coherent
529.6013	0.091853525256738	24	systole	37	A	754.7629107028698	coherent
529.783	0.091853525256738	24	systole	38	B	500.0	coherent
529.9662	0.091853525256738	24	systole	39	A	754.7629107028698	coherent
530.3213	0.091853525256738	24	systole	40	A	754.7629107028698	coherent
530.503	0.091853525256738	24	systole	41	B	500.0	coherent
530.6862	0.091853525256738	24	systole	42	A	754.7629107028698	coherent
531.0415	0.091853525256738	24	systole	43	A	754.7629107028698	coherent
531.2232	0.091853525256738	24	systole	44	B	500.0	coherent
531.4065	0.091853525256738	24	systole	45	A	754.7629107028698	coherent
533.3219	0.090027206169907	25	systole	1	A	772.3687435845811	coherent
533.5012	0.090027206169907	25	systole	2	B	500.0	coherent
533.682	0.090027206169907	25	systole	3	A	772.3687435845811	coherent
534.1217	0.090027206169907	25	systole	4	A	772.3687435845811	coherent
534.301	0.090027206169907	25	systole	5	B	500.0	coherent
534.4818	0.090027206169907	25	systole	6	A	772.3687435845811	coherent
534.8416	0.090027206169907	25	systole	7	A	772.3687435845811	coherent
535.0209	0.090027206169907	25	systole	8	B	500.0	coherent
535.2017	0.090027206169907	25	systole	9	A	772.3687435845811	coherent
535.5515	0.090027206169907	25	systole	10	A	772.3687435845811	coherent
535.7308	0.090027206169907	25	systole	11	B	500.0	coherent
535.9115	0.090027206169907	25	systole	12	A	772.3687435845811	coherent
536.3016	0.090027206169907	25	systole	13	A	772.3687435845811	coherent
536.4809	0.090027206169907	25	systole	14	B	500.0	coherent
536.6617	0.090027206169907	25	systole	15	A	772.3687435845811	coherent
537.0516	0.090027206169907	25	systole	16	A	772.3687435845811	coherent
537.231	0.090027206169907	25	systole	17	B	500.0	coherent
537.4117	0.090027206169907	25	systole	18	A	772.3687435845811	coherent
537.8253	0.090027206169907	25	systole	19	A	772.3687435845811	coherent
538.0084	0.090027206169907	25	systole	20	B	500.0	coherent
538.1929	0.090027206169907	25	systole	21	A	772.3687435845811	coherent
538.5598	0.090027206169907	25	systole	22	A	772.3687435845811	coherent
538.7441	0.090027206169907	25	systole	23	B	500.0	coherent
538.9298	0.090027206169907	25	systole	24	A	772.3687435845811	coherent
539.2898	0.090027206169907	25	systole	25	A	772.3687435845811	coherent
539.4741	0.090027206169907	25	systole	26	B	500.0	coherent
539.6598	0.090027206169907	25	systole	27	A	772.3687435845811	coherent
539.9798	0.090027206169907	25	systole	28	A	772.3687435845811	coherent
540.1641	0.090027206169907	25	systole	29	B	500.0	coherent
540.3498	0.090027206169907	25	systole	30	A	772.3687435845811	coherent
540.6694	0.090027206169907	25	systole	31	A	772.3687435845811	coherent
540.8537	0.090027206169907	25	systole	32	B	500.0	coherent
541.0394	0.090027206169907	25	systole	33	A	772.3687435845811	coherent
541.3589	0.090027206169907	25	systole	34	A	772.3687435845811	coherent
541.5432	0.090027206169907	25	systole	35	B	500.0	coherent
541.7289	0.090027206169907	25	systole	36	A	772.3687435845811	coherent
542.0259	0.090027206169907	25	systole	37	A	772.3687435845811	coherent
542.2039	0.090027206169907	25	systole	38	B	500.0	coherent
542.3834	0.090027206169907	25	systole	39	A	772.3687435845811	coherent
542.7168	0.090027206169907	25	systole	40	A	772.3687435845811	coherent
542.8924	0.090027206169907	25	systole	41	B	500.0	coherent
543.0693	0.090027206169907	25	systole	42	A	772.3687435845811	coherent
545.3841	0.0862462311342824	26	systole	1	A	772.3687435845811	coherent
545.5559	0.0862462311342824	26	systole	2	B	500.0	coherent
545.7291	0.0862462311342824	26	systole	3	A	772.3687435845811	coherent
546.1241	0.0862462311342824	26	systole	4	A	772.3687435845811	coherent
546.2959	0.0862462311342824	26	systole	5	B	500.0	coherent
546.4691	0.0862462311342824	26	systole	6	A	772.3687435845811	coherent
546.8642	0.0862462311342824	26	systole	7	A	772.3687435845811	coherent
547.036	0.0862462311342824	26	systole	8	B	500.0	coherent
547.2092	0.0862462311342824	26	systole	9	A	772.3687435845811	coherent
547.5542	0.0862462311342824	26	systole	10	A	772.3687435845811	coherent
547.7259	0.0862462311342824	26	systole	11	B	500.0	coherent
547.8992	0.0862462311342824	26	systole	12	A	772.3687435845811	coherent
548.2441	0.0862462311342824	26	systole	13	A	772.3687435845811	coherent
548.4159	0.0862462311342824	26	systole	14	B	500.0	coherent
548.5891	0.0862462311342824	26	systole	15	A	772.3687435845811	coherent
548.9779	0.0862462311342824	26	systole	16	A	772.3687435845811	coherent
549.1535	0.0862462311342824	26	systole	17	B	500.0	coherent
549.3304	0.0862462311342824	26	systole	18	A	772.3687435845811	coherent
549.6979	0.0862462311342824	26	systole	19	A	772.3687435845811	coherent
549.8735	0.0862462311342824	26	systole	20	B	500.0	coherent
550.0504	0.0862462311342824	26	systole	21	A	772.3687435845811	coherent
550.4517	0.0862462311342824	26	systole	22	A	772.3687435845811	coherent
550.631	0.0862462311342824	26	systole	23	B	500.0	coherent
550.8117	0.0862462311342824	26	systole	24	A	772.3687435845811	coherent
551.1517	0.0862462311342824	26	systole	25	A	772.3687435845811	coherent
551.331	0.0862462311342824	26	systole	26	B	500.0	coherent
551.5117	0.0862462311342824	26	systole	27	A	772.3687435845811	coherent
551.8417	0.0862462311342824	26	systole	28	A	772.3687435845811	coherent
552.021	0.0862462311342824	26	systole	29	B	500.0	coherent
552.2017	0.0862462311342824	26	systole	30	A	772.3687435845811	coherent
552.5317	0.0862462311342824	26	systole	31	A	772.3687435845811	coherent
552.711	0.0862462311342824	26	systole	32	B	500.0	coherent
552.8917	0.0862462311342824	26	systole	33	A	772.3687435845811	coherent
553.2217	0.0862462311342824	26	systole	34	A	772.3687435845811	coherent
553.401	0.0862462311342824	26	systole	35	B	500.0	coherent
553.5817	0.0862462311342824	26	systole	36	A	772.3687435845811	coherent
553.9726	0.0862462311342824	26	systole	37	A	772.3687435845811	coherent
554.1493	0.0862462311342824	26	systole	38	B	500.0	coherent
554.3276	0.0862462311342824	26	systole	39	A	772.3687435845811	coherent
557.3141	0.0893726236827205	27	diastole	1	A	1615.38914443753	coherent
557.4925	0.0893726236827205	27	diastole	2	B	500.0	coherent
557.6716	0.0893726236827205	27	diastole	3	A	1615.38914443753	coherent
558.0941	0.0893726236827205	27	diastole	4	A	1615.38914443753	coherent
558.2726	0.0893726236827205	27	diastole	5	B	500.0	coherent
558.4516	0.0893726236827205	27	diastole	6	A	1615.38914443753	coherent
558.9154	0.0893726236827205	27	diastole	7	A	1615.38914443753	coherent
559.0976	0.0893726236827205	27	diastole	8	B	500.0	coherent
559.2804	0.0893726236827205	27	diastole	9	A	1615.38914443753	coherent
559.7155	0.0893726236827205	27	diastole	10	A	1615.38914443753	coherent
559.8977	0.0893726236827205	27	diastole	11	B	500.0	coherent
560.0805	0.0893726236827205	27	diastole	12	A	1615.38914443753	coherent
560.5155	0.0893726236827205	27	diastole	13	A	1615.38914443753	coherent
560.6977	0.0893726236827205	27	diastole	14	B	500.0	coherent
560.8805	0.0893726236827205	27	diastole	15	A	1615.38914443753	coherent
561.2568	0.0893726236827205	27	diastole	16	A	1615.38914443753	coherent
561.4428	0.0893726236827205	27	diastole	17	B	500.0	coherent
561.6293	0.0893726236827205	27	diastole	18	A	1615.38914443753	coherent
561.9653	0.0893726236827205	27	diastole	19	A	1615.38914443753	coherent
562.1474	0.0893726236827205	27	diastole	20	B	500.0	coherent
562.3302	0.0893726236827205	27	diastole	21	A	1615.38914443753	coherent
562.695	0.0893726236827205	27	diastole	22	A	1615.38914443753	coherent
562.8772	0.0893726236827205	27	diastole	23	B	500.0	coherent
563.06	0.0893726236827205	27	diastole	24	A	1615.38914443753	coherent
563.415	0.0893726236827205	27	diastole	25	A	1615.38914443753	coherent
563.5972	0.0893726236827205	27	diastole	26	B	500.0	coherent
563.7799	0.0893726236827205	27	diastole	27	A	1615.38914443753	coherent
564.135	0.0893726236827205	27	diastole	28	A	1615.38914443753	coherent
564.3172	0.0893726236827205	27	diastole	29	B	500.0	coherent
564.4999	0.0893726236827205	27	diastole	30	A	1615.38914443753	coherent
564.8179	0.0893726236827205	27	diastole	31	A	1615.38914443753	coherent
564.9989	0.0893726236827205	27	diastole	32	B	500.0	coherent
565.1804	0.0893726236827205	27	diastole	33	A	1615.38914443753	coherent
565.5316	0.0893726236827205	27	diastole	34	A	1615.38914443753	coherent
565.7113	0.0893726236827205	27	diastole	35	B	500.0	coherent
565.8917	0.0893726236827205	27	diastole	36	A	1615.38914443753	coherent
567.6653	0.0906354439794085	28	diastole	1	A	1653.0702107864488	coherent
567.8475	0.0906354439794085	28	diastole	2	B	500.0	coherent
568.0302	0.0906354439794085	28	diastole	3	A	1653.0702107864488	coherent
568.3953	0.0906354439794085	28	diastole	4	A	1653.0702107864488	coherent
568.5775	0.0906354439794085	28	diastole	5	B	500.0	coherent
568.7602	0.0906354439794085	28	diastole	6	A	1653.0702107864488	coherent
569.1353	0.0906354439794085	28	diastole	7	A	1653.0702107864488	coherent
569.3175	0.0906354439794085	28	diastole	8	B	500.0	coherent
569.5003	0.0906354439794085	28	diastole	9	A	1653.0702107864488	coherent
569.9021	0.0906354439794085	28	diastole	10	A	1653.0702107864488	coherent
570.0856	0.0906354439794085	28	diastole	11	B	500.0	coherent
570.2696	0.0906354439794085	28	diastole	12	A	1653.0702107864488	coherent
570.693	0.0906354439794085	28	diastole	13	A	1653.0702107864488	coherent
570.8802	0.0906354439794085	28	diastole	14	B	500.0	coherent
571.0679	0.0906354439794085	28	diastole	15	A	1653.0702107864488	coherent
571.463	0.0906354439794085	28	diastole	16	A	1653.0702107864488	coherent
571.6502	0.0906354439794085	28	diastole	17	B	500.0	coherent
571.8379	0.0906354439794085	28	diastole	18	A	1653.0702107864488	coherent
572.233	0.0906354439794085	28	diastole	19	A	1653.0702107864488	coherent
572.4202	0.0906354439794085	28	diastole	20	B	500.0	coherent
572.6079	0.0906354439794085	28	diastole	21	A	1653.0702107864488	coherent
572.943	0.0906354439794085	28	diastole	22	A	1653.0702107864488	coherent
573.1302	0.0906354439794085	28	diastole	23	B	500.0	coherent
573.3179	0.0906354439794085	28	diastole	24	A	1653.0702107864488	coherent
573.6434	0.0906354439794085	28	diastole	25	A	1653.0702107864488	coherent
573.8306	0.0906354439794085	28	diastole	26	B	500.0	coherent
574.0183	0.0906354439794085	28	diastole	27	A	1653.0702107864488	coherent
574.3524	0.0906354439794085	28	diastole	28	A	1653.0702107864488	coherent
574.5359	0.0906354439794085	28	diastole	29	B	500.0	coherent
574.7199	0.0906354439794085	28	diastole	30	A	1653.0702107864488	coherent
575.0824	0.0906354439794085	28	diastole	31	A	1653.0702107864488	coherent
575.2659	0.0906354439794085	28	diastole	32	B	500.0	coherent
575.4499	0.0906354439794085	28	diastole	33	A	1653.0702107864488	coherent
575.7953	0.0906354439794085	28	diastole	34	A	1653.0702107864488	coherent
575.9775	0.0906354439794085	28	diastole	35	B	500.0	coherent
576.1603	0.0906354439794085	28	diastole	36	A	1653.0702107864488	coherent
576.5153	0.0906354439794085	28	diastole	37	A	1653.0702107864488	coherent
576.6976	0.0906354439794085	28	diastole	38	B	500.0	coherent
576.8803	0.0906354439794085	28	diastole	39	A	1653.0702107864488	coherent
577.1921	0.0906354439794085	28	diastole	40	A	1653.0702107864488	coherent
577.3706	0.0906354439794085	28	diastole	41	B	500.0	coherent
577.5496	0.0906354439794085	28	diastole	42	A	1653.0702107864488	coherent
578.9164	0.0893762641353532	29	systole	1	A	4999.999999999997	streaming
579.0952	0.0893762641353532	29	systole	2	B	500.0	streaming
579.2739	0.0893762641353532	29	systole	3	A	4999.999999999997	streaming
579.6265	0.0893762641353532	29	systole	4	A	4999.999999999997	streaming
579.8052	0.0893762641353532	29	systole	5	B	500.0	streaming
579.984	0.0893762641353532	29	systole	6	A	4999.999999999997	streaming
580.3665	0.0893762641353532	29	systole	7	A	4999.999999999997	streaming
580.5452	0.0893762641353532	29	systole	8	B	500.0	streaming
580.724	0.0893762641353532	29	systole	9	A	4999.999999999997	streaming
581.1209	0.0893762641353532	29	systole	10	A	4999.999999999997	streaming
581.3008	0.0893762641353532	29	systole	11	B	500.0	streaming
581.4808	0.0893762641353532	29	systole	12	A	4999.999999999997	streaming
581.9108	0.0893762641353532	29	systole	13	A	4999.999999999997	streaming
582.0908	0.0893762641353532	29	systole	14	B	500.0	streaming
582.2708	0.0893762641353532	29	systole	15	A	4999.999999999997	streaming
582.6845	0.0893762641353532	29	systole	16	A	4999.999999999997	streaming
582.8683	0.0893762641353532	29	systole	17	B	500.0	streaming
583.052	0.0893762641353532	29	systole	18	A	4999.999999999997	streaming
583.4445	0.0893762641353532	29	systole	19	A	4999.999999999997	streaming
583.6283	0.0893762641353532	29	systole	20	B	500.0	streaming
583.812	0.0893762641353532	29	systole	21	A	4999.999999999997	streaming
584.2045	0.0893762641353532	29	systole	22	A	4999.999999999997	streaming
584.3882	0.0893762641353532	29	systole	23	B	500.0	streaming
584.572	0.0893762641353532	29	systole	24	A	4999.999999999997	streaming
584.9145	0.0893762641353532	29	systole	25	A	4999.999999999997	streaming
585.0982	0.0893762641353532	29	systole	26	B	500.0	streaming
585.282	0.0893762641353532	29	systole	27	A	4999.999999999997	streaming
585.6445	0.0893762641353532	29	systole	28	A	4999.999999999997	streaming
585.8282	0.0893762641353532	29	systole	29	B	500.0	streaming
586.012	0.0893762641353532	29	systole	30	A	4999.999999999997	streaming
586.3745	0.0893762641353532	29	systole	31	A	4999.999999999997	streaming
586.5582	0.0893762641353532	29	systole	32	B	500.0	streaming
586.742	0.0893762641353532	29	systole	33	A	4999.999999999997	streaming
587.1345	0.0893762641353532	29	systole	34	A	4999.999999999997	streaming
587.3182	0.0893762641353532	29	systole	35	B	500.0	streaming
587.502	0.0893762641353532	29	systole	36	A	4999.999999999997	streaming
587.9237	0.0893762641353532	29	systole	37	A	4999.999999999997	streaming
588.1099	0.0893762641353532	29	systole	38	B	500.0	streaming
588.2962	0.0893762641353532	29	systole	39	A	4999.999999999997	streaming
588.6391	0.0893762641353532	29	systole	40	A	4999.999999999997	streaming
588.8241	0.0893762641353532	29	systole	41	B	500.0	streaming
589.0091	0.0893762641353532	29	systole	42	A	4999.999999999997	streaming
590.9129	0.0931261875084601	30	systole	1	A	4999.999999999997	streaming
591.1016	0.0931261875084601	30	systole	2	B	500.0	streaming
591.2904	0.0931261875084601	30	systole	3	A	4999.999999999997	streaming
591.6229	0.0931261875084601	30	systole	4	A	4999.999999999997	streaming
591.8116	0.0931261875084601	30	systole	5	B	500.0	streaming
592.0004	0.0931261875084601	30	systole	6	A	4999.999999999997	streaming
592.3229	0.0931261875084601	30	systole	7	A	4999.999999999997	streaming
592.5117	0.0931261875084601	30	systole	8	B	500.0	streaming
592.7004	0.0931261875084601	30	systole	9	A	4999.999999999997	streaming
593.0229	0.0931261875084601	30	systole	10	A	4999.999999999997	streaming
593.2116	0.0931261875084601	30	systole	11	B	500.0	streaming
593.4004	0.0931261875084601	30	systole	12	A	4999.999999999997	streaming
593.7493	0.0931261875084601	30	systole	13	A	4999.999999999997	streaming
593.9343	0.0931261875084601	30	systole	14	B	500.0	streaming
594.1193	0.0931261875084601	30	systole	15	A	4999.999999999997	streaming
594.5039	0.0931261875084601	30	systole	16	A	4999.999999999997	streaming
594.6902	0.0931261875084601	30	systole	17	B	500.0	streaming
594.8765	0.0931261875084601	30	systole	18	A	4999.999999999997	streaming
595.2539	0.0931261875084601	30	systole	19	A	4999.999999999997	streaming
595.4402	0.0931261875084601	30	systole	20	B	500.0	streaming
595.6265	0.0931261875084601	30	systole	21	A	4999.999999999997	streaming
595.9493	0.0931261875084601	30	systole	22	A	4999.999999999997	streaming
596.1343	0.0931261875084601	30	systole	23	B	500.0	streaming
596.3194	0.0931261875084601	30	systole	24	A	4999.999999999997	streaming
596.6602	0.0931261875084601	30	systole	25	A	4999.999999999997	streaming
596.8426	0.0931261875084601	30	systole	26	B	500.0	streaming
597.0252	0.0931261875084601	30	systole	27	A	4999.999999999997	streaming
597.3802	0.0931261875084601	30	systole	28	A	4999.999999999997	streaming
597.5627	0.0931261875084601	30	systole	29	B	500.0	streaming
597.7452	0.0931261875084601	30	systole	30	A	4999.999999999997	streaming
598.1201	0.0931261875084601	30	systole	31	A	4999.999999999997	streaming
598.3026	0.0931261875084601	30	systole	32	B	500.0	streaming
598.4852	0.0931261875084601	30	systole	33	A	4999.999999999997	streaming
598.8802	0.0931261875084601	30	systole	34	A	4999.999999999997	streaming
599.0626	0.0931261875084601	30	systole	35	B	500.0	streaming
599.2452	0.0931261875084601	30	systole	36	A	4999.999999999997	streaming
599.6493	0.0931261875084601	30	systole	37	A	4999.999999999997	streaming
599.8342	0.0931261875084601	30	systole	38	B	500.0	streaming
600.0193	0.0931261875084601	30	systole	39	A	4999.999999999997	streaming
600.3747	0.0931261875084601	30	systole	40	A	4999.999999999997	streaming
600.5585	0.0931261875084601	30	systole	41	B	500.0	streaming
600.7422	0.0931261875084601	30	systole	42	A	4999.999999999997	streaming
603.0935	0.0918755307502579	31	diastole	1	A	1731.0897269735058	coherent
603.2808	0.0918755307502579	31	diastole	2	B	500.0	coherent
603.4685	0.0918755307502579	31	diastole	3	A	1731.0897269735058	coherent
603.8777	0.0918755307502579	31	diastole	4	A	1731.0897269735058	coherent
604.0675	0.0918755307502579	31	diastole	5	B	500.0	coherent
604.2576	0.0918755307502579	31	diastole	6	A	1731.0897269735058	coherent
604.6477	0.0918755307502579	31	diastole	7	A	1731.0897269735058	coherent
604.8375	0.0918755307502579	31	diastole	8	B	500.0	coherent
605.0277	0.0918755307502579	31	diastole	9	A	1731.0897269735058	coherent
605.3577	0.0918755307502579	31	diastole	10	A	1731.0897269735058	coherent
605.5475	0.0918755307502579	31	diastole	11	B	500.0	coherent
605.7377	0.0918755307502579	31	diastole	12	A	1731.0897269735058	coherent
606.0677	0.0918755307502579	31	diastole	13	A	1731.0897269735058	coherent
606.2575	0.0918755307502579	31	diastole	14	B	500.0	coherent
606.4476	0.0918755307502579	31	diastole	15	A	1731.0897269735058	coherent
606.7776	0.0918755307502579	31	diastole	16	A	1731.0897269735058	coherent
606.9674	0.0918755307502579	31	diastole	17	B	500.0	coherent
607.1576	0.0918755307502579	31	diastole	18	A	1731.0897269735058	coherent
607.4865	0.0918755307502579	31	diastole	19	A	1731.0897269735058	coherent
607.6725	0.0918755307502579	31	diastole	20	B	500.0	coherent
607.859	0.0918755307502579	31	diastole	21	A	1731.0897269735058	coherent
608.2294	0.0918755307502579	31	diastole	22	A	1731.0897269735058	coherent
608.4143	0.0918755307502579	31	diastole	23	B	500.0	coherent
608.5995	0.0918755307502579	31	diastole	24	A	1731.0897269735058	coherent
609.0306	0.0918755307502579	31	diastole	25	A	1731.0897269735058	coherent
609.2191	0.0918755307502579	31	diastole	26	B	500.0	coherent
609.4081	0.0918755307502579	31	diastole	27	A	1731.0897269735058	coherent
609.8106	0.0918755307502579	31	diastole	28	A	1731.0897269735058	coherent
609.9991	0.0918755307502579	31	diastole	29	B	500.0	coherent
610.188	0.0918755307502579	31	diastole	30	A	1731.0897269735058	coherent
610.5364	0.0918755307502579	31	diastole	31	A	1731.0897269735058	coherent
610.7225	0.0918755307502579	31	diastole	32	B	500.0	coherent
610.9089	0.0918755307502579	31	diastole	33	A	1731.0897269735058	coherent
611.4165	0.0918755307502579	31	diastole	34	A	1731.0897269735058	coherent
611.6025	0.0918755307502579	31	diastole	35	B	500.0	coherent
611.7889	0.0918755307502579	31	diastole	36	A	1731.0897269735058	coherent
612.2665	0.0918755307502579	31	diastole	37	A	1731.0897269735058	coherent
612.4525	0.0918755307502579	31	diastole	38	B	500.0	coherent
612.639	0.0918755307502579	31	diastole	39	A	1731.0897269735058	coherent
614.8737	0.093123047350673	32	systole	1	A	4999.999999999997	streaming
615.0599	0.093123047350673	32	systole	2	B	500.0	streaming
615.2462	0.093123047350673	32	systole	3	A	4999.999999999997	streaming
615.6537	0.093123047350673	32	systole	4	A	4999.999999999997	streaming
615.84	0.093123047350673	32	systole	5	B	500.0	streaming
616.0262	0.093123047350673	32	systole	6	A	4999.999999999997	streaming
616.3837	0.093123047350673	32	systole	7	A	4999.999999999997	streaming
616.5699	0.093123047350673	32	systole	8	B	500.0	streaming
616.7562	0.093123047350673	32	systole	9	A	4999.999999999997	streaming
617.1137	0.093123047350673	32	systole	10	A	4999.999999999997	streaming
617.2999	0.093123047350673	32	systole	11	B	500.0	streaming
617.4862	0.093123047350673	32	systole	12	A	4999.999999999997	streaming
617.8437	0.093123047350673	32	systole	13	A	4999.999999999997	streaming
618.0299	0.093123047350673	32	systole	14	B	500.0	streaming
618.2162	0.093123047350673	32	systole	15	A	4999.999999999997	streaming
618.5737	0.093123047350673	32	systole	16	A	4999.999999999997	streaming
618.7599	0.093123047350673	32	systole	17	B	500.0	streaming
618.9462	0.093123047350673	32	systole	18	A	4999.999999999997	streaming
619.3037	0.093123047350673	32	systole	19	A	4999.999999999997	streaming
619.4899	0.093123047350673	32	systole	20	B	500.0	streaming
619.6762	0.093123047350673	32	systole	21	A	4999.999999999997	streaming
620.0537	0.093123047350673	32	systole	22	A	4999.999999999997	streaming
620.2399	0.093123047350673	32	systole	23	B	500.0	streaming
620.4262	0.093123047350673	32	systole	24	A	4999.999999999997	streaming
620.8437	0.093123047350673	32	systole	25	A	4999.999999999997	streaming
621.0299	0.093123047350673	32	systole	26	B	500.0	streaming
621.2162	0.093123047350673	32	systole	27	A	4999.999999999997	streaming
621.6537	0.093123047350673	32	systole	28	A	4999.999999999997	streaming
621.8399	0.093123047350673	32	systole	29	B	500.0	streaming
622.0262	0.093123047350673	32	systole	30	A	4999.999999999997	streaming
622.3783	0.093123047350673	32	systole	31	A	4999.999999999997	streaming
622.5657	0.093123047350673	32	systole	32	B	500.0	streaming
622.7533	0.093123047350673	32	systole	33	A	4999.999999999997	streaming
623.1283	0.093123047350673	32	systole	34	A	4999.999999999997	streaming
623.3158	0.093123047350673	32	systole	35	B	500.0	streaming
623.5033	0.093123047350673	32	systole	36	A	4999.999999999997	streaming
623.8783	0.093123047350673	32	systole	37	A	4999.999999999997	streaming
624.0658	0.093123047350673	32	systole	38	B	500.0	streaming
624.2533	0.093123047350673	32	systole	39	A	4999.999999999997	streaming
626.0491	0.0937499261053744	33	systole	1	A	4999.999999999997	streaming
626.2341	0.0937499261053744	33	systole	2	B	500.0	streaming
626.4191	0.0937499261053744	33	systole	3	A	4999.999999999997	streaming
626.7791	0.0937499261053744	33	systole	4	A	4999.999999999997	streaming
626.9641	0.0937499261053744	33	systole	5	B	500.0	streaming
627.1491	0.0937499261053744	33	systole	6	A	4999.999999999997	streaming
627.5091	0.0937499261053744	33	systole	7	A	4999.999999999997	streaming
627.6941	0.0937499261053744	33	systole	8	B	500.0	streaming
627.8791	0.0937499261053744	33	systole	9	A	4999.999999999997	streaming
628.259	0.0937499261053744	33	systole	10	A	4999.999999999997	streaming
628.444	0.0937499261053744	33	systole	11	B	500.0	streaming
628.629	0.0937499261053744	33	systole	12	A	4999.999999999997	streaming
628.97	0.0937499261053744	33	systole	13	A	4999.999999999997	streaming
629.1525	0.0937499261053744	33	systole	14	B	500.0	streaming
629.335	0.0937499261053744	33	systole	15	A	4999.999999999997	streaming
629.69	0.0937499261053744	33	systole	16	A	4999.999999999997	streaming
629.8725	0.0937499261053744	33	systole	17	B	500.0	streaming
630.055	0.0937499261053744	33	systole	18	A	4999.999999999997	streaming
630.4301	0.0937499261053744	33	systole	19	A	4999.999999999997	streaming
630.6126	0.0937499261053744	33	systole	20	B	500.0	streaming
630.7951	0.0937499261053744	33	systole	21	A	4999.999999999997	streaming
631.1701	0.0937499261053744	33	systole	22	A	4999.999999999997	streaming
631.3526	0.0937499261053744	33	systole	23	B	500.0	streaming
631.5352	0.0937499261053744	33	systole	24	A	4999.999999999997	streaming
631.9748	0.0937499261053744	33	systole	25	A	4999.999999999997	streaming
632.1585	0.0937499261053744	33	systole	26	B	500.0	streaming
632.3423	0.0937499261053744	33	systole	27	A	4999.999999999997	streaming
632.7748	0.0937499261053744	33	systole	28	A	4999.999999999997	streaming
632.9585	0.0937499261053744	33	systole	29	B	500.0	streaming
633.1423	0.0937499261053744	33	systole	30	A	4999.999999999997	streaming
633.5748	0.0937499261053744	33	systole	31	A	4999.999999999997	streaming
633.7585	0.0937499261053744	33	systole	32	B	500.0	streaming
633.9423	0.0937499261053744	33	systole	33	A	4999.999999999997	streaming
634.324	0.0937499261053744	33	systole	34	A	4999.999999999997	streaming
634.5102	0.0937499261053744	33	systole	35	B	500.0	streaming
634.6965	0.0937499261053744	33	systole	36	A	4999.999999999997	streaming
635.004	0.0937499261053744	33	systole	37	A	4999.999999999997	streaming
635.1902	0.0937499261053744	33	systole	38	B	500.0	streaming
635.3765	0.0937499261053744	33	systole	39	A	4999.999999999997	streaming
638.3889	0.0931254062452353	34	diastole	1	A	1771.4696608628924	coherent
638.5738	0.0931254062452353	34	diastole	2	B	500.0	coherent
638.7589	0.0931254062452353	34	diastole	3	A	1771.4696608628924	coherent
639.1293	0.0931254062452353	34	diastole	4	A	1771.4696608628924	coherent
639.3141	0.0931254062452353	34	diastole	5	B	500.0	coherent
639.4992	0.0931254062452353	34	diastole	6	A	1771.4696608628924	coherent
639.8696	0.0931254062452353	34	diastole	7	A	1771.4696608628924	coherent
640.0544	0.0931254062452353	34	diastole	8	B	500.0	coherent
640.2396	0.0931254062452353	34	diastole	9	A	1771.4696608628924	coherent
640.6793	0.0931254062452353	34	diastole	10	A	1771.4696608628924	coherent
640.8641	0.0931254062452353	34	diastole	11	B	500.0	coherent
641.0493	0.0931254062452353	34	diastole	12	A	1771.4696608628924	coherent
641.4703	0.0931254062452353	34	diastole	13	A	1771.4696608628924	coherent
641.6589	0.0931254062452353	34	diastole	14	B	500.0	coherent
641.8478	0.0931254062452353	34	diastole	15	A	1771.4696608628924	coherent
642.24	0.0931254062452353	34	diastole	16	A	1771.4696608628924	coherent
642.4285	0.0931254062452353	34	diastole	17	B	500.0	coherent
642.6175	0.0931254062452353	34	diastole	18	A	1771.4696608628924	coherent
642.9596	0.0931254062452353	34	diastole	19	A	1771.4696608628924	coherent
643.1482	0.0931254062452353	34	diastole	20	B	500.0	coherent
643.3371	0.0931254062452353	34	diastole	21	A	1771.4696608628924	coherent
643.6792	0.0931254062452353	34	diastole	22	A	1771.4696608628924	coherent
643.8678	0.0931254062452353	34	diastole	23	B	500.0	coherent
644.0567	0.0931254062452353	34	diastole	24	A	1771.4696608628924	coherent
644.4057	0.0931254062452353	34	diastole	25	A	1771.4696608628924	coherent
644.5918	0.0931254062452353	34	diastole	26	B	500.0	coherent
644.7783	0.0931254062452353	34	diastole	27	A	1771.4696608628924	coherent
645.1461	0.0931254062452353	34	diastole	28	A	1771.4696608628924	coherent
645.3322	0.0931254062452353	34	diastole	29	B	500.0	coherent
645.5187	0.0931254062452353	34	diastole	30	A	1771.4696608628924	coherent
645.8466	0.0931254062452353	34	diastole	31	A	1771.4696608628924	coherent
646.0327	0.0931254062452353	34	diastole	32	B	500.0	coherent
646.2192	0.0931254062452353	34	diastole	33	A	1771.4696608628924	coherent
646.5471	0.0931254062452353	34	diastole	34	A	1771.4696608628924	coherent
646.7333	0.0931254062452353	34	diastole	35	B	500.0	coherent
646.9197	0.0931254062452353	34	diastole	36	A	1771.4696608628924	coherent
649.9452	0.0919019342109095	35	systole	1	A	808.8220262698977	coherent
650.1284	0.0919019342109095	35	systole	2	B	500.0	coherent
650.3128	0.0919019342109095	35	systole	3	A	808.8220262698977	coherent
650.6953	0.0919019342109095	35	systole	4	A	808.8220262698977	coherent
650.8784	0.0919019342109095	35	systole	5	B	500.0	coherent
651.0629	0.0919019342109095	35	systole	6	A	808.8220262698977	coherent
651.4453	0.0919019342109095	35	systole	7	A	808.8220262698977	coherent
651.6285	0.0919019342109095	35	systole	8	B	500.0	coherent
651.8129	0.0919019342109095	35	systole	9	A	808.8220262698977	coherent
652.2597	0.0919019342109095	35	systole	10	A	808.8220262698977	coherent
652.4441	0.0919019342109095	35	systole	11	B	500.0	coherent
652.6297	0.0919019342109095	35	systole	12	A	808.8220262698977	coherent
653.0497	0.0919019342109095	35	systole	13	A	808.8220262698977	coherent
653.2341	0.0919019342109095	35	systole	14	B	500.0	coherent
653.4197	0.0919019342109095	35	systole	15	A	808.8220262698977	coherent
653.8398	0.0919019342109095	35	systole	16	A	808.8220262698977	coherent
654.0241	0.0919019342109095	35	systole	17	B	500.0	coherent
654.2098	0.0919019342109095	35	systole	18	A	808.8220262698977	coherent
654.5844	0.0919019342109095	35	systole	19	A	808.8220262698977	coherent
654.7701	0.0919019342109095	35	systole	20	B	500.0	coherent
654.957	0.0919019342109095	35	systole	21	A	808.8220262698977	coherent
655.3245	0.0919019342109095	35	systole	22	A	808.8220262698977	coherent
655.5102	0.0919019342109095	35	systole	23	B	500.0	coherent
655.6971	0.0919019342109095	35	systole	24	A	808.8220262698977	coherent
656.0445	0.0919019342109095	35	systole	25	A	808.8220262698977	coherent
656.2302	0.0919019342109095	35	systole	26	B	500.0	coherent
656.417	0.0919019342109095	35	systole	27	A	808.8220262698977	coherent
656.7645	0.0919019342109095	35	systole	28	A	808.8220262698977	coherent
656.9501	0.0919019342109095	35	systole	29	B	500.0	coherent
657.137	0.0919019342109095	35	systole	30	A	808.8220262698977	coherent
657.5192	0.0919019342109095	35	systole	31	A	808.8220262698977	coherent
657.706	0.0919019342109095	35	systole	32	B	500.0	coherent
657.8942	0.0919019342109095	35	systole	33	A	808.8220262698977	coherent
658.2991	0.0919019342109095	35	systole	34	A	808.8220262698977	coherent
658.486	0.0919019342109095	35	systole	35	B	500.0	coherent
658.6741	0.0919019342109095	35	systole	36	A	808.8220262698977	coherent
661.3575	0.0931353187188506	36	systole	1	A	4999.999999999997	streaming
661.5474	0.0931353187188506	36	systole	2	B	500.0	streaming
661.7374	0.0931353187188506	36	systole	3	A	4999.999999999997	streaming
662.1576	0.0931353187188506	36	systole	4	A	4999.999999999997	streaming
662.3475	0.0931353187188506	36	systole	5	B	500.0	streaming
662.5376	0.0931353187188506	36	systole	6	A	4999.999999999997	streaming
662.8829	0.0931353187188506	36	systole	7	A	4999.999999999997	streaming
663.0716	0.0931353187188506	36	systole	8	B	500.0	streaming
663.2604	0.0931353187188506	36	systole	9	A	4999.999999999997	streaming
663.6529	0.0931353187188506	36	systole	10	A	4999.999999999997	streaming
663.8416	0.0931353187188506	36	systole	11	B	500.0	streaming
664.0304	0.0931353187188506	36	systole	12	A	4999.999999999997	streaming
664.4233	0.0931353187188506	36	systole	13	A	4999.999999999997	streaming
664.612	0.0931353187188506	36	systole	14	B	500.0	streaming
664.8008	0.0931353187188506	36	systole	15	A	4999.999999999997	streaming
665.1937	0.0931353187188506	36	systole	16	A	4999.999999999997	streaming
665.3824	0.0931353187188506	36	systole	17	B	500.0	streaming
665.5712	0.0931353187188506	36	systole	18	A	4999.999999999997	streaming
665.9274	0.0931353187188506	36	systole	19	A	4999.999999999997	streaming
666.1199	0.0931353187188506	36	systole	20	B	500.0	streaming
666.3124	0.0931353187188506	36	systole	21	A	4999.999999999997	streaming
666.6475	0.0931353187188506	36	systole	22	A	4999.999999999997	streaming
666.8399	0.0931353187188506	36	systole	23	B	500.0	streaming
667.0324	0.0931353187188506	36	systole	24	A	4999.999999999997	streaming
667.3675	0.0931353187188506	36	systole	25	A	4999.999999999997	streaming
667.56	0.0931353187188506	36	systole	26	B	500.0	streaming
667.7525	0.0931353187188506	36	systole	27	A	4999.999999999997	streaming
668.0937	0.0931353187188506	36	systole	28	A	4999.999999999997	streaming
668.2824	0.0931353187188506	36	systole	29	B	500.0	streaming
668.4712	0.0931353187188506	36	systole	30	A	4999.999999999997	streaming
668.8254	0.0931353187188506	36	systole	31	A	4999.999999999997	streaming
669.0091	0.0931353187188506	36	systole	32	B	500.0	streaming
669.1929	0.0931353187188506	36	systole	33	A	4999.999999999997	streaming
669.6045	0.0931353187188506	36	systole	34	A	4999.999999999997	streaming
669.7907	0.0931353187188506	36	systole	35	B	500.0	streaming
669.977	0.0931353187188506	36	systole	36	A	4999.999999999997	streaming
672.7951	0.0912560087163001	37	diastole	1	A	4999.999999999997	streaming
672.9776	0.0912560087163001	37	diastole	2	B	500.0	streaming
673.1602	0.0912560087163001	37	diastole	3	A	4999.999999999997	streaming
673.5453	0.0912560087163001	37	diastole	4	A	4999.999999999997	streaming
673.7278	0.0912560087163001	37	diastole	5	B	500.0	streaming
673.9103	0.0912560087163001	37	diastole	6	A	4999.999999999997	streaming
674.3464	0.0912560087163001	37	diastole	7	A	4999.999999999997	streaming
674.5326	0.0912560087163001	37	diastole	8	B	500.0	streaming
674.7189	0.0912560087163001	37	diastole	9	A	4999.999999999997	streaming
675.1264	0.0912560087163001	37	diastole	10	A	4999.999999999997	streaming
675.3126	0.0912560087163001	37	diastole	11	B	500.0	streaming
675.4989	0.0912560087163001	37	diastole	12	A	4999.999999999997	streaming
675.9064	0.0912560087163001	37	diastole	13	A	4999.999999999997	streaming
676.0926	0.0912560087163001	37	diastole	14	B	500.0	streaming
676.2789	0.0912560087163001	37	diastole	15	A	4999.999999999997	streaming
676.6637	0.0912560087163001	37	diastole	16	A	4999.999999999997	streaming
676.8512	0.0912560087163001	37	diastole	17	B	500.0	streaming
677.0387	0.0912560087163001	37	diastole	18	A	4999.999999999997	streaming
677.4138	0.0912560087163001	37	diastole	19	A	4999.999999999997	streaming
677.6013	0.0912560087163001	37	diastole	20	B	500.0	streaming
677.7888	0.0912560087163001	37	diastole	21	A	4999.999999999997	streaming
678.1225	0.0912560087163001	37	diastole	22	A	4999.999999999997	streaming
678.3062	0.0912560087163001	37	diastole	23	B	500.0	streaming
678.49	0.0912560087163001	37	diastole	24	A	4999.999999999997	streaming
678.8525	0.0912560087163001	37	diastole	25	A	4999.999999999997	streaming
679.0362	0.0912560087163001	37	diastole	26	B	500.0	streaming
679.22	0.0912560087163001	37	diastole	27	A	4999.999999999997	streaming
679.5825	0.0912560087163001	37	diastole	28	A	4999.999999999997	streaming
679.7662	0.0912560087163001	37	diastole	29	B	500.0	streaming
679.95	0.0912560087163001	37	diastole	30	A	4999.999999999997	streaming
680.2325	0.0912560087163001	37	diastole	31	A	4999.999999999997	streaming
680.4162	0.0912560087163001	37	diastole	32	B	500.0	streaming
680.6	0.0912560087163001	37	diastole	33	A	4999.999999999997	streaming
680.8825	0.0912560087163001	37	diastole	34	A	4999.999999999997	streaming
681.0662	0.0912560087163001	37	diastole	35	B	500.0	streaming
681.25	0.0912560087163001	37	diastole	36	A	4999.999999999997	streaming
683.7952	0.0912704062357079	38	diastole	1	A	4999.999999999997	streaming
683.9777	0.0912704062357079	38	diastole	2	B	500.0	streaming
684.1603	0.0912704062357079	38	diastole	3	A	4999.999999999997	streaming
684.5853	0.0912704062357079	38	diastole	4	A	4999.999999999997	streaming
684.7678	0.0912704062357079	38	diastole	5	B	500.0	streaming
684.9504	0.0912704062357079	38	diastole	6	A	4999.999999999997	streaming
685.3621	0.0912704062357079	38	diastole	7	A	4999.999999999997	streaming
685.5459	0.0912704062357079	38	diastole	8	B	500.0	streaming
685.7296	0.0912704062357079	38	diastole	9	A	4999.999999999997	streaming
686.1322	0.0912704062357079	38	diastole	10	A	4999.999999999997	streaming
686.3159	0.0912704062357079	38	diastole	11	B	500.0	streaming
686.4997	0.0912704062357079	38	diastole	12	A	4999.999999999997	streaming
686.8522	0.0912704062357079	38	diastole	13	A	4999.999999999997	streaming
687.0359	0.0912704062357079	38	diastole	14	B	500.0	streaming
687.2197	0.0912704062357079	38	diastole	15	A	4999.999999999997	streaming
687.5722	0.0912704062357079	38	diastole	16	A	4999.999999999997	streaming
687.7559	0.0912704062357079	38	diastole	17	B	500.0	streaming
687.9397	0.0912704062357079	38	diastole	18	A	4999.999999999997	streaming
688.2922	0.0912704062357079	38	diastole	19	A	4999.999999999997	streaming
688.4759	0.0912704062357079	38	diastole	20	B	500.0	streaming
688.6597	0.0912704062357079	38	diastole	21	A	4999.999999999997	streaming
689.0155	0.0912704062357079	38	diastole	22	A	4999.999999999997	streaming
689.198	0.0912704062357079	38	diastole	23	B	500.0	streaming
689.3805	0.0912704062357079	38	diastole	24	A	4999.999999999997	streaming
689.7459	0.0912704062357079	38	diastole	25	A	4999.999999999997	streaming
689.9284	0.0912704062357079	38	diastole	26	B	500.0	streaming
690.1109	0.0912704062357079	38	diastole	27	A	4999.999999999997	streaming
690.4582	0.0912704062357079	38	diastole	28	A	4999.999999999997	streaming
690.6394	0.0912704062357079	38	diastole	29	B	500.0	streaming
690.8206	0.0912704062357079	38	diastole	30	A	4999.999999999997	streaming
691.1613	0.0912704062357079	38	diastole	31	A	4999.999999999997	streaming
691.3413	0.0912704062357079	38	diastole	32	B	500.0	streaming
691.5213	0.0912704062357079	38	diastole	33	A	4999.999999999997	streaming
691.8416	0.0912704062357079	38	diastole	34	A	4999.999999999997	streaming
692.0215	0.0912704062357079	38	diastole	35	B	500.0	streaming
692.2015	0.0912704062357079	38	diastole	36	A	4999.999999999997	streaming
692.5013	0.0912704062357079	38	diastole	37	A	4999.999999999997	streaming
692.6812	0.0912704062357079	38	diastole	38	B	500.0	streaming
692.8612	0.0912704062357079	38	diastole	39	A	4999.999999999997	streaming
695.2937	0.0893526594154536	39	diastole	1	A	4999.999999999997	streaming
695.4723	0.0893526594154536	39	diastole	2	B	500.0	streaming
