onset	duration	trial_num	trial_type	tone_num	tone_type	frequency	response
76.0831999999998	0.0850107062724419	1	diastole	1	B	500	diastole
76.75319999999988	0.0850107062724419	1	diastole	2	B	500	diastole
77.46319999999992	0.0850107062724419	1	diastole	3	B	500	diastole
78.17329999999993	0.0850107062724419	1	diastole	4	B	500	diastole
78.9201999999998	0.0850107062724419	1	diastole	5	B	500	diastole
79.65019999999981	0.0850107062724419	1	diastole	6	B	500	diastole
80.38019999999983	0.0850107062724419	1	diastole	7	B	500	diastole
81.11509999999998	0.0850107062724419	1	diastole	8	B	500	diastole
81.8252	0.0850107062724419	1	diastole	9	B	500	diastole
82.5351999999998	0.0850107062724419	1	diastole	10	B	500	diastole
83.24519999999984	0.0850107062724419	1	diastole	11	B	500	diastole
83.92679999999996	0.0850107062724419	1	diastole	12	B	500	diastole
84.60699999999997	0.0850107062724419	1	diastole	13	B	500	diastole
97.61649999999986	0.0881492798798717	2	systole	1	B	500	diastole
98.30119999999988	0.0881492798798717	2	systole	2	B	500	diastole
99.06089999999995	0.0881492798798717	2	systole	3	B	500	diastole
99.82079999999996	0.0881492798798717	2	systole	4	B	500	diastole
100.58069999999998	0.0881492798798717	2	systole	5	B	500	diastole
101.2702999999999	0.0881492798798717	2	systole	6	B	500	diastole
101.95979999999986	0.0881492798798717	2	systole	7	B	500	diastole
102.64940000000001	0.0881492798798717	2	systole	8	B	500	diastole
103.32989999999995	0.0881492798798717	2	systole	9	B	500	diastole
104.01029999999992	0.0881492798798717	2	systole	10	B	500	diastole
104.7204999999999	0.0881492798798717	2	systole	11	B	500	diastole
105.45049999999992	0.0881492798798717	2	systole	12	B	500	diastole
106.20929999999998	0.0881492798798717	2	systole	13	B	500	diastole
106.91989999999987	0.0881492798798717	2	systole	14	B	500	diastole
115.83979999999997	0.090609856240917	3	diastole	1	B	500	diastole
116.51469999999995	0.090609856240917	3	diastole	2	B	500	diastole
117.16660000000002	0.090609856240917	3	diastole	3	B	500	diastole
117.83499999999981	0.090609856240917	3	diastole	4	B	500	diastole
118.49959999999987	0.090609856240917	3	diastole	5	B	500	diastole
119.23839999999996	0.090609856240917	3	diastole	6	B	500	diastole
119.97839999999997	0.090609856240917	3	diastole	7	B	500	diastole
120.71679999999992	0.090609856240917	3	diastole	8	B	500	diastole
121.39719999999988	0.090609856240917	3	diastole	9	B	500	diastole
122.07889999999998	0.090609856240917	3	diastole	10	B	500	diastole
122.76059999999984	0.090609856240917	3	diastole	11	B	500	diastole
123.49059999999986	0.090609856240917	3	diastole	12	B	500	diastole
124.23049999999989	0.090609856240917	3	diastole	13	B	500	diastole
149.89019999999982	0.0981460336479358	4	systole	1	B	500	systole
150.61009999999987	0.0981460336479358	4	systole	2	B	500	systole
151.33019999999988	0.0981460336479358	4	systole	3	B	500	systole
152.03819999999996	0.0981460336479358	4	systole	4	B	500	systole
152.75779999999986	0.0981460336479358	4	systole	5	B	500	systole
153.4348	0.0981460336479358	4	systole	6	B	500	systole
154.13519999999994	0.0981460336479358	4	systole	7	B	500	systole
154.79160000000002	0.0981460336479358	4	systole	8	B	500	systole
155.41959999999995	0.0981460336479358	4	systole	9	B	500	systole
156.05949999999984	0.0981460336479358	4	systole	10	B	500	systole
156.68819999999982	0.0981460336479358	4	systole	11	B	500	systole
157.3047999999999	0.0981460336479358	4	systole	12	B	500	systole
157.9445999999998	0.0981460336479358	4	systole	13	B	500	systole
158.5750999999998	0.0981460336479358	4	systole	14	B	500	systole
159.20359999999982	0.0981460336479358	4	systole	15	B	500	systole
166.337	0.094278271717485	5	diastole	1	B	500	systole
167.07709999999997	0.094278271717485	5	diastole	2	B	500	systole
167.8071	0.094278271717485	5	diastole	3	B	500	systole
168.5070999999998	0.094278271717485	5	diastole	4	B	500	systole
169.20709999999985	0.094278271717485	5	diastole	5	B	500	systole
169.9070999999999	0.094278271717485	5	diastole	6	B	500	systole
170.5718999999999	0.094278271717485	5	diastole	7	B	500	systole
171.12659999999983	0.094278271717485	5	diastole	8	B	500	systole
171.75659999999993	0.094278271717485	5	diastole	9	B	500	systole
172.36979999999994	0.094278271717485	5	diastole	10	B	500	systole
172.96799999999985	0.094278271717485	5	diastole	11	B	500	systole
173.6230999999998	0.094278271717485	5	diastole	12	B	500	systole
174.30309999999986	0.094278271717485	5	diastole	13	B	500	systole
174.9930999999999	0.094278271717485	5	diastole	14	B	500	systole
175.66319999999996	0.094278271717485	5	diastole	15	B	500	systole
179.54489999999987	0.084379663108848	6	diastole	1	B	500	diastole
180.18819999999982	0.084379663108848	6	diastole	2	B	500	diastole
180.8481999999999	0.084379663108848	6	diastole	3	B	500	diastole
181.5	0.084379663108848	6	diastole	4	B	500	diastole
182.14159999999993	0.084379663108848	6	diastole	5	B	500	diastole
182.79160000000002	0.084379663108848	6	diastole	6	B	500	diastole
183.45129999999995	0.084379663108848	6	diastole	7	B	500	diastole
184.1413	0.084379663108848	6	diastole	8	B	500	diastole
184.8913	0.084379663108848	6	diastole	9	B	500	diastole
185.6398999999999	0.084379663108848	6	diastole	10	B	500	diastole
186.3798999999999	0.084379663108848	6	diastole	11	B	500	diastole
187.10500000000002	0.084379663108848	6	diastole	12	B	500	diastole
187.8050999999998	0.084379663108848	6	diastole	13	B	500	diastole
209.62879999999996	0.0931252062437124	7	systole	1	B	500	diastole
210.33870000000002	0.0931252062437124	7	systole	2	B	500	diastole
211.01509999999985	0.0931252062437124	7	systole	3	B	500	diastole
211.7150999999999	0.0931252062437124	7	systole	4	B	500	diastole
212.40779999999995	0.0931252062437124	7	systole	5	B	500	diastole
213.1017999999999	0.0931252062437124	7	systole	6	B	500	diastole
213.75019999999995	0.0931252062437124	7	systole	7	B	500	diastole
214.41009999999983	0.0931252062437124	7	systole	8	B	500	diastole
215.0544	0.0931252062437124	7	systole	9	B	500	diastole
215.69909999999982	0.0931252062437124	7	systole	10	B	500	diastole
216.3496	0.0931252062437124	7	systole	11	B	500	diastole
217.05949999999984	0.0931252062437124	7	systole	12	B	500	diastole
217.7751999999998	0.0931252062437124	7	systole	13	B	500	diastole
218.48509999999987	0.0931252062437124	7	systole	14	B	500	diastole
219.18499999999995	0.0931252062437124	7	systole	15	B	500	diastole
223.8451	0.0862521500093862	8	systole	1	B	500	systole
224.49509999999987	0.0862521500093862	8	systole	2	B	500	systole
225.15919999999983	0.0862521500093862	8	systole	3	B	500	systole
225.82909999999993	0.0862521500093862	8	systole	4	B	500	systole
226.51919999999996	0.0862521500093862	8	systole	5	B	500	systole
227.19319999999993	0.0862521500093862	8	systole	6	B	500	systole
227.86739999999986	0.0862521500093862	8	systole	7	B	500	systole
228.5873999999999	0.0862521500093862	8	systole	8	B	500	systole
229.30739999999992	0.0862521500093862	8	systole	9	B	500	systole
230.02329999999984	0.0862521500093862	8	systole	10	B	500	systole
230.73329999999987	0.0862521500093862	8	systole	11	B	500	systole
231.41319999999996	0.0862521500093862	8	systole	12	B	500	systole
232.07330000000002	0.0862521500093862	8	systole	13	B	500	systole
232.7430999999999	0.0862521500093862	8	systole	14	B	500	systole
233.42309999999998	0.0862521500093862	8	systole	15	B	500	systole
244.11799999999994	0.0951080626691691	9	diastole	1	B	500	systole
244.81809999999996	0.0951080626691691	9	diastole	2	B	500	systole
245.51819999999998	0.0951080626691691	9	diastole	3	B	500	systole
246.2181999999998	0.0951080626691691	9	diastole	4	B	500	systole
246.91679999999997	0.0951080626691691	9	diastole	5	B	500	systole
247.55359999999996	0.0951080626691691	9	diastole	6	B	500	systole
248.13699999999994	0.0951080626691691	9	diastole	7	B	500	systole
248.7869999999998	0.0951080626691691	9	diastole	8	B	500	systole
249.4468999999999	0.0951080626691691	9	diastole	9	B	500	systole
250.11019999999985	0.0951080626691691	9	diastole	10	B	500	systole
250.80949999999984	0.0951080626691691	9	diastole	11	B	500	systole
251.4918	0.0951080626691691	9	diastole	12	B	500	systole
252.1818999999998	0.0951080626691691	9	diastole	13	B	500	systole
252.89189999999985	0.0951080626691691	9	diastole	14	B	500	systole
258.6230999999998	0.088756609824486	10	diastole	1	B	500	diastole
259.2618	0.088756609824486	10	diastole	2	B	500	diastole
259.90179999999987	0.088756609824486	10	diastole	3	B	500	diastole
260.54189999999994	0.088756609824486	10	diastole	4	B	500	diastole
261.1863999999998	0.088756609824486	10	diastole	5	B	500	diastole
261.8047999999999	0.088756609824486	10	diastole	6	B	500	diastole
262.43989999999985	0.088756609824486	10	diastole	7	B	500	diastole
263.12979999999993	0.088756609824486	10	diastole	8	B	500	diastole
263.8198	0.088756609824486	10	diastole	9	B	500	diastole
264.5199	0.088756609824486	10	diastole	10	B	500	diastole
265.20989999999983	0.088756609824486	10	diastole	11	B	500	diastole
265.9064999999998	0.088756609824486	10	diastole	12	B	500	diastole
266.56639999999993	0.088756609824486	10	diastole	13	B	500	diastole
267.20669999999996	0.088756609824486	10	diastole	14	B	500	diastole
277.9998999999998	0.0975025706575252	11	systole	1	B	500	systole
278.78	0.0975025706575252	11	systole	2	B	500	systole
279.5601999999999	0.0975025706575252	11	systole	3	B	500	systole
280.2385999999999	0.0975025706575252	11	systole	4	B	500	systole
280.8884999999998	0.0975025706575252	11	systole	5	B	500	systole
281.51839999999993	0.0975025706575252	11	systole	6	B	500	systole
282.0944999999999	0.0975025706575252	11	systole	7	B	500	systole
282.69679999999994	0.0975025706575252	11	systole	8	B	500	systole
283.35839999999985	0.0975025706575252	11	systole	9	B	500	systole
284.01149999999984	0.0975025706575252	11	systole	10	B	500	systole
284.7216999999998	0.0975025706575252	11	systole	11	B	500	systole
285.4318999999998	0.0975025706575252	11	systole	12	B	500	systole
286.1117999999999	0.0975025706575252	11	systole	13	B	500	systole
286.79179999999997	0.0975025706575252	11	systole	14	B	500	systole
290.3847999999998	0.0848957315902225	12	diastole	1	B	500	diastole
291.0547999999999	0.0848957315902225	12	diastole	2	B	500	diastole
291.7648999999999	0.0848957315902225	12	diastole	3	B	500	diastole
292.4848999999999	0.0848957315902225	12	diastole	4	B	500	diastole
293.2132999999999	0.0848957315902225	12	diastole	5	B	500	diastole
293.9028999999998	0.0848957315902225	12	diastole	6	B	500	diastole
294.5926999999999	0.0848957315902225	12	diastole	7	B	500	diastole
295.2528	0.0848957315902225	12	diastole	8	B	500	diastole
295.91269999999986	0.0848957315902225	12	diastole	9	B	500	diastole
296.5727999999999	0.0848957315902225	12	diastole	10	B	500	diastole
297.3159999999998	0.0848957315902225	12	diastole	11	B	500	diastole
298.12099999999987	0.0848957315902225	12	diastole	12	B	500	diastole
298.90089999999987	0.0848957315902225	12	diastole	13	B	500	diastole
302.4047999999998	0.0937596877338364	13	systole	1	B	500	diastole
303.08479999999986	0.0937596877338364	13	systole	2	B	500	diastole
303.75479999999993	0.0937596877338364	13	systole	3	B	500	diastole
304.4249	0.0937596877338364	13	systole	4	B	500	diastole
305.0749999999998	0.0937596877338364	13	systole	5	B	500	diastole
305.7074	0.0937596877338364	13	systole	6	B	500	diastole
306.3364999999999	0.0937596877338364	13	systole	7	B	500	diastole
306.9774	0.0937596877338364	13	systole	8	B	500	diastole
307.62149999999997	0.0937596877338364	13	systole	9	B	500	diastole
308.27149999999983	0.0937596877338364	13	systole	10	B	500	diastole
308.8998999999999	0.0937596877338364	13	systole	11	B	500	diastole
309.5182	0.0937596877338364	13	systole	12	B	500	diastole
310.1380999999999	0.0937596877338364	13	systole	13	B	500	diastole
310.7581	0.0937596877338364	13	systole	14	B	500	diastole
311.3781999999999	0.0937596877338364	13	systole	15	B	500	diastole
323.32989999999995	0.0931195034645497	14	diastole	1	B	500	diastole
324.0099	0.0931195034645497	14	diastole	2	B	500	diastole
324.64649999999983	0.0931195034645497	14	diastole	3	B	500	diastole
325.3098	0.0931195034645497	14	diastole	4	B	500	diastole
325.9819	0.0931195034645497	14	diastole	5	B	500	diastole
326.6533999999999	0.0931195034645497	14	diastole	6	B	500	diastole
327.3231999999998	0.0931195034645497	14	diastole	7	B	500	diastole
327.9931999999999	0.0931195034645497	14	diastole	8	B	500	diastole
328.673	0.0931195034645497	14	diastole	9	B	500	diastole
329.3434	0.0931195034645497	14	diastole	10	B	500	diastole
330.0129999999999	0.0931195034645497	14	diastole	11	B	500	diastole
330.6546999999998	0.0931195034645497	14	diastole	12	B	500	diastole
331.27679999999987	0.0931195034645497	14	diastole	13	B	500	diastole
331.88639999999987	0.0931195034645497	14	diastole	14	B	500	diastole
337.4012	0.0781024986645206	15	diastole	1	B	500	systole
338.0211999999999	0.0781024986645206	15	diastole	2	B	500	systole
338.6411999999998	0.0781024986645206	15	diastole	3	B	500	systole
339.2611999999999	0.0781024986645206	15	diastole	4	B	500	systole
339.8711999999998	0.0781024986645206	15	diastole	5	B	500	systole
340.48119999999994	0.0781024986645206	15	diastole	6	B	500	systole
341.1595	0.0781024986645206	15	diastole	7	B	500	systole
341.87009999999987	0.0781024986645206	15	diastole	8	B	500	systole
342.5803999999998	0.0781024986645206	15	diastole	9	B	500	systole
343.27009999999996	0.0781024986645206	15	diastole	10	B	500	systole
343.9732999999999	0.0781024986645206	15	diastole	11	B	500	systole
344.6868999999999	0.0781024986645206	15	diastole	12	B	500	systole
345.37699999999995	0.0781024986645206	15	diastole	13	B	500	systole
346.0668999999998	0.0781024986645206	15	diastole	14	B	500	systole
346.75569999999993	0.0781024986645206	15	diastole	15	B	500	systole
355.3259999999998	0.0837232738849707	16	diastole	1	B	500	systole
355.9762999999998	0.0837232738849707	16	diastole	2	B	500	systole
356.62649999999985	0.0837232738849707	16	diastole	3	B	500	systole
357.2666999999999	0.0837232738849707	16	diastole	4	B	500	systole
357.9266	0.0837232738849707	16	diastole	5	B	500	systole
358.5864999999999	0.0837232738849707	16	diastole	6	B	500	systole
359.2570999999998	0.0837232738849707	16	diastole	7	B	500	systole
359.9553999999998	0.0837232738849707	16	diastole	8	B	500	systole
360.68539999999985	0.0837232738849707	16	diastole	9	B	500	systole
361.44539999999984	0.0837232738849707	16	diastole	10	B	500	systole
362.20529999999985	0.0837232738849707	16	diastole	11	B	500	systole
362.9653999999998	0.0837232738849707	16	diastole	12	B	500	systole
363.6714999999999	0.0837232738849707	16	diastole	13	B	500	systole
364.34159999999997	0.0837232738849707	16	diastole	14	B	500	systole
366.7494999999999	0.0874000191688537	17	systole	1	B	500	systole
367.41949999999997	0.0874000191688537	17	systole	2	B	500	systole
368.0586999999998	0.0874000191688537	17	systole	3	B	500	systole
368.72759999999994	0.0874000191688537	17	systole	4	B	500	systole
369.4079999999999	0.0874000191688537	17	systole	5	B	500	systole
370.13379999999984	0.0874000191688537	17	systole	6	B	500	systole
370.8037999999999	0.0874000191688537	17	systole	7	B	500	systole
371.4421	0.0874000191688537	17	systole	8	B	500	systole
372.0921999999998	0.0874000191688537	17	systole	9	B	500	systole
372.7621999999999	0.0874000191688537	17	systole	10	B	500	systole
373.45219999999995	0.0874000191688537	17	systole	11	B	500	systole
374.15819999999985	0.0874000191688537	17	systole	12	B	500	systole
374.8580999999999	0.0874000191688537	17	systole	13	B	500	systole
375.5799999999999	0.0874000191688537	17	systole	14	B	500	systole
376.32119999999986	0.0874000191688537	17	systole	15	B	500	systole
379.51649999999995	0.0874973455793224	18	diastole	1	B	500	diastole
380.1966	0.0874973455793224	18	diastole	2	B	500	diastole
380.8766999999998	0.0874973455793224	18	diastole	3	B	500	diastole
381.5465999999999	0.0874973455793224	18	diastole	4	B	500	diastole
382.1881999999998	0.0874973455793224	18	diastole	5	B	500	diastole
382.83799999999997	0.0874973455793224	18	diastole	6	B	500	diastole
383.47159999999985	0.0874973455793224	18	diastole	7	B	500	diastole
384.11479999999983	0.0874973455793224	18	diastole	8	B	500	diastole
384.7482	0.0874973455793224	18	diastole	9	B	500	diastole
385.41819999999984	0.0874973455793224	18	diastole	10	B	500	diastole
386.0881999999999	0.0874973455793224	18	diastole	11	B	500	diastole
386.73979999999983	0.0874973455793224	18	diastole	12	B	500	diastole
387.3997999999999	0.0874973455793224	18	diastole	13	B	500	diastole
388.0312999999999	0.0874973455793224	18	diastole	14	B	500	diastole
388.65319999999997	0.0874973455793224	18	diastole	15	B	500	diastole
391.2733999999998	0.0812525562942028	19	diastole	1	B	500	diastole
392.0233999999998	0.0812525562942028	19	diastole	2	B	500	diastole
392.72309999999993	0.0812525562942028	19	diastole	3	B	500	diastole
393.4315999999999	0.0812525562942028	19	diastole	4	B	500	diastole
394.1316999999999	0.0812525562942028	19	diastole	5	B	500	diastole
394.9360999999999	0.0812525562942028	19	diastole	6	B	500	diastole
395.6660999999999	0.0812525562942028	19	diastole	7	B	500	diastole
396.37829999999985	0.0812525562942028	19	diastole	8	B	500	diastole
397.0966999999998	0.0812525562942028	19	diastole	9	B	500	diastole
397.7946999999999	0.0812525562942028	19	diastole	10	B	500	diastole
398.46669999999995	0.0812525562942028	19	diastole	11	B	500	diastole
399.1470999999999	0.0812525562942028	19	diastole	12	B	500	diastole
399.8285999999998	0.0812525562942028	19	diastole	13	B	500	diastole
400.4656	0.0812525562942028	19	diastole	14	B	500	diastole
407.0081	0.0887233499088324	20	systole	1	B	500	diastole
407.67769999999996	0.0887233499088324	20	systole	2	B	500	diastole
408.3473999999999	0.0887233499088324	20	systole	3	B	500	diastole
408.9774	0.0887233499088324	20	systole	4	B	500	diastole
409.6075000000001	0.0887233499088324	20	systole	5	B	500	diastole
410.22749999999996	0.0887233499088324	20	systole	6	B	500	diastole
410.80099999999993	0.0887233499088324	20	systole	7	B	500	diastole
411.42119999999977	0.0887233499088324	20	systole	8	B	500	diastole
412.1111999999998	0.0887233499088324	20	systole	9	B	500	diastole
412.8011999999999	0.0887233499088324	20	systole	10	B	500	diastole
413.49119999999994	0.0887233499088324	20	systole	11	B	500	diastole
414.1812	0.0887233499088324	20	systole	12	B	500	diastole
414.8507999999997	0.0887233499088324	20	systole	13	B	500	diastole
415.5164	0.0887233499088324	20	systole	14	B	500	diastole
422.12959999999975	0.0825304624740965	21	systole	1	B	500	systole
422.77909999999974	0.0825304624740965	21	systole	2	B	500	systole
423.40369999999984	0.0825304624740965	21	systole	3	B	500	systole
424.0342999999998	0.0825304624740965	21	systole	4	B	500	systole
424.6578999999997	0.0825304624740965	21	systole	5	B	500	systole
425.2620999999999	0.0825304624740965	21	systole	6	B	500	systole
425.87210000000005	0.0825304624740965	21	systole	7	B	500	systole
426.4827	0.0825304624740965	21	systole	8	B	500	systole
427.15110000000004	0.0825304624740965	21	systole	9	B	500	systole
427.81939999999986	0.0825304624740965	21	systole	10	B	500	systole
428.48109999999997	0.0825304624740965	21	systole	11	B	500	systole
429.14480000000003	0.0825304624740965	21	systole	12	B	500	systole
429.82130000000006	0.0825304624740965	21	systole	13	B	500	systole
430.4811999999997	0.0825304624740965	21	systole	14	B	500	systole
431.12120000000004	0.0825304624740965	21	systole	15	B	500	systole
434.23070000000007	0.0793766499846242	22	systole	1	B	500	diastole
434.94079999999985	0.0793766499846242	22	systole	2	B	500	diastole
435.70069999999987	0.0793766499846242	22	systole	3	B	500	diastole
436.38650000000007	0.0793766499846242	22	systole	4	B	500	diastole
437.0798	0.0793766499846242	22	systole	5	B	500	diastole
437.74980000000005	0.0793766499846242	22	systole	6	B	500	diastole
438.4674	0.0793766499846242	22	systole	7	B	500	diastole
439.1673999999998	0.0793766499846242	22	systole	8	B	500	diastole
439.86749999999984	0.0793766499846242	22	systole	9	B	500	diastole
440.5675000000001	0.0793766499846242	22	systole	10	B	500	diastole
441.34259999999995	0.0793766499846242	22	systole	11	B	500	diastole
442.1100999999999	0.0793766499846242	22	systole	12	B	500	diastole
442.89739999999983	0.0793766499846242	22	systole	13	B	500	diastole
443.66359999999986	0.0793766499846242	22	systole	14	B	500	diastole
447.8797999999997	0.0937391986371949	23	diastole	1	B	500	diastole
448.57119999999986	0.0937391986371949	23	diastole	2	B	500	diastole
449.24620000000004	0.0937391986371949	23	diastole	3	B	500	diastole
449.9458999999997	0.0937391986371949	23	diastole	4	B	500	diastole
450.62159999999994	0.0937391986371949	23	diastole	5	B	500	diastole
451.2467999999999	0.0937391986371949	23	diastole	6	B	500	diastole
451.8973000000001	0.0937391986371949	23	diastole	7	B	500	diastole
452.5477999999998	0.0937391986371949	23	diastole	8	B	500	diastole
453.1983	0.0937391986371949	23	diastole	9	B	500	diastole
453.8487	0.0937391986371949	23	diastole	10	B	500	diastole
454.48990000000003	0.0937391986371949	23	diastole	11	B	500	diastole
455.1219000000001	0.0937391986371949	23	diastole	12	B	500	diastole
455.8218999999999	0.0937391986371949	23	diastole	13	B	500	diastole
456.52189999999973	0.0937391986371949	23	diastole	14	B	500	diastole
460.34079999999994	0.0881496848887763	24	diastole	1	B	500	diastole
461.0209	0.0881496848887763	24	diastole	2	B	500	diastole
461.701	0.0881496848887763	24	diastole	3	B	500	diastole
462.38110000000006	0.0881496848887763	24	diastole	4	B	500	diastole
463.0510999999997	0.0881496848887763	24	diastole	5	B	500	diastole
463.71270000000004	0.0881496848887763	24	diastole	6	B	500	diastole
464.38279999999986	0.0881496848887763	24	diastole	7	B	500	diastole
465.0528999999997	0.0881496848887763	24	diastole	8	B	500	diastole
465.7747999999997	0.0881496848887763	24	diastole	9	B	500	diastole
466.5047999999997	0.0881496848887763	24	diastole	10	B	500	diastole
467.2053000000001	0.0881496848887763	24	diastole	11	B	500	diastole
467.9252999999999	0.0881496848887763	24	diastole	12	B	500	diastole
468.6452999999997	0.0881496848887763	24	diastole	13	B	500	diastole
469.33529999999973	0.0881496848887763	24	diastole	14	B	500	diastole
473.59839999999986	0.0812433935352601	25	diastole	1	B	500	systole
474.21839999999975	0.0812433935352601	25	diastole	2	B	500	systole
474.83849999999984	0.0812433935352601	25	diastole	3	B	500	systole
475.49839999999995	0.0812433935352601	25	diastole	4	B	500	systole
476.15819999999985	0.0812433935352601	25	diastole	5	B	500	systole
476.8281999999999	0.0812433935352601	25	diastole	6	B	500	systole
477.4982	0.0812433935352601	25	diastole	7	B	500	systole
478.1678999999999	0.0812433935352601	25	diastole	8	B	500	systole
478.8382999999999	0.0812433935352601	25	diastole	9	B	500	systole
479.5196000000001	0.0812433935352601	25	diastole	10	B	500	systole
480.1797999999999	0.0812433935352601	25	diastole	11	B	500	systole
480.8683000000001	0.0812433935352601	25	diastole	12	B	500	systole
481.5661	0.0812433935352601	25	diastole	13	B	500	systole
482.2466999999997	0.0812433935352601	25	diastole	14	B	500	systole
482.9366	0.0812433935352601	25	diastole	15	B	500	systole
486.8615	0.0831379312439821	26	diastole	1	B	500	systole
487.5111999999999	0.0831379312439821	26	diastole	2	B	500	systole
488.20910000000003	0.0831379312439821	26	diastole	3	B	500	systole
488.90689999999995	0.0831379312439821	26	diastole	4	B	500	systole
489.55179999999973	0.0831379312439821	26	diastole	5	B	500	systole
490.2037999999998	0.0831379312439821	26	diastole	6	B	500	systole
490.8638000000001	0.0831379312439821	26	diastole	7	B	500	systole
491.52369999999974	0.0831379312439821	26	diastole	8	B	500	systole
492.32079999999996	0.0831379312439821	26	diastole	9	B	500	systole
493.10249999999996	0.0831379312439821	26	diastole	10	B	500	systole
493.8707999999997	0.0831379312439821	26	diastole	11	B	500	systole
494.6722	0.0831379312439821	26	diastole	12	B	500	systole
495.4555999999998	0.0831379312439821	26	diastole	13	B	500	systole
498.48680000000013	0.0942652715020813	27	diastole	1	B	500	diastole
499.2051999999999	0.0942652715020813	27	diastole	2	B	500	diastole
499.8595	0.0942652715020813	27	diastole	3	B	500	diastole
500.49479999999994	0.0942652715020813	27	diastole	4	B	500	diastole
501.14660000000003	0.0942652715020813	27	diastole	5	B	500	diastole
501.7982999999999	0.0942652715020813	27	diastole	6	B	500	diastole
502.3681999999999	0.0942652715020813	27	diastole	7	B	500	diastole
503.03819999999996	0.0942652715020813	27	diastole	8	B	500	diastole
503.70820000000003	0.0942652715020813	27	diastole	9	B	500	diastole
504.3687	0.0942652715020813	27	diastole	10	B	500	diastole
505.03859999999986	0.0942652715020813	27	diastole	11	B	500	diastole
505.7185999999997	0.0942652715020813	27	diastole	12	B	500	diastole
506.3771999999999	0.0942652715020813	27	diastole	13	B	500	diastole
507.01890000000003	0.0942652715020813	27	diastole	14	B	500	diastole
510.1673999999998	0.0837481752387248	28	systole	1	B	500	systole
510.90729999999985	0.0837481752387248	28	systole	2	B	500	systole
511.64649999999983	0.0837481752387248	28	systole	3	B	500	systole
512.3564999999999	0.0837481752387248	28	systole	4	B	500	systole
513.0522999999998	0.0837481752387248	28	systole	5	B	500	systole
513.7422999999999	0.0837481752387248	28	systole	6	B	500	systole
514.4422999999997	0.0837481752387248	28	systole	7	B	500	systole
515.174	0.0837481752387248	28	systole	8	B	500	systole
515.8955999999998	0.0837481752387248	28	systole	9	B	500	systole
516.6171999999997	0.0837481752387248	28	systole	10	B	500	systole
517.3344999999999	0.0837481752387248	28	systole	11	B	500	systole
518.0544	0.0837481752387248	28	systole	12	B	500	systole
518.7743999999998	0.0837481752387248	28	systole	13	B	500	systole
519.4636999999998	0.0837481752387248	28	systole	14	B	500	systole
522.7649999999999	0.0868732185917906	29	systole	1	B	500	systole
523.4292	0.0868732185917906	29	systole	2	B	500	systole
524.0933	0.0868732185917906	29	systole	3	B	500	systole
524.7431999999999	0.0868732185917906	29	systole	4	B	500	systole
525.3775	0.0868732185917906	29	systole	5	B	500	systole
526.0117	0.0868732185917906	29	systole	6	B	500	systole
526.6513999999997	0.0868732185917906	29	systole	7	B	500	systole
527.2912999999999	0.0868732185917906	29	systole	8	B	500	systole
527.9456999999998	0.0868732185917906	29	systole	9	B	500	systole
528.6255999999998	0.0868732185917906	29	systole	10	B	500	systole
529.3054999999999	0.0868732185917906	29	systole	11	B	500	systole
529.9955	0.0868732185917906	29	systole	12	B	500	systole
530.6855999999998	0.0868732185917906	29	systole	13	B	500	systole
531.3757999999998	0.0868732185917906	29	systole	14	B	500	systole
532.0616	0.0868732185917906	29	systole	15	B	500	systole
534.8132	0.0849988686968572	30	systole	1	B	500	systole
535.4731999999999	0.0849988686968572	30	systole	2	B	500	systole
536.1331	0.0849988686968572	30	systole	3	B	500	systole
536.7930999999999	0.0849988686968572	30	systole	4	B	500	systole
537.4431	0.0849988686968572	30	systole	5	B	500	systole
538.0774000000001	0.0849988686968572	30	systole	6	B	500	systole
538.7116000000001	0.0849988686968572	30	systole	7	B	500	systole
539.3516	0.0849988686968572	30	systole	8	B	500	systole
539.9638999999997	0.0849988686968572	30	systole	9	B	500	systole
540.5823	0.0849988686968572	30	systole	10	B	500	systole
541.2064999999998	0.0849988686968572	30	systole	11	B	500	systole
541.8665000000001	0.0849988686968572	30	systole	12	B	500	systole
542.5464999999999	0.0849988686968572	30	systole	13	B	500	systole
543.2264999999998	0.0849988686968572	30	systole	14	B	500	systole
543.8966	0.0849988686968572	30	systole	15	B	500	systole
544.6080999999999	0.0849988686968572	30	systole	16	B	500	systole
547.7231999999999	0.0850011258153244	31	diastole	1	B	500	diastole
548.3732	0.0850011258153244	31	diastole	2	B	500	diastole
549.0232000000001	0.0850011258153244	31	diastole	3	B	500	diastole
549.6648	0.0850011258153244	31	diastole	4	B	500	diastole
550.3148000000001	0.0850011258153244	31	diastole	5	B	500	diastole
550.9380999999998	0.0850011258153244	31	diastole	6	B	500	diastole
551.5780999999997	0.0850011258153244	31	diastole	7	B	500	diastole
552.1995999999999	0.0850011258153244	31	diastole	8	B	500	diastole
552.8114	0.0850011258153244	31	diastole	9	B	500	diastole
553.4314999999997	0.0850011258153244	31	diastole	10	B	500	diastole
554.0531000000001	0.0850011258153244	31	diastole	11	B	500	diastole
554.7248	0.0850011258153244	31	diastole	12	B	500	diastole
555.4047999999998	0.0850011258153244	31	diastole	13	B	500	diastole
556.0747999999999	0.0850011258153244	31	diastole	14	B	500	diastole
556.7447999999999	0.0850011258153244	31	diastole	15	B	500	diastole
558.5675000000001	0.0843810405349358	32	systole	1	B	500	systole
559.2174999999997	0.0843810405349358	32	systole	2	B	500	systole
559.8516999999997	0.0843810405349358	32	systole	3	B	500	systole
560.4917	0.0843810405349358	32	systole	4	B	500	systole
561.1059	0.0843810405349358	32	systole	5	B	500	systole
561.7240999999999	0.0843810405349358	32	systole	6	B	500	systole
562.3325	0.0843810405349358	32	systole	7	B	500	systole
562.9667	0.0843810405349358	32	systole	8	B	500	systole
563.6967	0.0843810405349358	32	systole	9	B	500	systole
564.4265999999998	0.0843810405349358	32	systole	10	B	500	systole
565.1723999999999	0.0843810405349358	32	systole	11	B	500	systole
565.9123999999997	0.0843810405349358	32	systole	12	B	500	systole
566.7057999999997	0.0843810405349358	32	systole	13	B	500	systole
567.48	0.0843810405349358	32	systole	14	B	500	systole
568.1698999999999	0.0843810405349358	32	systole	15	B	500	systole
571.3674000000001	0.0875028250156901	33	systole	1	B	500	diastole
571.9800999999998	0.0875028250156901	33	systole	2	B	500	diastole
572.6801	0.0875028250156901	33	systole	3	B	500	diastole
573.3800999999999	0.0875028250156901	33	systole	4	B	500	diastole
574.06	0.0875028250156901	33	systole	5	B	500	diastole
574.7199999999998	0.0875028250156901	33	systole	6	B	500	diastole
575.4000000000001	0.0875028250156901	33	systole	7	B	500	diastole
576.0798999999997	0.0875028250156901	33	systole	8	B	500	diastole
576.7557999999999	0.0875028250156901	33	systole	9	B	500	diastole
577.4157	0.0875028250156901	33	systole	10	B	500	diastole
578.0756000000001	0.0875028250156901	33	systole	11	B	500	diastole
578.7156999999997	0.0875028250156901	33	systole	12	B	500	diastole
579.3555999999999	0.0875028250156901	33	systole	13	B	500	diastole
579.9856999999997	0.0875028250156901	33	systole	14	B	500	diastole
580.6158	0.0875028250156901	33	systole	15	B	500	diastole
584.2674999999999	0.0862504485994577	34	systole	1	B	500	systole
584.9676	0.0862504485994577	34	systole	2	B	500	systole
585.6675	0.0862504485994577	34	systole	3	B	500	systole
586.3476	0.0862504485994577	34	systole	4	B	500	systole
587.0475999999999	0.0862504485994577	34	systole	5	B	500	systole
587.7466999999997	0.0862504485994577	34	systole	6	B	500	systole
588.4366	0.0862504485994577	34	systole	7	B	500	systole
589.1107999999999	0.0862504485994577	34	systole	8	B	500	systole
589.7907	0.0862504485994577	34	systole	9	B	500	systole
590.4348	0.0862504485994577	34	systole	10	B	500	systole
591.0688999999998	0.0862504485994577	34	systole	11	B	500	systole
591.703	0.0862504485994577	34	systole	12	B	500	systole
592.3330000000001	0.0862504485994577	34	systole	13	B	500	systole
592.9630999999999	0.0862504485994577	34	systole	14	B	500	systole
596.5917	0.0818775679217651	35	diastole	1	B	500	systole
597.2316999999998	0.0818775679217651	35	diastole	2	B	500	systole
597.8843999999999	0.0818775679217651	35	diastole	3	B	500	systole
598.5358999999999	0.0818775679217651	35	diastole	4	B	500	systole
599.1873999999998	0.0818775679217651	35	diastole	5	B	500	systole
599.8743999999997	0.0818775679217651	35	diastole	6	B	500	systole
600.6628999999998	0.0818775679217651	35	diastole	7	B	500	systole
601.4396999999999	0.0818775679217651	35	diastole	8	B	500	systole
602.2080999999998	0.0818775679217651	35	diastole	9	B	500	systole
603.0742999999998	0.0818775679217651	35	diastole	10	B	500	systole
603.9027999999998	0.0818775679217651	35	diastole	11	B	500	systole
604.6729	0.0818775679217651	35	diastole	12	B	500	systole
605.4978000000001	0.0818775679217651	35	diastole	13	B	500	systole
609.9571999999998	0.0943599618040025	36	diastole	1	B	500	diastole
610.6471999999999	0.0943599618040025	36	diastole	2	B	500	diastole
611.3116999999997	0.0943599618040025	36	diastole	3	B	500	diastole
611.9850000000001	0.0943599618040025	36	diastole	4	B	500	diastole
612.6745000000001	0.0943599618040025	36	diastole	5	B	500	diastole
613.3296999999998	0.0943599618040025	36	diastole	6	B	500	diastole
614.0101	0.0943599618040025	36	diastole	7	B	500	diastole
614.6464000000001	0.0943599618040025	36	diastole	8	B	500	diastole
615.2892999999999	0.0943599618040025	36	diastole	9	B	500	diastole
615.8847999999998	0.0943599618040025	36	diastole	10	B	500	diastole
616.4776999999999	0.0943599618040025	36	diastole	11	B	500	diastole
617.0877	0.0943599618040025	36	diastole	12	B	500	diastole
617.6864999999998	0.0943599618040025	36	diastole	13	B	500	diastole
618.3363999999997	0.0943599618040025	36	diastole	14	B	500	diastole
618.9863999999998	0.0943599618040025	36	diastole	15	B	500	diastole
624.3761999999997	0.0831220936961472	37	diastole	1	B	500	diastole
625.0661999999998	0.0831220936961472	37	diastole	2	B	500	diastole
625.7629999999999	0.0831220936961472	37	diastole	3	B	500	diastole
626.3978999999999	0.0831220936961472	37	diastole	4	B	500	diastole
627.0578	0.0831220936961472	37	diastole	5	B	500	diastole
627.6875	0.0831220936961472	37	diastole	6	B	500	diastole
628.3076000000001	0.0831220936961472	37	diastole	7	B	500	diastole
628.9274999999998	0.0831220936961472	37	diastole	8	B	500	diastole
629.5293999999999	0.0831220936961472	37	diastole	9	B	500	diastole
630.1144999999997	0.0831220936961472	37	diastole	10	B	500	diastole
630.7563	0.0831220936961472	37	diastole	11	B	500	diastole
631.4063000000001	0.0831220936961472	37	diastole	12	B	500	diastole
632.0963999999999	0.0831220936961472	37	diastole	13	B	500	diastole
632.7862	0.0831220936961472	37	diastole	14	B	500	diastole
633.4663	0.0831220936961472	37	diastole	15	B	500	diastole
637.7098999999998	0.0900016999803483	38	systole	1	B	500	systole
638.4198000000001	0.0900016999803483	38	systole	2	B	500	systole
639.1197999999999	0.0900016999803483	38	systole	3	B	500	systole
639.7997	0.0900016999803483	38	systole	4	B	500	systole
640.4422999999997	0.0900016999803483	38	systole	5	B	500	systole
641.0965000000001	0.0900016999803483	38	systole	6	B	500	systole
641.7406000000001	0.0900016999803483	38	systole	7	B	500	systole
642.3905999999997	0.0900016999803483	38	systole	8	B	500	systole
643.0189999999998	0.0900016999803483	38	systole	9	B	500	systole
643.6097999999997	0.0900016999803483	38	systole	10	B	500	systole
644.2298999999998	0.0900016999803483	38	systole	11	B	500	systole
644.8539999999998	0.0900016999803483	38	systole	12	B	500	systole
645.4839999999999	0.0900016999803483	38	systole	13	B	500	systole
646.1554999999998	0.0900016999803483	38	systole	14	B	500	systole
646.8240000000001	0.0900016999803483	38	systole	15	B	500	systole
650.4389999999999	0.0849043937632814	39	systole	1	B	500	systole
651.1390999999999	0.0849043937632814	39	systole	2	B	500	systole
651.8508999999999	0.0849043937632814	39	systole	3	B	500	systole
652.5407999999998	0.0849043937632814	39	systole	4	B	500	systole
653.2107999999998	0.0849043937632814	39	systole	5	B	500	systole
653.8708999999999	0.0849043937632814	39	systole	6	B	500	systole
654.5389	0.0849043937632814	39	systole	7	B	500	systole
655.2188000000001	0.0849043937632814	39	systole	8	B	500	systole
655.9148999999998	0.0849043937632814	39	systole	9	B	500	systole
656.6048000000001	0.0849043937632814	39	systole	10	B	500	systole
657.2948999999999	0.0849043937632814	39	systole	11	B	500	systole
657.9850000000001	0.0849043937632814	39	systole	12	B	500	systole
658.6750999999999	0.0849043937632814	39	systole	13	B	500	systole
659.3334999999997	0.0849043937632814	39	systole	14	B	500	systole
660.0292999999997	0.0849043937632814	39	systole	15	B	500	systole
663.8098999999997	0.0862456984468735	40	diastole	1	B	500	diastole
664.4703	0.0862456984468735	40	diastole	2	B	500	diastole
665.1219999999998	0.0862456984468735	40	diastole	3	B	500	diastole
665.7734999999998	0.0862456984468735	40	diastole	4	B	500	diastole
666.4335000000001	0.0862456984468735	40	diastole	5	B	500	diastole
667.0861	0.0862456984468735	40	diastole	6	B	500	diastole
667.7556999999997	0.0862456984468735	40	diastole	7	B	500	diastole
668.3917999999999	0.0862456984468735	40	diastole	8	B	500	diastole
669.0396999999998	0.0862456984468735	40	diastole	9	B	500	diastole
669.6893999999998	0.0862456984468735	40	diastole	10	B	500	diastole
670.3593999999998	0.0862456984468735	40	diastole	11	B	500	diastole
671.0493000000001	0.0862456984468735	40	diastole	12	B	500	diastole
671.7392999999997	0.0862456984468735	40	diastole	13	B	500	diastole
672.4413	0.0862456984468735	40	diastole	14	B	500	diastole
676.8575999999998	0.0855116018210537	41	systole	1	B	500	diastole
677.5176999999999	0.0855116018210537	41	systole	2	B	500	diastole
678.1826999999998	0.0855116018210537	41	systole	3	B	500	diastole
678.8530999999998	0.0855116018210537	41	systole	4	B	500	diastole
679.5225999999998	0.0855116018210537	41	systole	5	B	500	diastole
680.1920999999998	0.0855116018210537	41	systole	6	B	500	diastole
680.8512000000001	0.0855116018210537	41	systole	7	B	500	diastole
681.5216999999998	0.0855116018210537	41	systole	8	B	500	diastole
682.1920999999998	0.0855116018210537	41	systole	9	B	500	diastole
682.8618999999999	0.0855116018210537	41	systole	10	B	500	diastole
683.4960999999998	0.0855116018210537	41	systole	11	B	500	diastole
684.1302999999998	0.0855116018210537	41	systole	12	B	500	diastole
684.7446	0.0855116018210537	41	systole	13	B	500	diastole
685.3530000000001	0.0855116018210537	41	systole	14	B	500	diastole
685.973	0.0855116018210537	41	systole	15	B	500	diastole
699.8098	0.0862481894437223	42	diastole	1	B	500	diastole
700.4794999999999	0.0862481894437223	42	diastole	2	B	500	diastole
701.1493	0.0862481894437223	42	diastole	3	B	500	diastole
701.7889999999998	0.0862481894437223	42	diastole	4	B	500	diastole
702.4286999999999	0.0862481894437223	42	diastole	5	B	500	diastole
703.0684000000001	0.0862481894437223	42	diastole	6	B	500	diastole
703.7181999999998	0.0862481894437223	42	diastole	7	B	500	diastole
704.3681999999999	0.0862481894437223	42	diastole	8	B	500	diastole
705.0430999999999	0.0862481894437223	42	diastole	9	B	500	diastole
705.7829999999999	0.0862481894437223	42	diastole	10	B	500	diastole
706.5228999999999	0.0862481894437223	42	diastole	11	B	500	diastole
707.2329	0.0862481894437223	42	diastole	12	B	500	diastole
708.0081	0.0862481894437223	42	diastole	13	B	500	diastole
708.788	0.0862481894437223	42	diastole	14	B	500	diastole
712.0236999999997	0.0900057212566025	43	systole	1	B	500	systole
712.6579999999999	0.0900057212566025	43	systole	2	B	500	systole
713.2981	0.0900057212566025	43	systole	3	B	500	systole
713.9429999999998	0.0900057212566025	43	systole	4	B	500	systole
714.623	0.0900057212566025	43	systole	5	B	500	systole
715.3029999999999	0.0900057212566025	43	systole	6	B	500	systole
715.9973	0.0900057212566025	43	systole	7	B	500	systole
716.6972999999998	0.0900057212566025	43	systole	8	B	500	systole
717.3973000000001	0.0900057212566025	43	systole	9	B	500	systole
718.0619999999999	0.0900057212566025	43	systole	10	B	500	systole
718.7318999999998	0.0900057212566025	43	systole	11	B	500	systole
719.4276	0.0900057212566025	43	systole	12	B	500	systole
720.1174999999998	0.0900057212566025	43	systole	13	B	500	systole
720.8031000000001	0.0900057212566025	43	systole	14	B	500	systole
724.9998	0.0831304002203978	44	diastole	1	B	500	diastole
725.6500000000001	0.0831304002203978	44	diastole	2	B	500	diastole
726.3002000000001	0.0831304002203978	44	diastole	3	B	500	diastole
726.9400999999998	0.0831304002203978	44	diastole	4	B	500	diastole
727.5636999999997	0.0831304002203978	44	diastole	5	B	500	diastole
728.1952000000001	0.0831304002203978	44	diastole	6	B	500	diastole
728.8350999999998	0.0831304002203978	44	diastole	7	B	500	diastole
729.4670999999998	0.0831304002203978	44	diastole	8	B	500	diastole
730.1246000000001	0.0831304002203978	44	diastole	9	B	500	diastole
730.7750000000001	0.0831304002203978	44	diastole	10	B	500	diastole
731.4247999999998	0.0831304002203978	44	diastole	11	B	500	diastole
732.0567999999998	0.0831304002203978	44	diastole	12	B	500	diastole
732.6967999999997	0.0831304002203978	44	diastole	13	B	500	diastole
733.3267000000001	0.0831304002203978	44	diastole	14	B	500	diastole
736.8566999999998	0.08000479999464	45	systole	1	B	500	systole
737.4967999999999	0.08000479999464	45	systole	2	B	500	systole
738.1109000000001	0.08000479999464	45	systole	3	B	500	systole
738.7309999999998	0.08000479999464	45	systole	4	B	500	systole
739.3510000000001	0.08000479999464	45	systole	5	B	500	systole
739.9708999999998	0.08000479999464	45	systole	6	B	500	systole
740.5951	0.08000479999464	45	systole	7	B	500	systole
741.2608999999998	0.08000479999464	45	systole	8	B	500	systole
741.9207999999999	0.08000479999464	45	systole	9	B	500	systole
742.5607999999997	0.08000479999464	45	systole	10	B	500	systole
743.2008999999998	0.08000479999464	45	systole	11	B	500	systole
743.8564999999999	0.08000479999464	45	systole	12	B	500	systole
744.5165999999999	0.08000479999464	45	systole	13	B	500	systole
745.2320999999997	0.08000479999464	45	systole	14	B	500	systole
745.942	0.08000479999464	45	systole	15	B	500	systole
751.0738999999999	0.0893775437725707	46	systole	1	B	500	diastole
751.7738999999997	0.0893775437725707	46	systole	2	B	500	diastole
752.4638	0.0893775437725707	46	systole	3	B	500	diastole
753.1221	0.0893775437725707	46	systole	4	B	500	diastole
753.7921000000001	0.0893775437725707	46	systole	5	B	500	diastole
754.4562999999998	0.0893775437725707	46	systole	6	B	500	diastole
755.1302999999998	0.0893775437725707	46	systole	7	B	500	diastole
755.7570999999998	0.0893775437725707	46	systole	8	B	500	diastole
756.4013	0.0893775437725707	46	systole	9	B	500	diastole
757.0511999999999	0.0893775437725707	46	systole	10	B	500	diastole
757.7012999999997	0.0893775437725707	46	systole	11	B	500	diastole
758.3354999999997	0.0893775437725707	46	systole	12	B	500	diastole
758.9894999999997	0.0893775437725707	46	systole	13	B	500	diastole
759.6435999999999	0.0893775437725707	46	systole	14	B	500	diastole
767.8231000000001	0.0849947319366037	47	systole	1	B	500	systole
768.4930999999997	0.0849947319366037	47	systole	2	B	500	systole
769.1731999999997	0.0849947319366037	47	systole	3	B	500	systole
769.8534	0.0849947319366037	47	systole	4	B	500	systole
770.5117999999998	0.0849947319366037	47	systole	5	B	500	systole
771.1817999999998	0.0849947319366037	47	systole	6	B	500	systole
771.8517999999999	0.0849947319366037	47	systole	7	B	500	systole
772.5218	0.0849947319366037	47	systole	8	B	500	systole
773.1718999999998	0.0849947319366037	47	systole	9	B	500	systole
773.8220999999999	0.0849947319366037	47	systole	10	B	500	systole
774.482	0.0849947319366037	47	systole	11	B	500	systole
775.1619999999998	0.0849947319366037	47	systole	12	B	500	systole
775.8420999999998	0.0849947319366037	47	systole	13	B	500	systole
776.5122000000001	0.0849947319366037	47	systole	14	B	500	systole
777.1659999999997	0.0849947319366037	47	systole	15	B	500	systole
780.0877	0.0837387185893021	48	diastole	1	B	500	systole
780.7377000000001	0.0837387185893021	48	diastole	2	B	500	systole
781.3894999999998	0.0837387185893021	48	diastole	3	B	500	systole
782.0493999999999	0.0837387185893021	48	diastole	4	B	500	systole
782.6891999999998	0.0837387185893021	48	diastole	5	B	500	systole
783.3292000000001	0.0837387185893021	48	diastole	6	B	500	systole
783.9692	0.0837387185893021	48	diastole	7	B	500	systole
784.6007999999997	0.0837387185893021	48	diastole	8	B	500	systole
785.1965999999998	0.0837387185893021	48	diastole	9	B	500	systole
785.8168999999998	0.0837387185893021	48	diastole	10	B	500	systole
786.4461999999999	0.0837387185893021	48	diastole	11	B	500	systole
787.0582999999997	0.0837387185893021	48	diastole	12	B	500	systole
787.6698999999999	0.0837387185893021	48	diastole	13	B	500	systole
788.2894000000001	0.0837387185893021	48	diastole	14	B	500	systole
788.9092999999998	0.0837387185893021	48	diastole	15	B	500	systole
789.5137	0.0837387185893021	48	diastole	16	B	500	systole
797.1295	0.0824880201835185	49	systole	1	B	500	systole
797.7896999999998	0.0824880201835185	49	systole	2	B	500	systole
798.4596999999999	0.0824880201835185	49	systole	3	B	500	systole
799.1396	0.0824880201835185	49	systole	4	B	500	systole
799.7896999999998	0.0824880201835185	49	systole	5	B	500	systole
800.4398000000001	0.0824880201835185	49	systole	6	B	500	systole
801.0899	0.0824880201835185	49	systole	7	B	500	systole
801.7498	0.0824880201835185	49	systole	8	B	500	systole
802.4097999999999	0.0824880201835185	49	systole	9	B	500	systole
803.0699	0.0824880201835185	49	systole	10	B	500	systole
803.7298999999998	0.0824880201835185	49	systole	11	B	500	systole
804.3899000000001	0.0824880201835185	49	systole	12	B	500	systole
805.0299	0.0824880201835185	49	systole	13	B	500	systole
805.6700000000001	0.0824880201835185	49	systole	14	B	500	systole
806.3004000000001	0.0824880201835185	49	systole	15	B	500	systole
809.0477000000001	0.079880632343702	50	diastole	1	B	500	diastole
809.6572999999999	0.079880632343702	50	diastole	2	B	500	diastole
810.2669000000001	0.079880632343702	50	diastole	3	B	500	diastole
810.8602000000001	0.079880632343702	50	diastole	4	B	500	diastole
811.4604999999997	0.079880632343702	50	diastole	5	B	500	diastole
812.0045999999998	0.079880632343702	50	diastole	6	B	500	diastole
812.5747000000001	0.079880632343702	50	diastole	7	B	500	diastole
813.1327000000001	0.079880632343702	50	diastole	8	B	500	diastole
813.7233000000001	0.079880632343702	50	diastole	9	B	500	diastole
814.3431999999998	0.079880632343702	50	diastole	10	B	500	diastole
814.9926999999998	0.079880632343702	50	diastole	11	B	500	diastole
815.6131	0.079880632343702	50	diastole	12	B	500	diastole
816.2426999999998	0.079880632343702	50	diastole	13	B	500	diastole
816.8791000000001	0.079880632343702	50	diastole	14	B	500	diastole
817.5436	0.079880632343702	50	diastole	15	B	500	diastole
818.2242000000001	0.079880632343702	50	diastole	16	B	500	diastole
822.7599999999998	0.0862499232171103	51	diastole	1	B	500	diastole
823.5101	0.0862499232171103	51	diastole	2	B	500	diastole
824.2568000000001	0.0862499232171103	51	diastole	3	B	500	diastole
825.0216	0.0862499232171103	51	diastole	4	B	500	diastole
825.7579999999998	0.0862499232171103	51	diastole	5	B	500	diastole
826.4778999999999	0.0862499232171103	51	diastole	6	B	500	diastole
827.1529999999998	0.0862499232171103	51	diastole	7	B	500	diastole
827.8712999999998	0.0862499232171103	51	diastole	8	B	500	diastole
828.5812999999998	0.0862499232171103	51	diastole	9	B	500	diastole
829.2511999999997	0.0862499232171103	51	diastole	10	B	500	diastole
829.9114999999997	0.0862499232171103	51	diastole	11	B	500	diastole
830.5446999999999	0.0862499232171103	51	diastole	12	B	500	diastole
831.1943000000001	0.0862499232171103	51	diastole	13	B	500	diastole
837.5149000000001	0.0837896916200406	52	systole	1	B	500	systole
838.2104999999997	0.0837896916200406	52	systole	2	B	500	systole
838.9007999999999	0.0837896916200406	52	systole	3	B	500	systole
839.5908999999997	0.0837896916200406	52	systole	4	B	500	systole
840.3024	0.0837896916200406	52	systole	5	B	500	systole
840.9665999999997	0.0837896916200406	52	systole	6	B	500	systole
841.6307999999999	0.0837896916200406	52	systole	7	B	500	systole
842.3008	0.0837896916200406	52	systole	8	B	500	systole
842.9746	0.0837896916200406	52	systole	9	B	500	systole
843.6542	0.0837896916200406	52	systole	10	B	500	systole
844.3337999999999	0.0837896916200406	52	systole	11	B	500	systole
845.0839999999998	0.0837896916200406	52	systole	12	B	500	systole
845.8343	0.0837896916200406	52	systole	13	B	500	systole
846.5998	0.0837896916200406	52	systole	14	B	500	systole
850.1538999999998	0.0893519856035709	53	systole	1	B	500	diastole
850.8179999999998	0.0893519856035709	53	systole	2	B	500	diastole
851.4908	0.0893519856035709	53	systole	3	B	500	diastole
852.1808000000001	0.0893519856035709	53	systole	4	B	500	diastole
852.8707999999997	0.0893519856035709	53	systole	5	B	500	diastole
853.5191	0.0893519856035709	53	systole	6	B	500	diastole
854.1776	0.0893519856035709	53	systole	7	B	500	diastole
854.8476	0.0893519856035709	53	systole	8	B	500	diastole
855.5274999999997	0.0893519856035709	53	systole	9	B	500	diastole
856.1916000000001	0.0893519856035709	53	systole	10	B	500	diastole
856.8415999999997	0.0893519856035709	53	systole	11	B	500	diastole
857.4917	0.0893519856035709	53	systole	12	B	500	diastole
858.1515999999997	0.0893519856035709	53	systole	13	B	500	diastole
858.8213999999998	0.0893519856035709	53	systole	14	B	500	diastole
859.4915000000001	0.0893519856035709	53	systole	15	B	500	diastole
864.4764	0.0837580687948502	54	diastole	1	B	500	diastole
865.1466999999998	0.0837580687948502	54	diastole	2	B	500	diastole
865.8168999999998	0.0837580687948502	54	diastole	3	B	500	diastole
866.4665	0.0837580687948502	54	diastole	4	B	500	diastole
867.1082000000001	0.0837580687948502	54	diastole	5	B	500	diastole
867.7968999999998	0.0837580687948502	54	diastole	6	B	500	diastole
868.4872999999998	0.0837580687948502	54	diastole	7	B	500	diastole
869.1772999999998	0.0837580687948502	54	diastole	8	B	500	diastole
869.8671999999997	0.0837580687948502	54	diastole	9	B	500	diastole
870.5470999999998	0.0837580687948502	54	diastole	10	B	500	diastole
871.2249999999999	0.0837580687948502	54	diastole	11	B	500	diastole
871.8950999999997	0.0837580687948502	54	diastole	12	B	500	diastole
872.5549999999998	0.0837580687948502	54	diastole	13	B	500	diastole
873.2149999999997	0.0837580687948502	54	diastole	14	B	500	diastole
890.3029999999999	0.0850037464406341	55	diastole	1	B	500	diastole
890.9924999999998	0.0850037464406341	55	diastole	2	B	500	diastole
891.6525999999999	0.0850037464406341	55	diastole	3	B	500	diastole
892.3127	0.0850037464406341	55	diastole	4	B	500	diastole
892.9773	0.0850037464406341	55	diastole	5	B	500	diastole
893.6376	0.0850037464406341	55	diastole	6	B	500	diastole
894.3056999999999	0.0850037464406341	55	diastole	7	B	500	diastole
894.9861000000001	0.0850037464406341	55	diastole	8	B	500	diastole
895.6664999999998	0.0850037464406341	55	diastole	9	B	500	diastole
896.3125	0.0850037464406341	55	diastole	10	B	500	diastole
896.9643000000001	0.0850037464406341	55	diastole	11	B	500	diastole
897.6079	0.0850037464406341	55	diastole	12	B	500	diastole
898.2478999999998	0.0850037464406341	55	diastole	13	B	500	diastole
898.8896999999997	0.0850037464406341	55	diastole	14	B	500	diastole
899.5216	0.0850037464406341	55	diastole	15	B	500	diastole
903.3168999999998	0.0806253920891322	56	diastole	1	B	500	systole
903.9568999999997	0.0806253920891322	56	diastole	2	B	500	systole
904.5969999999998	0.0806253920891322	56	diastole	3	B	500	systole
905.2370000000001	0.0806253920891322	56	diastole	4	B	500	systole
905.8969999999999	0.0806253920891322	56	diastole	5	B	500	systole
906.5569999999998	0.0806253920891322	56	diastole	6	B	500	systole
907.2147	0.0806253920891322	56	diastole	7	B	500	systole
907.8642999999997	0.0806253920891322	56	diastole	8	B	500	systole
908.5140000000001	0.0806253920891322	56	diastole	9	B	500	systole
909.174	0.0806253920891322	56	diastole	10	B	500	systole
909.8339000000001	0.0806253920891322	56	diastole	11	B	500	systole
910.4928	0.0806253920891322	56	diastole	12	B	500	systole
911.1713999999997	0.0806253920891322	56	diastole	13	B	500	systole
911.8591999999999	0.0806253920891322	56	diastole	14	B	500	systole
912.5594000000001	0.0806253920891322	56	diastole	15	B	500	systole
916.4312999999997	0.0837518132757395	57	diastole	1	B	500	diastole
917.0412999999999	0.0837518132757395	57	diastole	2	B	500	diastole
917.6367	0.0837518132757395	57	diastole	3	B	500	diastole
918.2183999999997	0.0837518132757395	57	diastole	4	B	500	diastole
918.8285000000001	0.0837518132757395	57	diastole	5	B	500	diastole
919.4234999999999	0.0837518132757395	57	diastole	6	B	500	diastole
920.0335999999998	0.0837518132757395	57	diastole	7	B	500	diastole
920.6349	0.0837518132757395	57	diastole	8	B	500	diastole
921.2368999999999	0.0837518132757395	57	diastole	9	B	500	diastole
921.8869	0.0837518132757395	57	diastole	10	B	500	diastole
922.5749999999998	0.0837518132757395	57	diastole	11	B	500	diastole
923.2550999999999	0.0837518132757395	57	diastole	12	B	500	diastole
923.9450999999999	0.0837518132757395	57	diastole	13	B	500	diastole
924.6351	0.0837518132757395	57	diastole	14	B	500	diastole
925.3519000000001	0.0837518132757395	57	diastole	15	B	500	diastole
931.3932	0.0850048862630501	58	systole	1	B	500	diastole
932.1205	0.0850048862630501	58	systole	2	B	500	diastole
932.8303999999998	0.0850048862630501	58	systole	3	B	500	diastole
933.5403000000001	0.0850048862630501	58	systole	4	B	500	diastole
934.2159999999999	0.0850048862630501	58	systole	5	B	500	diastole
934.8559999999998	0.0850048862630501	58	systole	6	B	500	diastole
935.4960000000001	0.0850048862630501	58	systole	7	B	500	diastole
936.1259999999997	0.0850048862630501	58	systole	8	B	500	diastole
936.7226999999998	0.0850048862630501	58	systole	9	B	500	diastole
937.2918999999997	0.0850048862630501	58	systole	10	B	500	diastole
937.9018999999998	0.0850048862630501	58	systole	11	B	500	diastole
938.5140999999999	0.0850048862630501	58	systole	12	B	500	diastole
939.1642999999999	0.0850048862630501	58	systole	13	B	500	diastole
939.8143999999998	0.0850048862630501	58	systole	14	B	500	diastole
940.4843999999998	0.0850048862630501	58	systole	15	B	500	diastole
947.1271999999999	0.0825079814530909	59	systole	1	B	500	systole
947.8029999999999	0.0825079814530909	59	systole	2	B	500	systole
948.4730999999997	0.0825079814530909	59	systole	3	B	500	systole
949.1331	0.0825079814530909	59	systole	4	B	500	systole
949.7831000000001	0.0825079814530909	59	systole	5	B	500	systole
950.4231	0.0825079814530909	59	systole	6	B	500	systole
951.0630999999998	0.0825079814530909	59	systole	7	B	500	systole
951.6931	0.0825079814530909	59	systole	8	B	500	systole
952.3155999999999	0.0825079814530909	59	systole	9	B	500	systole
952.9638999999997	0.0825079814530909	59	systole	10	B	500	systole
953.6239	0.0825079814530909	59	systole	11	B	500	systole
954.2837999999997	0.0825079814530909	59	systole	12	B	500	systole
954.9438	0.0825079814530909	59	systole	13	B	500	systole
955.6039000000001	0.0825079814530909	59	systole	14	B	500	systole
956.2640000000001	0.0825079814530909	59	systole	15	B	500	systole
966.9164000000001	0.0799929249915294	60	diastole	1	B	500	diastole
967.5663999999997	0.0799929249915294	60	diastole	2	B	500	diastole
968.2163999999998	0.0799929249915294	60	diastole	3	B	500	diastole
968.895	0.0799929249915294	60	diastole	4	B	500	diastole
969.565	0.0799929249915294	60	diastole	5	B	500	diastole
970.2231999999999	0.0799929249915294	60	diastole	6	B	500	diastole
970.8732	0.0799929249915294	60	diastole	7	B	500	diastole
971.5432000000001	0.0799929249915294	60	diastole	8	B	500	diastole
972.2131999999997	0.0799929249915294	60	diastole	9	B	500	diastole
972.8833	0.0799929249915294	60	diastole	10	B	500	diastole
973.5733	0.0799929249915294	60	diastole	11	B	500	diastole
974.2615999999998	0.0799929249915294	60	diastole	12	B	500	diastole
974.9582999999998	0.0799929249915294	60	diastole	13	B	500	diastole
975.6383999999998	0.0799929249915294	60	diastole	14	B	500	diastole
980.2496999999998	0.0830225457902997	61	diastole	1	B	500	systole
980.8998999999999	0.0830225457902997	61	diastole	2	B	500	systole
981.5319	0.0830225457902997	61	diastole	3	B	500	systole
982.172	0.0830225457902997	61	diastole	4	B	500	systole
982.8033	0.0830225457902997	61	diastole	5	B	500	systole
983.4429	0.0830225457902997	61	diastole	6	B	500	systole
984.0747999999999	0.0830225457902997	61	diastole	7	B	500	systole
984.7149	0.0830225457902997	61	diastole	8	B	500	systole
985.3467999999998	0.0830225457902997	61	diastole	9	B	500	systole
985.9966	0.0830225457902997	61	diastole	10	B	500	systole
986.6464999999998	0.0830225457902997	61	diastole	11	B	500	systole
987.2864	0.0830225457902997	61	diastole	12	B	500	systole
987.9260999999997	0.0830225457902997	61	diastole	13	B	500	systole
988.5657999999999	0.0830225457902997	61	diastole	14	B	500	systole
989.1958999999997	0.0830225457902997	61	diastole	15	B	500	systole
992.5945999999999	0.0787521331221796	62	systole	1	B	500	diastole
993.1990000000001	0.0787521331221796	62	systole	2	B	500	diastole
993.8091999999997	0.0787521331221796	62	systole	3	B	500	diastole
994.413	0.0787521331221796	62	systole	4	B	500	diastole
995.0528999999997	0.0787521331221796	62	systole	5	B	500	diastole
995.6929	0.0787521331221796	62	systole	6	B	500	diastole
996.3924999999999	0.0787521331221796	62	systole	7	B	500	diastole
997.1329000000001	0.0787521331221796	62	systole	8	B	500	diastole
997.8744999999999	0.0787521331221796	62	systole	9	B	500	diastole
998.6044999999999	0.0787521331221796	62	systole	10	B	500	diastole
999.4688000000001	0.0787521331221796	62	systole	11	B	500	diastole
1000.2689	0.0787521331221796	62	systole	12	B	500	diastole
1001.1034999999997	0.0787521331221796	62	systole	13	B	500	diastole
1001.9173000000001	0.0787521331221796	62	systole	14	B	500	diastole
1008.2071999999998	0.0887490966706536	63	systole	1	B	500	systole
1008.8453999999997	0.0887490966706536	63	systole	2	B	500	systole
1009.4953999999998	0.0887490966706536	63	systole	3	B	500	systole
1010.1288	0.0887490966706536	63	systole	4	B	500	systole
1010.7473	0.0887490966706536	63	systole	5	B	500	systole
1011.3557000000001	0.0887490966706536	63	systole	6	B	500	systole
1011.9638999999997	0.0887490966706536	63	systole	7	B	500	systole
1012.5580999999997	0.0887490966706536	63	systole	8	B	500	systole
1013.1190999999999	0.0887490966706536	63	systole	9	B	500	systole
1013.6931	0.0887490966706536	63	systole	10	B	500	systole
1014.2613999999999	0.0887490966706536	63	systole	11	B	500	systole
1014.8415	0.0887490966706536	63	systole	12	B	500	systole
1015.4040999999997	0.0887490966706536	63	systole	13	B	500	systole
1016.0038999999997	0.0887490966706536	63	systole	14	B	500	systole
1016.7439999999997	0.0887490966706536	63	systole	15	B	500	systole
1017.4841000000001	0.0887490966706536	63	systole	16	B	500	systole
1019.7415999999998	0.0762400124804116	64	systole	1	B	500	diastole
1020.5355999999997	0.0762400124804116	64	systole	2	B	500	diastole
1021.2655	0.0762400124804116	64	systole	3	B	500	diastole
1021.9753999999998	0.0762400124804116	64	systole	4	B	500	diastole
1022.6754999999998	0.0762400124804116	64	systole	5	B	500	diastole
1023.3553999999999	0.0762400124804116	64	systole	6	B	500	diastole
1024.0353	0.0762400124804116	64	systole	7	B	500	diastole
1024.6837	0.0762400124804116	64	systole	8	B	500	diastole
1025.3278	0.0762400124804116	64	systole	9	B	500	diastole
1025.9542000000001	0.0762400124804116	64	systole	10	B	500	diastole
1026.6041	0.0762400124804116	64	systole	11	B	500	diastole
1027.1933	0.0762400124804116	64	systole	12	B	500	diastole
1027.8233999999998	0.0762400124804116	64	systole	13	B	500	diastole
1028.4472999999998	0.0762400124804116	64	systole	14	B	500	diastole
1029.0344	0.0762400124804116	64	systole	15	B	500	diastole
1031.4645999999998	0.0787443387671373	65	systole	1	B	500	systole
1032.1245	0.0787443387671373	65	systole	2	B	500	systole
1032.8145	0.0787443387671373	65	systole	3	B	500	systole
1033.5245	0.0787443387671373	65	systole	4	B	500	systole
1034.2345	0.0787443387671373	65	systole	5	B	500	systole
1034.9611	0.0787443387671373	65	systole	6	B	500	systole
1035.6410999999998	0.0787443387671373	65	systole	7	B	500	systole
1036.3010999999997	0.0787443387671373	65	systole	8	B	500	systole
1036.9609999999998	0.0787443387671373	65	systole	9	B	500	systole
1037.591	0.0787443387671373	65	systole	10	B	500	systole
1038.2208999999998	0.0787443387671373	65	systole	11	B	500	systole
1038.8509	0.0787443387671373	65	systole	12	B	500	systole
1039.4692999999997	0.0787443387671373	65	systole	13	B	500	systole
1040.0877	0.0787443387671373	65	systole	14	B	500	systole
1040.6846	0.0787443387671373	65	systole	15	B	500	systole
1044.1895999999997	0.0787416623206809	66	diastole	1	B	500	diastole
1044.8793999999998	0.0787416623206809	66	diastole	2	B	500	diastole
1045.5594	0.0787416623206809	66	diastole	3	B	500	diastole
1046.2395999999999	0.0787416623206809	66	diastole	4	B	500	diastole
1046.9060999999997	0.0787416623206809	66	diastole	5	B	500	diastole
1047.556	0.0787416623206809	66	diastole	6	B	500	diastole
1048.2233999999999	0.0787416623206809	66	diastole	7	B	500	diastole
1048.9092999999998	0.0787416623206809	66	diastole	8	B	500	diastole
1049.5787999999998	0.0787416623206809	66	diastole	9	B	500	diastole
1050.2651	0.0787416623206809	66	diastole	10	B	500	diastole
1050.9454999999998	0.0787416623206809	66	diastole	11	B	500	diastole
1051.6441999999997	0.0787416623206809	66	diastole	12	B	500	diastole
1052.3337999999999	0.0787416623206809	66	diastole	13	B	500	diastole
1052.9962999999998	0.0787416623206809	66	diastole	14	B	500	diastole
1053.6558999999997	0.0787416623206809	66	diastole	15	B	500	diastole
1061.8447	0.0830957595608197	67	systole	1	B	500	systole
1062.5342	0.0830957595608197	67	systole	2	B	500	systole
1063.1846999999998	0.0830957595608197	67	systole	3	B	500	systole
1063.8147	0.0830957595608197	67	systole	4	B	500	systole
1064.4542999999999	0.0830957595608197	67	systole	5	B	500	systole
1065.054	0.0830957595608197	67	systole	6	B	500	systole
1065.6639	0.0830957595608197	67	systole	7	B	500	systole
1066.2738999999997	0.0830957595608197	67	systole	8	B	500	systole
1066.8773999999999	0.0830957595608197	67	systole	9	B	500	systole
1067.4595999999997	0.0830957595608197	67	systole	10	B	500	systole
1068.0596	0.0830957595608197	67	systole	11	B	500	systole
1068.6524	0.0830957595608197	67	systole	12	B	500	systole
1069.2923	0.0830957595608197	67	systole	13	B	500	systole
1069.9218	0.0830957595608197	67	systole	14	B	500	systole
1070.5522	0.0830957595608197	67	systole	15	B	500	systole
1073.6834	0.078606175025925	68	systole	1	B	500	systole
1074.2977	0.078606175025925	68	systole	2	B	500	systole
1074.9177	0.078606175025925	68	systole	3	B	500	systole
1075.5376	0.078606175025925	68	systole	4	B	500	systole
1076.1675	0.078606175025925	68	systole	5	B	500	systole
1076.7730999999999	0.078606175025925	68	systole	6	B	500	systole
1077.3928999999998	0.078606175025925	68	systole	7	B	500	systole
1077.9928999999997	0.078606175025925	68	systole	8	B	500	systole
1078.5928	0.078606175025925	68	systole	9	B	500	systole
1079.1913	0.078606175025925	68	systole	10	B	500	systole
1079.8013	0.078606175025925	68	systole	11	B	500	systole
1080.4270999999999	0.078606175025925	68	systole	12	B	500	systole
1081.1070999999997	0.078606175025925	68	systole	13	B	500	systole
1081.8271999999997	0.078606175025925	68	systole	14	B	500	systole
1082.5472999999997	0.078606175025925	68	systole	15	B	500	systole
1083.2675	0.078606175025925	68	systole	16	B	500	systole
1085.5964	0.0874935587053187	69	systole	1	B	500	systole
1086.2563999999998	0.0874935587053187	69	systole	2	B	500	systole
1086.9164	0.0874935587053187	69	systole	3	B	500	systole
1087.5663999999997	0.0874935587053187	69	systole	4	B	500	systole
1088.1891999999998	0.0874935587053187	69	systole	5	B	500	systole
1088.8294	0.0874935587053187	69	systole	6	B	500	systole
1089.4618999999998	0.0874935587053187	69	systole	7	B	500	systole
1090.1118999999999	0.0874935587053187	69	systole	8	B	500	systole
1090.7185	0.0874935587053187	69	systole	9	B	500	systole
1091.3483999999999	0.0874935587053187	69	systole	10	B	500	systole
1091.9784	0.0874935587053187	69	systole	11	B	500	systole
1092.6282	0.0874935587053187	69	systole	12	B	500	systole
1093.3197999999998	0.0874935587053187	69	systole	13	B	500	systole
1094.0113000000001	0.0874935587053187	69	systole	14	B	500	systole
1094.7028999999998	0.0874935587053187	69	systole	15	B	500	systole
1096.6598	0.0825090504949912	70	systole	1	B	500	diastole
1097.2898	0.0825090504949912	70	systole	2	B	500	diastole
1097.9099	0.0825090504949912	70	systole	3	B	500	diastole
1098.5339	0.0825090504949912	70	systole	4	B	500	diastole
1099.1462999999999	0.0825090504949912	70	systole	5	B	500	diastole
1099.7761999999998	0.0825090504949912	70	systole	6	B	500	diastole
1100.4062	0.0825090504949912	70	systole	7	B	500	diastole
1101.0362	0.0825090504949912	70	systole	8	B	500	diastole
1101.6704999999997	0.0825090504949912	70	systole	9	B	500	diastole
1102.3307	0.0825090504949912	70	systole	10	B	500	diastole
1102.9908999999998	0.0825090504949912	70	systole	11	B	500	diastole
1103.6608	0.0825090504949912	70	systole	12	B	500	diastole
1104.3305999999998	0.0825090504949912	70	systole	13	B	500	diastole
1105.0839999999998	0.0825090504949912	70	systole	14	B	500	diastole
1105.8255	0.0825090504949912	70	systole	15	B	500	diastole
1106.5553999999997	0.0825090504949912	70	systole	16	B	500	diastole
1118.0164999999997	0.0887491187313571	71	systole	1	B	500	systole
1118.6664999999998	0.0887491187313571	71	systole	2	B	500	systole
1119.2574	0.0887491187313571	71	systole	3	B	500	systole
1119.8773999999999	0.0887491187313571	71	systole	4	B	500	systole
1120.4858	0.0887491187313571	71	systole	5	B	500	systole
1121.0740999999998	0.0887491187313571	71	systole	6	B	500	systole
1121.6464999999998	0.0887491187313571	71	systole	7	B	500	systole
1122.219	0.0887491187313571	71	systole	8	B	500	systole
1122.8031	0.0887491187313571	71	systole	9	B	500	systole
1123.3914	0.0887491187313571	71	systole	10	B	500	systole
1124.0513999999998	0.0887491187313571	71	systole	11	B	500	systole
1124.7214	0.0887491187313571	71	systole	12	B	500	systole
1125.3912999999998	0.0887491187313571	71	systole	13	B	500	systole
1126.0612999999998	0.0887491187313571	71	systole	14	B	500	systole
1126.7316	0.0887491187313571	71	systole	15	B	500	systole
1129.6997999999999	0.0824924471089616	72	diastole	1	B	500	systole
1130.3246	0.0824924471089616	72	diastole	2	B	500	systole
1130.9645999999998	0.0824924471089616	72	diastole	3	B	500	systole
1131.5879	0.0824924471089616	72	diastole	4	B	500	systole
1132.2165	0.0824924471089616	72	diastole	5	B	500	systole
1132.8460999999998	0.0824924471089616	72	diastole	6	B	500	systole
1133.5063999999998	0.0824924471089616	72	diastole	7	B	500	systole
1134.1664999999998	0.0824924471089616	72	diastole	8	B	500	systole
1134.8361	0.0824924471089616	72	diastole	9	B	500	systole
1135.5056999999997	0.0824924471089616	72	diastole	10	B	500	systole
1136.1661	0.0824924471089616	72	diastole	11	B	500	systole
1136.8431	0.0824924471089616	72	diastole	12	B	500	systole
1137.5005	0.0824924471089616	72	diastole	13	B	500	systole
1138.1689999999999	0.0824924471089616	72	diastole	14	B	500	systole
1142.9263999999998	0.0831436641747132	73	diastole	1	B	500	diastole
1143.5962999999997	0.0831436641747132	73	diastole	2	B	500	diastole
1144.2377999999999	0.0831436641747132	73	diastole	3	B	500	diastole
1144.8876999999998	0.0831436641747132	73	diastole	4	B	500	diastole
1145.5194999999999	0.0831436641747132	73	diastole	5	B	500	diastole
1146.1895	0.0831436641747132	73	diastole	6	B	500	diastole
1146.8595	0.0831436641747132	73	diastole	7	B	500	diastole
1147.5495	0.0831436641747132	73	diastole	8	B	500	diastole
1148.2777	0.0831436641747132	73	diastole	9	B	500	diastole
1148.9562	0.0831436641747132	73	diastole	10	B	500	diastole
1149.6261999999997	0.0831436641747132	73	diastole	11	B	500	diastole
1150.3062999999997	0.0831436641747132	73	diastole	12	B	500	diastole
1150.9863	0.0831436641747132	73	diastole	13	B	500	diastole
1151.6664	0.0831436641747132	73	diastole	14	B	500	diastole
1155.0949999999998	0.0843933875439688	74	diastole	1	B	500	diastole
1155.7579	0.0843933875439688	74	diastole	2	B	500	diastole
1156.4265	0.0843933875439688	74	diastole	3	B	500	diastole
1157.1064000000001	0.0843933875439688	74	diastole	4	B	500	diastole
1157.7862999999998	0.0843933875439688	74	diastole	5	B	500	diastole
1158.4461999999999	0.0843933875439688	74	diastole	6	B	500	diastole
1159.1061	0.0843933875439688	74	diastole	7	B	500	diastole
1159.766	0.0843933875439688	74	diastole	8	B	500	diastole
1160.4146999999998	0.0843933875439688	74	diastole	9	B	500	diastole
1161.0493000000001	0.0843933875439688	74	diastole	10	B	500	diastole
1161.6893	0.0843933875439688	74	diastole	11	B	500	diastole
1162.3208999999997	0.0843933875439688	74	diastole	12	B	500	diastole
1162.9427	0.0843933875439688	74	diastole	13	B	500	diastole
1163.5641999999998	0.0843933875439688	74	diastole	14	B	500	diastole
1166.9748999999997	0.0787902996526099	75	systole	1	B	500	diastole
1167.6367999999998	0.0787902996526099	75	systole	2	B	500	diastole
1168.2986	0.0787902996526099	75	systole	3	B	500	diastole
1168.9796000000001	0.0787902996526099	75	systole	4	B	500	diastole
1169.6572999999999	0.0787902996526099	75	systole	5	B	500	diastole
1170.3480999999997	0.0787902996526099	75	systole	6	B	500	diastole
1171.0263	0.0787902996526099	75	systole	7	B	500	diastole
1171.6970999999999	0.0787902996526099	75	systole	8	B	500	diastole
1172.357	0.0787902996526099	75	systole	9	B	500	diastole
1173.0070999999998	0.0787902996526099	75	systole	10	B	500	diastole
1173.6572	0.0787902996526099	75	systole	11	B	500	diastole
1174.3168	0.0787902996526099	75	systole	12	B	500	diastole
1174.9762999999998	0.0787902996526099	75	systole	13	B	500	diastole
1175.6358999999998	0.0787902996526099	75	systole	14	B	500	diastole
1176.2817	0.0787902996526099	75	systole	15	B	500	diastole
1176.9215	0.0787902996526099	75	systole	16	B	500	diastole
1180.9598	0.0814615074777975	76	systole	1	B	500	diastole
1181.6698999999999	0.0814615074777975	76	systole	2	B	500	diastole
1182.3703	0.0814615074777975	76	systole	3	B	500	diastole
1183.0866999999998	0.0814615074777975	76	systole	4	B	500	diastole
1183.7795999999998	0.0814615074777975	76	systole	5	B	500	diastole
1184.4596999999999	0.0814615074777975	76	systole	6	B	500	diastole
1185.1295999999998	0.0814615074777975	76	systole	7	B	500	diastole
1185.7995999999998	0.0814615074777975	76	systole	8	B	500	diastole
1186.4697	0.0814615074777975	76	systole	9	B	500	diastole
1187.1138999999998	0.0814615074777975	76	systole	10	B	500	diastole
1187.7639	0.0814615074777975	76	systole	11	B	500	diastole
1188.3977999999997	0.0814615074777975	76	systole	12	B	500	diastole
1189.0362	0.0814615074777975	76	systole	13	B	500	diastole
1189.6862999999998	0.0814615074777975	76	systole	14	B	500	diastole
1190.3662999999997	0.0814615074777975	76	systole	15	B	500	diastole
1193.1113	0.0831270564813166	77	systole	1	B	500	systole
1193.8370999999997	0.0831270564813166	77	systole	2	B	500	systole
1194.5571	0.0831270564813166	77	systole	3	B	500	systole
1195.2586999999999	0.0831270564813166	77	systole	4	B	500	systole
1195.9386	0.0831270564813166	77	systole	5	B	500	systole
1196.6185999999998	0.0831270564813166	77	systole	6	B	500	systole
1197.2986	0.0831270564813166	77	systole	7	B	500	systole
1197.9627999999998	0.0831270564813166	77	systole	8	B	500	systole
1198.6428	0.0831270564813166	77	systole	9	B	500	systole
1199.3127	0.0831270564813166	77	systole	10	B	500	systole
1199.9631	0.0831270564813166	77	systole	11	B	500	systole
1200.6167999999998	0.0831270564813166	77	systole	12	B	500	systole
1201.2615	0.0831270564813166	77	systole	13	B	500	systole
1201.9112999999998	0.0831270564813166	77	systole	14	B	500	systole
1202.5812999999998	0.0831270564813166	77	systole	15	B	500	systole
1206.2471	0.0830617874162271	78	diastole	1	B	500	diastole
1206.9359	0.0830617874162271	78	diastole	2	B	500	diastole
1207.616	0.0830617874162271	78	diastole	3	B	500	diastole
1208.2763999999997	0.0830617874162271	78	diastole	4	B	500	diastole
1208.9364999999998	0.0830617874162271	78	diastole	5	B	500	diastole
1209.5965999999999	0.0830617874162271	78	diastole	6	B	500	diastole
1210.2848	0.0830617874162271	78	diastole	7	B	500	diastole
1211.0034	0.0830617874162271	78	diastole	8	B	500	diastole
1211.7134	0.0830617874162271	78	diastole	9	B	500	diastole
1212.3833999999997	0.0830617874162271	78	diastole	10	B	500	diastole
1213.0533	0.0830617874162271	78	diastole	11	B	500	diastole
1213.7433	0.0830617874162271	78	diastole	12	B	500	diastole
1214.4615	0.0830617874162271	78	diastole	13	B	500	diastole
1215.1713999999997	0.0830617874162271	78	diastole	14	B	500	diastole
1215.9062	0.0830617874162271	78	diastole	15	B	500	diastole
1221.9564	0.0843857345171272	79	diastole	1	B	500	diastole
1222.6263	0.0843857345171272	79	diastole	2	B	500	diastole
1223.2961999999998	0.0843857345171272	79	diastole	3	B	500	diastole
1223.9663999999998	0.0843857345171272	79	diastole	4	B	500	diastole
1224.6365	0.0843857345171272	79	diastole	5	B	500	diastole
1225.3363999999997	0.0843857345171272	79	diastole	6	B	500	diastole
1226.0263999999997	0.0843857345171272	79	diastole	7	B	500	diastole
1226.7147999999997	0.0843857345171272	79	diastole	8	B	500	diastole
1227.3946999999998	0.0843857345171272	79	diastole	9	B	500	diastole
1228.1030999999998	0.0843857345171272	79	diastole	10	B	500	diastole
1228.8029999999999	0.0843857345171272	79	diastole	11	B	500	diastole
1229.5128999999997	0.0843857345171272	79	diastole	12	B	500	diastole
1230.208	0.0843857345171272	79	diastole	13	B	500	diastole
1237.5149000000001	0.08626937167719	80	systole	1	B	500	systole
1238.1848999999997	0.08626937167719	80	systole	2	B	500	systole
1238.8348999999998	0.08626937167719	80	systole	3	B	500	systole
1239.4849	0.08626937167719	80	systole	4	B	500	systole
1240.1173	0.08626937167719	80	systole	5	B	500	systole
1240.7673	0.08626937167719	80	systole	6	B	500	systole
1241.3899000000001	0.08626937167719	80	systole	7	B	500	systole
1242.0079999999998	0.08626937167719	80	systole	8	B	500	systole
1242.6223	0.08626937167719	80	systole	9	B	500	systole
1243.2423	0.08626937167719	80	systole	10	B	500	systole
1243.8464	0.08626937167719	80	systole	11	B	500	systole
1244.4503999999997	0.08626937167719	80	systole	12	B	500	systole
1245.0430999999999	0.08626937167719	80	systole	13	B	500	systole
1245.6531999999997	0.08626937167719	80	systole	14	B	500	systole
1246.2930000000001	0.08626937167719	80	systole	15	B	500	systole
1246.933	0.08626937167719	80	systole	16	B	500	systole
1250.7666	0.0800102003850042	81	systole	1	B	500	systole
1251.3851	0.0800102003850042	81	systole	2	B	500	systole
1252.0065999999997	0.0800102003850042	81	systole	3	B	500	systole
1252.6149999999998	0.0800102003850042	81	systole	4	B	500	systole
1253.2233999999999	0.0800102003850042	81	systole	5	B	500	systole
1253.8635	0.0800102003850042	81	systole	6	B	500	systole
1254.5735	0.0800102003850042	81	systole	7	B	500	systole
1255.2734	0.0800102003850042	81	systole	8	B	500	systole
1255.9643	0.0800102003850042	81	systole	9	B	500	systole
1256.6542999999997	0.0800102003850042	81	systole	10	B	500	systole
1257.3392	0.0800102003850042	81	systole	11	B	500	systole
1258.0193	0.0800102003850042	81	systole	12	B	500	systole
1258.7401	0.0800102003850042	81	systole	13	B	500	systole
1259.4499999999998	0.0800102003850042	81	systole	14	B	500	systole
1260.1482999999998	0.0800102003850042	81	systole	15	B	500	systole
1264.5926	0.0862505200202576	82	diastole	1	B	500	systole
1265.2327	0.0862505200202576	82	diastole	2	B	500	systole
1265.8728	0.0862505200202576	82	diastole	3	B	500	systole
1266.4942	0.0862505200202576	82	diastole	4	B	500	systole
1267.1066	0.0862505200202576	82	diastole	5	B	500	systole
1267.7116999999998	0.0862505200202576	82	diastole	6	B	500	systole
1268.3136999999997	0.0862505200202576	82	diastole	7	B	500	systole
1268.9215	0.0862505200202576	82	diastole	8	B	500	systole
1269.5515	0.0862505200202576	82	diastole	9	B	500	systole
1270.1801	0.0862505200202576	82	diastole	10	B	500	systole
1270.7898999999998	0.0862505200202576	82	diastole	11	B	500	systole
1271.4096999999997	0.0862505200202576	82	diastole	12	B	500	systole
1272.0194999999999	0.0862505200202576	82	diastole	13	B	500	systole
1272.6598	0.0862505200202576	82	diastole	14	B	500	systole
1273.2997999999998	0.0862505200202576	82	diastole	15	B	500	systole
1275.4991999999997	0.078739023709204	83	systole	1	B	500	diastole
1276.1192	0.078739023709204	83	systole	2	B	500	diastole
1276.7392	0.078739023709204	83	systole	3	B	500	diastole
1277.3591999999999	0.078739023709204	83	systole	4	B	500	diastole
1277.9816	0.078739023709204	83	systole	5	B	500	diastole
1278.6032999999998	0.078739023709204	83	systole	6	B	500	diastole
1279.2179	0.078739023709204	83	systole	7	B	500	diastole
1279.8379999999997	0.078739023709204	83	systole	8	B	500	diastole
1280.4595999999997	0.078739023709204	83	systole	9	B	500	diastole
1281.0812	0.078739023709204	83	systole	10	B	500	diastole
1281.7091999999998	0.078739023709204	83	systole	11	B	500	diastole
1282.3375	0.078739023709204	83	systole	12	B	500	diastole
1282.9692	0.078739023709204	83	systole	13	B	500	diastole
1283.6079	0.078739023709204	83	systole	14	B	500	diastole
1284.2379	0.078739023709204	83	systole	15	B	500	diastole
1284.8703999999998	0.078739023709204	83	systole	16	B	500	diastole
1289.1933	0.0806248623412102	84	diastole	1	B	500	systole
1289.8545	0.0806248623412102	84	diastole	2	B	500	systole
1290.5144999999998	0.0806248623412102	84	diastole	3	B	500	systole
1291.1808	0.0806248623412102	84	diastole	4	B	500	systole
1291.8494999999998	0.0806248623412102	84	diastole	5	B	500	systole
1292.5297999999998	0.0806248623412102	84	diastole	6	B	500	systole
1293.21	0.0806248623412102	84	diastole	7	B	500	systole
1293.9002999999998	0.0806248623412102	84	diastole	8	B	500	systole
1294.5904	0.0806248623412102	84	diastole	9	B	500	systole
1295.2804	0.0806248623412102	84	diastole	10	B	500	systole
1295.9989999999998	0.0806248623412102	84	diastole	11	B	500	systole
1296.7169	0.0806248623412102	84	diastole	12	B	500	systole
1297.4134	0.0806248623412102	84	diastole	13	B	500	systole
1306.7064	0.0837478095781989	85	diastole	1	B	500	diastole
1307.3665	0.0837478095781989	85	diastole	2	B	500	diastole
1308.0263999999997	0.0837478095781989	85	diastole	3	B	500	diastole
1308.6864999999998	0.0837478095781989	85	diastole	4	B	500	diastole
1309.3564999999999	0.0837478095781989	85	diastole	5	B	500	diastole
1310.0463999999997	0.0837478095781989	85	diastole	6	B	500	diastole
1310.7363999999998	0.0837478095781989	85	diastole	7	B	500	diastole
1311.3962999999999	0.0837478095781989	85	diastole	8	B	500	diastole
1312.0483	0.0837478095781989	85	diastole	9	B	500	diastole
1312.6999	0.0837478095781989	85	diastole	10	B	500	diastole
1313.3597999999997	0.0837478095781989	85	diastole	11	B	500	diastole
1314.0112	0.0837478095781989	85	diastole	12	B	500	diastole
1314.6526	0.0837478095781989	85	diastole	13	B	500	diastole
1315.2941999999998	0.0837478095781989	85	diastole	14	B	500	diastole
1323.3377999999998	0.0812338488176465	86	systole	1	B	500	systole
1323.9777	0.0812338488176465	86	systole	2	B	500	systole
1324.6281	0.0812338488176465	86	systole	3	B	500	systole
1325.2678999999998	0.0812338488176465	86	systole	4	B	500	systole
1325.9078999999997	0.0812338488176465	86	systole	5	B	500	systole
1326.5679	0.0812338488176465	86	systole	6	B	500	systole
1327.2278999999999	0.0812338488176465	86	systole	7	B	500	systole
1327.9281999999998	0.0812338488176465	86	systole	8	B	500	systole
1328.6736999999998	0.0812338488176465	86	systole	9	B	500	systole
1329.4132999999997	0.0812338488176465	86	systole	10	B	500	systole
1330.1567999999997	0.0812338488176465	86	systole	11	B	500	systole
1330.8770999999997	0.0812338488176465	86	systole	12	B	500	systole
1331.6064000000001	0.0812338488176465	86	systole	13	B	500	systole
1332.304	0.0812338488176465	86	systole	14	B	500	systole
1349.4964999999997	0.0875141501310281	87	systole	1	B	500	diastole
1350.2060000000001	0.0875141501310281	87	systole	2	B	500	diastole
1350.8745	0.0875141501310281	87	systole	3	B	500	diastole
1351.5807	0.0875141501310281	87	systole	4	B	500	diastole
1352.2909	0.0875141501310281	87	systole	5	B	500	diastole
1353.0009999999997	0.0875141501310281	87	systole	6	B	500	diastole
1353.7109	0.0875141501310281	87	systole	7	B	500	diastole
1354.3804999999998	0.0875141501310281	87	systole	8	B	500	diastole
1355.0501	0.0875141501310281	87	systole	9	B	500	diastole
1355.7197	0.0875141501310281	87	systole	10	B	500	diastole
1356.3739	0.0875141501310281	87	systole	11	B	500	diastole
1357.0322999999999	0.0875141501310281	87	systole	12	B	500	diastole
1357.7026	0.0875141501310281	87	systole	13	B	500	diastole
1358.3728	0.0875141501310281	87	systole	14	B	500	diastole
1359.0430999999999	0.0875141501310281	87	systole	15	B	500	diastole
1371.6196999999997	0.0900047844625078	88	systole	1	B	500	diastole
1372.3096999999998	0.0900047844625078	88	systole	2	B	500	diastole
1372.9895999999999	0.0900047844625078	88	systole	3	B	500	diastole
1373.6497	0.0900047844625078	88	systole	4	B	500	diastole
1374.3096	0.0900047844625078	88	systole	5	B	500	diastole
1374.9719999999998	0.0900047844625078	88	systole	6	B	500	diastole
1375.6187999999997	0.0900047844625078	88	systole	7	B	500	diastole
1376.2828999999997	0.0900047844625078	88	systole	8	B	500	diastole
1376.9314999999997	0.0900047844625078	88	systole	9	B	500	diastole
1377.5915999999997	0.0900047844625078	88	systole	10	B	500	diastole
1378.2736	0.0900047844625078	88	systole	11	B	500	diastole
1378.9631	0.0900047844625078	88	systole	12	B	500	diastole
1379.6491	0.0900047844625078	88	systole	13	B	500	diastole
1380.3292999999999	0.0900047844625078	88	systole	14	B	500	diastole
1381.0564	0.0900047844625078	88	systole	15	B	500	diastole
1393.1997000000001	0.0862535375053994	89	diastole	1	B	500	diastole
1393.8599	0.0862535375053994	89	diastole	2	B	500	diastole
1394.5209999999997	0.0862535375053994	89	diastole	3	B	500	diastole
1395.1906	0.0862535375053994	89	diastole	4	B	500	diastole
1395.8631	0.0862535375053994	89	diastole	5	B	500	diastole
1396.5241	0.0862535375053994	89	diastole	6	B	500	diastole
1397.1938999999998	0.0862535375053994	89	diastole	7	B	500	diastole
1397.8651999999997	0.0862535375053994	89	diastole	8	B	500	diastole
1398.5452	0.0862535375053994	89	diastole	9	B	500	diastole
1399.2350999999999	0.0862535375053994	89	diastole	10	B	500	diastole
1399.9251	0.0862535375053994	89	diastole	11	B	500	diastole
1400.6153999999997	0.0862535375053994	89	diastole	12	B	500	diastole
1401.3038999999999	0.0862535375053994	89	diastole	13	B	500	diastole
1402.0122000000001	0.0862535375053994	89	diastole	14	B	500	diastole
1419.3062	0.0874907066463492	90	diastole	1	B	500	systole
1420.0063999999998	0.0874907066463492	90	diastole	2	B	500	systole
1420.6882	0.0874907066463492	90	diastole	3	B	500	systole
1421.3678999999997	0.0874907066463492	90	diastole	4	B	500	systole
1422.0479	0.0874907066463492	90	diastole	5	B	500	systole
1422.7098	0.0874907066463492	90	diastole	6	B	500	systole
1423.3896999999997	0.0874907066463492	90	diastole	7	B	500	systole
1424.0414999999998	0.0874907066463492	90	diastole	8	B	500	systole
1424.6931	0.0874907066463492	90	diastole	9	B	500	systole
1425.3645999999999	0.0874907066463492	90	diastole	10	B	500	systole
1426.0546999999997	0.0874907066463492	90	diastole	11	B	500	systole
1426.743	0.0874907066463492	90	diastole	12	B	500	systole
1427.4062	0.0874907066463492	90	diastole	13	B	500	systole
1428.0679999999998	0.0874907066463492	90	diastole	14	B	500	systole
1428.7379999999998	0.0874907066463492	90	diastole	15	B	500	systole
1431.9778999999999	0.0837440935429185	91	diastole	1	B	500	diastole
1432.6113999999998	0.0837440935429185	91	diastole	2	B	500	diastole
1433.2613999999999	0.0837440935429185	91	diastole	3	B	500	diastole
1433.9209999999998	0.0837440935429185	91	diastole	4	B	500	diastole
1434.5913999999998	0.0837440935429185	91	diastole	5	B	500	diastole
1435.2513	0.0837440935429185	91	diastole	6	B	500	diastole
1435.8928999999998	0.0837440935429185	91	diastole	7	B	500	diastole
1436.5427	0.0837440935429185	91	diastole	8	B	500	diastole
1437.1846999999998	0.0837440935429185	91	diastole	9	B	500	diastole
1437.8325	0.0837440935429185	91	diastole	10	B	500	diastole
1438.4805000000001	0.0837440935429185	91	diastole	11	B	500	diastole
1439.1108	0.0837440935429185	91	diastole	12	B	500	diastole
1439.7410999999997	0.0837440935429185	91	diastole	13	B	500	diastole
1440.3692	0.0837440935429185	91	diastole	14	B	500	diastole
1441.0227	0.0837440935429185	91	diastole	15	B	500	diastole
1461.7359000000001	0.076235081302002	92	diastole	1	B	500	systole
1462.3559999999998	0.076235081302002	92	diastole	2	B	500	systole
1462.9868000000001	0.076235081302002	92	diastole	3	B	500	systole
1463.6151	0.076235081302002	92	diastole	4	B	500	systole
1464.2529	0.076235081302002	92	diastole	5	B	500	systole
1464.8813	0.076235081302002	92	diastole	6	B	500	systole
1465.5182	0.076235081302002	92	diastole	7	B	500	systole
1466.1549	0.076235081302002	92	diastole	8	B	500	systole
1466.7849	0.076235081302002	92	diastole	9	B	500	systole
1467.415	0.076235081302002	92	diastole	10	B	500	systole
1468.0553999999997	0.076235081302002	92	diastole	11	B	500	systole
1468.6952999999999	0.076235081302002	92	diastole	12	B	500	systole
1469.3566999999998	0.076235081302002	92	diastole	13	B	500	systole
1470.0167000000001	0.076235081302002	92	diastole	14	B	500	systole
1470.7332000000001	0.076235081302002	92	diastole	15	B	500	systole
1473.1655	0.0824998062453232	93	systole	1	B	500	systole
1473.8354999999997	0.0824998062453232	93	systole	2	B	500	systole
1474.5513999999998	0.0824998062453232	93	systole	3	B	500	systole
1475.2570999999998	0.0824998062453232	93	systole	4	B	500	systole
1475.9569999999999	0.0824998062453232	93	systole	5	B	500	systole
1476.6270999999997	0.0824998062453232	93	systole	6	B	500	systole
1477.3071	0.0824998062453232	93	systole	7	B	500	systole
1477.9969999999998	0.0824998062453232	93	systole	8	B	500	systole
1478.7244	0.0824998062453232	93	systole	9	B	500	systole
1479.4301999999998	0.0824998062453232	93	systole	10	B	500	systole
1480.1302999999998	0.0824998062453232	93	systole	11	B	500	systole
1480.8002999999999	0.0824998062453232	93	systole	12	B	500	systole
1481.4645	0.0824998062453232	93	systole	13	B	500	systole
1482.1385999999998	0.0824998062453232	93	systole	14	B	500	systole
1486.1513	0.084377963503357	94	systole	1	B	500	systole
1486.7912000000001	0.084377963503357	94	systole	2	B	500	systole
1487.4312999999997	0.084377963503357	94	systole	3	B	500	systole
1488.0713	0.084377963503357	94	systole	4	B	500	systole
1488.7152999999998	0.084377963503357	94	systole	5	B	500	systole
1489.3278999999998	0.084377963503357	94	systole	6	B	500	systole
1489.958	0.084377963503357	94	systole	7	B	500	systole
1490.5922	0.084377963503357	94	systole	8	B	500	systole
1491.2264	0.084377963503357	94	systole	9	B	500	systole
1491.8663999999999	0.084377963503357	94	systole	10	B	500	systole
1492.5164	0.084377963503357	94	systole	11	B	500	systole
1493.1862999999998	0.084377963503357	94	systole	12	B	500	systole
1493.862	0.084377963503357	94	systole	13	B	500	systole
1494.5319999999997	0.084377963503357	94	systole	14	B	500	systole
1495.2019999999998	0.084377963503357	94	systole	15	B	500	systole
1495.9119	0.084377963503357	94	systole	16	B	500	systole
1501.3887999999997	0.0850029562134295	95	systole	1	B	500	systole
1502.0488	0.0850029562134295	95	systole	2	B	500	systole
1502.7262999999998	0.0850029562134295	95	systole	3	B	500	systole
1503.4263	0.0850029562134295	95	systole	4	B	500	systole
1504.0962999999997	0.0850029562134295	95	systole	5	B	500	systole
1504.7664	0.0850029562134295	95	systole	6	B	500	systole
1505.4314999999997	0.0850029562134295	95	systole	7	B	500	systole
1506.1014	0.0850029562134295	95	systole	8	B	500	systole
1506.8662999999997	0.0850029562134295	95	systole	9	B	500	systole
1507.6263	0.0850029562134295	95	systole	10	B	500	systole
1508.3665	0.0850029562134295	95	systole	11	B	500	systole
1509.0765000000001	0.0850029562134295	95	systole	12	B	500	systole
1509.7866	0.0850029562134295	95	systole	13	B	500	systole
1510.4865999999997	0.0850029562134295	95	systole	14	B	500	systole
1513.3177	0.0862474570167251	96	diastole	1	B	500	diastole
1513.9393	0.0862474570167251	96	diastole	2	B	500	diastole
1514.5245	0.0862474570167251	96	diastole	3	B	500	diastole
1515.1529	0.0862474570167251	96	diastole	4	B	500	diastole
1515.7761	0.0862474570167251	96	diastole	5	B	500	diastole
1516.4362	0.0862474570167251	96	diastole	6	B	500	diastole
1517.1046999999999	0.0862474570167251	96	diastole	7	B	500	diastole
1517.7747	0.0862474570167251	96	diastole	8	B	500	diastole
1518.4447999999998	0.0862474570167251	96	diastole	9	B	500	diastole
1519.1147999999998	0.0862474570167251	96	diastole	10	B	500	diastole
1519.8028999999997	0.0862474570167251	96	diastole	11	B	500	diastole
1520.5067	0.0862474570167251	96	diastole	12	B	500	diastole
1521.2035	0.0862474570167251	96	diastole	13	B	500	diastole
1521.9042999999997	0.0862474570167251	96	diastole	14	B	500	diastole
1522.5913999999998	0.0862474570167251	96	diastole	15	B	500	diastole
1525.9678	0.0843724498990923	97	diastole	1	B	500	systole
1526.6277	0.0843724498990923	97	diastole	2	B	500	systole
1527.2592999999997	0.0843724498990923	97	diastole	3	B	500	systole
1527.8995	0.0843724498990923	97	diastole	4	B	500	systole
1528.5493999999999	0.0843724498990923	97	diastole	5	B	500	systole
1529.2194	0.0843724498990923	97	diastole	6	B	500	systole
1529.8793	0.0843724498990923	97	diastole	7	B	500	systole
1530.5393	0.0843724498990923	97	diastole	8	B	500	systole
1531.1891999999998	0.0843724498990923	97	diastole	9	B	500	systole
1531.8309	0.0843724498990923	97	diastole	10	B	500	systole
1532.4809	0.0843724498990923	97	diastole	11	B	500	systole
1533.1408999999999	0.0843724498990923	97	diastole	12	B	500	systole
1533.8107999999997	0.0843724498990923	97	diastole	13	B	500	systole
1534.4793	0.0843724498990923	97	diastole	14	B	500	systole
1535.1594	0.0843724498990923	97	diastole	15	B	500	systole
1546.9261999999999	0.0887475500348955	98	systole	1	B	500	diastole
1547.6064999999999	0.0887475500348955	98	systole	2	B	500	diastole
1548.2867	0.0887475500348955	98	systole	3	B	500	diastole
1548.9564999999998	0.0887475500348955	98	systole	4	B	500	diastole
1549.6108	0.0887475500348955	98	systole	5	B	500	diastole
1550.2592	0.0887475500348955	98	systole	6	B	500	diastole
1550.9234000000001	0.0887475500348955	98	systole	7	B	500	diastole
1551.6349999999998	0.0887475500348955	98	systole	8	B	500	diastole
1552.3534	0.0887475500348955	98	systole	9	B	500	diastole
1553.0749999999998	0.0887475500348955	98	systole	10	B	500	diastole
1553.7849999999999	0.0887475500348955	98	systole	11	B	500	diastole
1554.495	0.0887475500348955	98	systole	12	B	500	diastole
1555.2041	0.0887475500348955	98	systole	13	B	500	diastole
1555.8995999999997	0.0887475500348955	98	systole	14	B	500	diastole
1556.5899	0.0887475500348955	98	systole	15	B	500	diastole
1560.3098	0.0867810809868387	99	diastole	1	B	500	systole
1560.9697999999999	0.0867810809868387	99	diastole	2	B	500	systole
1561.6131	0.0867810809868387	99	diastole	3	B	500	systole
1562.2561	0.0867810809868387	99	diastole	4	B	500	systole
1562.8977999999997	0.0867810809868387	99	diastole	5	B	500	systole
1563.5396999999998	0.0867810809868387	99	diastole	6	B	500	systole
1564.1893999999998	0.0867810809868387	99	diastole	7	B	500	systole
1564.8691	0.0867810809868387	99	diastole	8	B	500	systole
1565.5492	0.0867810809868387	99	diastole	9	B	500	systole
1566.2291999999998	0.0867810809868387	99	diastole	10	B	500	systole
1566.8991	0.0867810809868387	99	diastole	11	B	500	systole
1567.5778	0.0867810809868387	99	diastole	12	B	500	systole
1568.2478999999998	0.0867810809868387	99	diastole	13	B	500	systole
1568.9373	0.0867810809868387	99	diastole	14	B	500	systole
1571.6264	0.0837819924927316	100	diastole	1	B	500	systole
1572.3064	0.0837819924927316	100	diastole	2	B	500	systole
1572.9865999999997	0.0837819924927316	100	diastole	3	B	500	systole
1573.6666999999998	0.0837819924927316	100	diastole	4	B	500	systole
1574.3163999999997	0.0837819924927316	100	diastole	5	B	500	systole
1574.9665	0.0837819924927316	100	diastole	6	B	500	systole
1575.6264	0.0837819924927316	100	diastole	7	B	500	systole
1576.2660999999998	0.0837819924927316	100	diastole	8	B	500	systole
1576.8980999999999	0.0837819924927316	100	diastole	9	B	500	systole
1577.5499	0.0837819924927316	100	diastole	10	B	500	systole
1578.2098999999998	0.0837819924927316	100	diastole	11	B	500	systole
1578.8698999999997	0.0837819924927316	100	diastole	12	B	500	systole
1579.5297999999998	0.0837819924927316	100	diastole	13	B	500	systole
1580.1718	0.0837819924927316	100	diastole	14	B	500	systole
1580.8217999999997	0.0837819924927316	100	diastole	15	B	500	systole
