onset	duration	trial_num	trial_type	tone_num	tone_type	frequency	response
182.2086	0.0787359796813689	1	systole	1	A	1578.5670027440333	coherent
182.3687	0.0787359796813689	1	systole	2	B	500.0	coherent
182.5286	0.0787359796813689	1	systole	3	A	1578.5670027440333	coherent
182.8632	0.0787359796813689	1	systole	4	A	1578.5670027440333	coherent
183.0246	0.0787359796813689	1	systole	5	B	500.0	coherent
183.1857	0.0787359796813689	1	systole	6	A	1578.5670027440333	coherent
183.5031	0.0787359796813689	1	systole	7	A	1578.5670027440333	coherent
183.6645	0.0787359796813689	1	systole	8	B	500.0	coherent
183.8256	0.0787359796813689	1	systole	9	A	1578.5670027440333	coherent
184.1431	0.0787359796813689	1	systole	10	A	1578.5670027440333	coherent
184.3045	0.0787359796813689	1	systole	11	B	500.0	coherent
184.4656	0.0787359796813689	1	systole	12	A	1578.5670027440333	coherent
184.7832	0.0787359796813689	1	systole	13	A	1578.5670027440333	coherent
184.9446	0.0787359796813689	1	systole	14	B	500.0	coherent
185.1057	0.0787359796813689	1	systole	15	A	1578.5670027440333	coherent
185.3885	0.0787359796813689	1	systole	16	A	1578.5670027440333	coherent
185.5487	0.0787359796813689	1	systole	17	B	500.0	coherent
185.7085	0.0787359796813689	1	systole	18	A	1578.5670027440333	coherent
185.9986	0.0787359796813689	1	systole	19	A	1578.5670027440333	coherent
186.1588	0.0787359796813689	1	systole	20	B	500.0	coherent
186.3186	0.0787359796813689	1	systole	21	A	1578.5670027440333	coherent
186.604	0.0787359796813689	1	systole	22	A	1578.5670027440333	coherent
186.7629	0.0787359796813689	1	systole	23	B	500.0	coherent
186.9215	0.0787359796813689	1	systole	24	A	1578.5670027440333	coherent
187.2096	0.0787359796813689	1	systole	25	A	1578.5670027440333	coherent
187.3673	0.0787359796813689	1	systole	26	B	500.0	coherent
187.5246	0.0787359796813689	1	systole	27	A	1578.5670027440333	coherent
187.8197	0.0787359796813689	1	systole	28	A	1578.5670027440333	coherent
187.9773	0.0787359796813689	1	systole	29	B	500.0	coherent
188.1347	0.0787359796813689	1	systole	30	A	1578.5670027440333	coherent
188.4105	0.0787359796813689	1	systole	31	A	1578.5670027440333	coherent
188.5657	0.0787359796813689	1	systole	32	B	500.0	coherent
188.7206	0.0787359796813689	1	systole	33	A	1578.5670027440333	coherent
188.9914	0.0787359796813689	1	systole	34	A	1578.5670027440333	coherent
189.144	0.0787359796813689	1	systole	35	B	500.0	coherent
189.2964	0.0787359796813689	1	systole	36	A	1578.5670027440333	coherent
189.5914	0.0787359796813689	1	systole	37	A	1578.5670027440333	coherent
189.7441	0.0787359796813689	1	systole	38	B	500.0	coherent
189.8964	0.0787359796813689	1	systole	39	A	1578.5670027440333	coherent
190.2012	0.0787359796813689	1	systole	40	A	1578.5670027440333	coherent
190.3539	0.0787359796813689	1	systole	41	B	500.0	coherent
190.5062	0.0787359796813689	1	systole	42	A	1578.5670027440333	coherent
190.8111	0.0787359796813689	1	systole	43	A	1578.5670027440333	coherent
190.9638	0.0787359796813689	1	systole	44	B	500.0	coherent
191.1161	0.0787359796813689	1	systole	45	A	1578.5670027440333	coherent
191.4112	0.0787359796813689	1	systole	46	A	1578.5670027440333	coherent
191.5639	0.0787359796813689	1	systole	47	B	500.0	coherent
191.7162	0.0787359796813689	1	systole	48	A	1578.5670027440333	coherent
215.384	0.0806169627176132	2	systole	1	A	2180.0224995339627	coherent
215.5428	0.0806169627176132	2	systole	2	B	500.0	coherent
215.7015	0.0806169627176132	2	systole	3	A	2180.0224995339627	coherent
216.0139	0.0806169627176132	2	systole	4	A	2180.0224995339627	coherent
216.1727	0.0806169627176132	2	systole	5	B	500.0	coherent
216.3314	0.0806169627176132	2	systole	6	A	2180.0224995339627	coherent
216.654	0.0806169627176132	2	systole	7	A	2180.0224995339627	coherent
216.8128	0.0806169627176132	2	systole	8	B	500.0	coherent
216.9715	0.0806169627176132	2	systole	9	A	2180.0224995339627	coherent
217.304	0.0806169627176132	2	systole	10	A	2180.0224995339627	coherent
217.4628	0.0806169627176132	2	systole	11	B	500.0	coherent
217.6215	0.0806169627176132	2	systole	12	A	2180.0224995339627	coherent
217.9443	0.0806169627176132	2	systole	13	A	2180.0224995339627	coherent
218.1031	0.0806169627176132	2	systole	14	B	500.0	coherent
218.2618	0.0806169627176132	2	systole	15	A	2180.0224995339627	coherent
218.5845	0.0806169627176132	2	systole	16	A	2180.0224995339627	coherent
218.7433	0.0806169627176132	2	systole	17	B	500.0	coherent
218.902	0.0806169627176132	2	systole	18	A	2180.0224995339627	coherent
219.2342	0.0806169627176132	2	systole	19	A	2180.0224995339627	coherent
219.393	0.0806169627176132	2	systole	20	B	500.0	coherent
219.5518	0.0806169627176132	2	systole	21	A	2180.0224995339627	coherent
219.9038	0.0806169627176132	2	systole	22	A	2180.0224995339627	coherent
220.065	0.0806169627176132	2	systole	23	B	500.0	coherent
220.2262	0.0806169627176132	2	systole	24	A	2180.0224995339627	coherent
220.5642	0.0806169627176132	2	systole	25	A	2180.0224995339627	coherent
220.7255	0.0806169627176132	2	systole	26	B	500.0	coherent
220.8867	0.0806169627176132	2	systole	27	A	2180.0224995339627	coherent
221.2201	0.0806169627176132	2	systole	28	A	2180.0224995339627	coherent
221.3826	0.0806169627176132	2	systole	29	B	500.0	coherent
221.545	0.0806169627176132	2	systole	30	A	2180.0224995339627	coherent
221.8716	0.0806169627176132	2	systole	31	A	2180.0224995339627	coherent
222.0341	0.0806169627176132	2	systole	32	B	500.0	coherent
222.1965	0.0806169627176132	2	systole	33	A	2180.0224995339627	coherent
222.5201	0.0806169627176132	2	systole	34	A	2180.0224995339627	coherent
222.6826	0.0806169627176132	2	systole	35	B	500.0	coherent
222.845	0.0806169627176132	2	systole	36	A	2180.0224995339627	coherent
223.1685	0.0806169627176132	2	systole	37	A	2180.0224995339627	coherent
223.331	0.0806169627176132	2	systole	38	B	500.0	coherent
223.4934	0.0806169627176132	2	systole	39	A	2180.0224995339627	coherent
223.8188	0.0806169627176132	2	systole	40	A	2180.0224995339627	coherent
223.9813	0.0806169627176132	2	systole	41	B	500.0	coherent
224.1437	0.0806169627176132	2	systole	42	A	2180.0224995339627	coherent
224.4586	0.0806169627176132	2	systole	43	A	2180.0224995339627	coherent
224.6211	0.0806169627176132	2	systole	44	B	500.0	coherent
224.7835	0.0806169627176132	2	systole	45	A	2180.0224995339627	coherent
225.0964	0.0806169627176132	2	systole	46	A	2180.0224995339627	coherent
225.2588	0.0806169627176132	2	systole	47	B	500.0	coherent
225.421	0.0806169627176132	2	systole	48	A	2180.0224995339627	coherent
230.3644	0.0787405053561087	3	diastole	1	A	1578.5670027440333	coherent
230.522	0.0787405053561087	3	diastole	2	B	500.0	coherent
230.6793	0.0787405053561087	3	diastole	3	A	1578.5670027440333	coherent
231.0144	0.0787405053561087	3	diastole	4	A	1578.5670027440333	coherent
231.1721	0.0787405053561087	3	diastole	5	B	500.0	coherent
231.3294	0.0787405053561087	3	diastole	6	A	1578.5670027440333	coherent
231.6645	0.0787405053561087	3	diastole	7	A	1578.5670027440333	coherent
231.8222	0.0787405053561087	3	diastole	8	B	500.0	coherent
231.9795	0.0787405053561087	3	diastole	9	A	1578.5670027440333	coherent
232.3047	0.0787405053561087	3	diastole	10	A	1578.5670027440333	coherent
232.4624	0.0787405053561087	3	diastole	11	B	500.0	coherent
232.6197	0.0787405053561087	3	diastole	12	A	1578.5670027440333	coherent
232.9447	0.0787405053561087	3	diastole	13	A	1578.5670027440333	coherent
233.1024	0.0787405053561087	3	diastole	14	B	500.0	coherent
233.2597	0.0787405053561087	3	diastole	15	A	1578.5670027440333	coherent
233.6087	0.0787405053561087	3	diastole	16	A	1578.5670027440333	coherent
233.7689	0.0787405053561087	3	diastole	17	B	500.0	coherent
233.9287	0.0787405053561087	3	diastole	18	A	1578.5670027440333	coherent
234.2587	0.0787405053561087	3	diastole	19	A	1578.5670027440333	coherent
234.4188	0.0787405053561087	3	diastole	20	B	500.0	coherent
234.5787	0.0787405053561087	3	diastole	21	A	1578.5670027440333	coherent
234.8887	0.0787405053561087	3	diastole	22	A	1578.5670027440333	coherent
235.0489	0.0787405053561087	3	diastole	23	B	500.0	coherent
235.2087	0.0787405053561087	3	diastole	24	A	1578.5670027440333	coherent
235.4987	0.0787405053561087	3	diastole	25	A	1578.5670027440333	coherent
235.6589	0.0787405053561087	3	diastole	26	B	500.0	coherent
235.8187	0.0787405053561087	3	diastole	27	A	1578.5670027440333	coherent
236.0888	0.0787405053561087	3	diastole	28	A	1578.5670027440333	coherent
236.249	0.0787405053561087	3	diastole	29	B	500.0	coherent
236.4088	0.0787405053561087	3	diastole	30	A	1578.5670027440333	coherent
236.6888	0.0787405053561087	3	diastole	31	A	1578.5670027440333	coherent
236.8489	0.0787405053561087	3	diastole	32	B	500.0	coherent
237.0087	0.0787405053561087	3	diastole	33	A	1578.5670027440333	coherent
237.2814	0.0787405053561087	3	diastole	34	A	1578.5670027440333	coherent
237.4404	0.0787405053561087	3	diastole	35	B	500.0	coherent
237.5989	0.0787405053561087	3	diastole	36	A	1578.5670027440333	coherent
237.8709	0.0787405053561087	3	diastole	37	A	1578.5670027440333	coherent
238.0261	0.0787405053561087	3	diastole	38	B	500.0	coherent
238.181	0.0787405053561087	3	diastole	39	A	1578.5670027440333	coherent
238.4769	0.0787405053561087	3	diastole	40	A	1578.5670027440333	coherent
238.6296	0.0787405053561087	3	diastole	41	B	500.0	coherent
238.782	0.0787405053561087	3	diastole	42	A	1578.5670027440333	coherent
239.097	0.0787405053561087	3	diastole	43	A	1578.5670027440333	coherent
239.2498	0.0787405053561087	3	diastole	44	B	500.0	coherent
239.4021	0.0787405053561087	3	diastole	45	A	1578.5670027440333	coherent
239.7171	0.0787405053561087	3	diastole	46	A	1578.5670027440333	coherent
239.8698	0.0787405053561087	3	diastole	47	B	500.0	coherent
240.0222	0.0787405053561087	3	diastole	48	A	1578.5670027440333	coherent
243.0361	0.0768922698043752	4	systole	1	A	1987.9452401467304	coherent
243.1897	0.0768922698043752	4	systole	2	B	500.0	coherent
243.3436	0.0768922698043752	4	systole	3	A	1987.9452401467304	coherent
243.636	0.0768922698043752	4	systole	4	A	1987.9452401467304	coherent
243.7896	0.0768922698043752	4	systole	5	B	500.0	coherent
243.9434	0.0768922698043752	4	systole	6	A	1987.9452401467304	coherent
244.2358	0.0768922698043752	4	systole	7	A	1987.9452401467304	coherent
244.3895	0.0768922698043752	4	systole	8	B	500.0	coherent
244.5433	0.0768922698043752	4	systole	9	A	1987.9452401467304	coherent
244.8532	0.0768922698043752	4	systole	10	A	1987.9452401467304	coherent
245.0057	0.0768922698043752	4	systole	11	B	500.0	coherent
245.1583	0.0768922698043752	4	systole	12	A	1987.9452401467304	coherent
245.4752	0.0768922698043752	4	systole	13	A	1987.9452401467304	coherent
245.6276	0.0768922698043752	4	systole	14	B	500.0	coherent
245.7802	0.0768922698043752	4	systole	15	A	1987.9452401467304	coherent
246.0951	0.0768922698043752	4	systole	16	A	1987.9452401467304	coherent
246.2476	0.0768922698043752	4	systole	17	B	500.0	coherent
246.4002	0.0768922698043752	4	systole	18	A	1987.9452401467304	coherent
246.7152	0.0768922698043752	4	systole	19	A	1987.9452401467304	coherent
246.8677	0.0768922698043752	4	systole	20	B	500.0	coherent
247.0202	0.0768922698043752	4	systole	21	A	1987.9452401467304	coherent
247.3353	0.0768922698043752	4	systole	22	A	1987.9452401467304	coherent
247.4877	0.0768922698043752	4	systole	23	B	500.0	coherent
247.6403	0.0768922698043752	4	systole	24	A	1987.9452401467304	coherent
247.9683	0.0768922698043752	4	systole	25	A	1987.9452401467304	coherent
248.122	0.0768922698043752	4	systole	26	B	500.0	coherent
248.2758	0.0768922698043752	4	systole	27	A	1987.9452401467304	coherent
248.5781	0.0768922698043752	4	systole	28	A	1987.9452401467304	coherent
248.7318	0.0768922698043752	4	systole	29	B	500.0	coherent
248.8856	0.0768922698043752	4	systole	30	A	1987.9452401467304	coherent
249.1879	0.0768922698043752	4	systole	31	A	1987.9452401467304	coherent
249.3416	0.0768922698043752	4	systole	32	B	500.0	coherent
249.4954	0.0768922698043752	4	systole	33	A	1987.9452401467304	coherent
249.7978	0.0768922698043752	4	systole	34	A	1987.9452401467304	coherent
249.9515	0.0768922698043752	4	systole	35	B	500.0	coherent
250.1052	0.0768922698043752	4	systole	36	A	1987.9452401467304	coherent
250.4076	0.0768922698043752	4	systole	37	A	1987.9452401467304	coherent
250.5613	0.0768922698043752	4	systole	38	B	500.0	coherent
250.7151	0.0768922698043752	4	systole	39	A	1987.9452401467304	coherent
251.0322	0.0768922698043752	4	systole	40	A	1987.9452401467304	coherent
251.1871	0.0768922698043752	4	systole	41	B	500.0	coherent
251.3422	0.0768922698043752	4	systole	42	A	1987.9452401467304	coherent
251.6522	0.0768922698043752	4	systole	43	A	1987.9452401467304	coherent
251.8072	0.0768922698043752	4	systole	44	B	500.0	coherent
251.9622	0.0768922698043752	4	systole	45	A	1987.9452401467304	coherent
252.2723	0.0768922698043752	4	systole	46	A	1987.9452401467304	coherent
252.4272	0.0768922698043752	4	systole	47	B	500.0	coherent
252.5823	0.0768922698043752	4	systole	48	A	1987.9452401467304	coherent
257.4161	0.0762427883746568	5	diastole	1	A	2180.0224995339627	coherent
257.5687	0.0762427883746568	5	diastole	2	B	500.0	coherent
257.7211	0.0762427883746568	5	diastole	3	A	2180.0224995339627	coherent
258.0561	0.0762427883746568	5	diastole	4	A	2180.0224995339627	coherent
258.2087	0.0762427883746568	5	diastole	5	B	500.0	coherent
258.3611	0.0762427883746568	5	diastole	6	A	2180.0224995339627	coherent
258.6962	0.0762427883746568	5	diastole	7	A	2180.0224995339627	coherent
258.8487	0.0762427883746568	5	diastole	8	B	500.0	coherent
259.0012	0.0762427883746568	5	diastole	9	A	2180.0224995339627	coherent
259.3363	0.0762427883746568	5	diastole	10	A	2180.0224995339627	coherent
259.4888	0.0762427883746568	5	diastole	11	B	500.0	coherent
259.6413	0.0762427883746568	5	diastole	12	A	2180.0224995339627	coherent
259.9733	0.0762427883746568	5	diastole	13	A	2180.0224995339627	coherent
260.1271	0.0762427883746568	5	diastole	14	B	500.0	coherent
260.2808	0.0762427883746568	5	diastole	15	A	2180.0224995339627	coherent
260.6345	0.0762427883746568	5	diastole	16	A	2180.0224995339627	coherent
260.7921	0.0762427883746568	5	diastole	17	B	500.0	coherent
260.9495	0.0762427883746568	5	diastole	18	A	2180.0224995339627	coherent
261.2745	0.0762427883746568	5	diastole	19	A	2180.0224995339627	coherent
261.4321	0.0762427883746568	5	diastole	20	B	500.0	coherent
261.5895	0.0762427883746568	5	diastole	21	A	2180.0224995339627	coherent
261.9216	0.0762427883746568	5	diastole	22	A	2180.0224995339627	coherent
262.0804	0.0762427883746568	5	diastole	23	B	500.0	coherent
262.2391	0.0762427883746568	5	diastole	24	A	2180.0224995339627	coherent
262.5617	0.0762427883746568	5	diastole	25	A	2180.0224995339627	coherent
262.7205	0.0762427883746568	5	diastole	26	B	500.0	coherent
262.8792	0.0762427883746568	5	diastole	27	A	2180.0224995339627	coherent
263.1817	0.0762427883746568	5	diastole	28	A	2180.0224995339627	coherent
263.3405	0.0762427883746568	5	diastole	29	B	500.0	coherent
263.4992	0.0762427883746568	5	diastole	30	A	2180.0224995339627	coherent
263.8017	0.0762427883746568	5	diastole	31	A	2180.0224995339627	coherent
263.9605	0.0762427883746568	5	diastole	32	B	500.0	coherent
264.1192	0.0762427883746568	5	diastole	33	A	2180.0224995339627	coherent
264.4218	0.0762427883746568	5	diastole	34	A	2180.0224995339627	coherent
264.5805	0.0762427883746568	5	diastole	35	B	500.0	coherent
264.7393	0.0762427883746568	5	diastole	36	A	2180.0224995339627	coherent
265.0418	0.0762427883746568	5	diastole	37	A	2180.0224995339627	coherent
265.2005	0.0762427883746568	5	diastole	38	B	500.0	coherent
265.3592	0.0762427883746568	5	diastole	39	A	2180.0224995339627	coherent
265.6617	0.0762427883746568	5	diastole	40	A	2180.0224995339627	coherent
265.8205	0.0762427883746568	5	diastole	41	B	500.0	coherent
265.9792	0.0762427883746568	5	diastole	42	A	2180.0224995339627	coherent
266.2476	0.0762427883746568	5	diastole	43	A	2180.0224995339627	coherent
266.4039	0.0762427883746568	5	diastole	44	B	500.0	coherent
266.5601	0.0762427883746568	5	diastole	45	A	2180.0224995339627	coherent
276.4945	0.0737454154877923	6	systole	1	A	2942.014383864825	coherent
276.642	0.0737454154877923	6	systole	2	B	500.0	coherent
276.7895	0.0737454154877923	6	systole	3	A	2942.014383864825	coherent
277.0845	0.0737454154877923	6	systole	4	A	2942.014383864825	coherent
277.232	0.0737454154877923	6	systole	5	B	500.0	coherent
277.3795	0.0737454154877923	6	systole	6	A	2942.014383864825	coherent
277.6745	0.0737454154877923	6	systole	7	A	2942.014383864825	coherent
277.8221	0.0737454154877923	6	systole	8	B	500.0	coherent
277.9695	0.0737454154877923	6	systole	9	A	2942.014383864825	coherent
278.2645	0.0737454154877923	6	systole	10	A	2942.014383864825	coherent
278.4121	0.0737454154877923	6	systole	11	B	500.0	coherent
278.5595	0.0737454154877923	6	systole	12	A	2942.014383864825	coherent
278.8529	0.0737454154877923	6	systole	13	A	2942.014383864825	coherent
279.0004	0.0737454154877923	6	systole	14	B	500.0	coherent
279.1479	0.0737454154877923	6	systole	15	A	2942.014383864825	coherent
279.4429	0.0737454154877923	6	systole	16	A	2942.014383864825	coherent
279.5904	0.0737454154877923	6	systole	17	B	500.0	coherent
279.7379	0.0737454154877923	6	systole	18	A	2942.014383864825	coherent
280.0329	0.0737454154877923	6	systole	19	A	2942.014383864825	coherent
280.1804	0.0737454154877923	6	systole	20	B	500.0	coherent
280.3279	0.0737454154877923	6	systole	21	A	2942.014383864825	coherent
280.6228	0.0737454154877923	6	systole	22	A	2942.014383864825	coherent
280.7704	0.0737454154877923	6	systole	23	B	500.0	coherent
280.9178	0.0737454154877923	6	systole	24	A	2942.014383864825	coherent
281.2329	0.0737454154877923	6	systole	25	A	2942.014383864825	coherent
281.3804	0.0737454154877923	6	systole	26	B	500.0	coherent
281.5279	0.0737454154877923	6	systole	27	A	2942.014383864825	coherent
281.8336	0.0737454154877923	6	systole	28	A	2942.014383864825	coherent
281.9813	0.0737454154877923	6	systole	29	B	500.0	coherent
282.129	0.0737454154877923	6	systole	30	A	2942.014383864825	coherent
282.4481	0.0737454154877923	6	systole	31	A	2942.014383864825	coherent
282.5971	0.0737454154877923	6	systole	32	B	500.0	coherent
282.746	0.0737454154877923	6	systole	33	A	2942.014383864825	coherent
283.058	0.0737454154877923	6	systole	34	A	2942.014383864825	coherent
283.207	0.0737454154877923	6	systole	35	B	500.0	coherent
283.3559	0.0737454154877923	6	systole	36	A	2942.014383864825	coherent
283.6473	0.0737454154877923	6	systole	37	A	2942.014383864825	coherent
283.7961	0.0737454154877923	6	systole	38	B	500.0	coherent
283.9448	0.0737454154877923	6	systole	39	A	2942.014383864825	coherent
284.2374	0.0737454154877923	6	systole	40	A	2942.014383864825	coherent
284.3861	0.0737454154877923	6	systole	41	B	500.0	coherent
284.5349	0.0737454154877923	6	systole	42	A	2942.014383864825	coherent
284.8273	0.0737454154877923	6	systole	43	A	2942.014383864825	coherent
284.9761	0.0737454154877923	6	systole	44	B	500.0	coherent
285.1248	0.0737454154877923	6	systole	45	A	2942.014383864825	coherent
285.4173	0.0737454154877923	6	systole	46	A	2942.014383864825	coherent
285.566	0.0737454154877923	6	systole	47	B	500.0	coherent
285.7148	0.0737454154877923	6	systole	48	A	2942.014383864825	coherent
286.0027	0.0737454154877923	6	systole	49	A	2942.014383864825	coherent
286.1502	0.0737454154877923	6	systole	50	B	500.0	coherent
286.2977	0.0737454154877923	6	systole	51	A	2942.014383864825	coherent
408.914	0.0781231322325766	7	systole	1	A	2446.423693900757	coherent
409.0729	0.0781231322325766	7	systole	2	B	500.0	coherent
409.2315	0.0781231322325766	7	systole	3	A	2446.423693900757	coherent
409.5585	0.0781231322325766	7	systole	4	A	2446.423693900757	coherent
409.7186	0.0781231322325766	7	systole	5	B	500.0	coherent
409.8784	0.0781231322325766	7	systole	6	A	2446.423693900757	coherent
410.2185	0.0781231322325766	7	systole	7	A	2446.423693900757	coherent
410.3787	0.0781231322325766	7	systole	8	B	500.0	coherent
410.5385	0.0781231322325766	7	systole	9	A	2446.423693900757	coherent
410.8785	0.0781231322325766	7	systole	10	A	2446.423693900757	coherent
411.0387	0.0781231322325766	7	systole	11	B	500.0	coherent
411.1985	0.0781231322325766	7	systole	12	A	2446.423693900757	coherent
411.5386	0.0781231322325766	7	systole	13	A	2446.423693900757	coherent
411.6987	0.0781231322325766	7	systole	14	B	500.0	coherent
411.8585	0.0781231322325766	7	systole	15	A	2446.423693900757	coherent
412.2087	0.0781231322325766	7	systole	16	A	2446.423693900757	coherent
412.3688	0.0781231322325766	7	systole	17	B	500.0	coherent
412.5286	0.0781231322325766	7	systole	18	A	2446.423693900757	coherent
412.8787	0.0781231322325766	7	systole	19	A	2446.423693900757	coherent
413.0388	0.0781231322325766	7	systole	20	B	500.0	coherent
413.1987	0.0781231322325766	7	systole	21	A	2446.423693900757	coherent
413.5486	0.0781231322325766	7	systole	22	A	2446.423693900757	coherent
413.7088	0.0781231322325766	7	systole	23	B	500.0	coherent
413.8686	0.0781231322325766	7	systole	24	A	2446.423693900757	coherent
414.2121	0.0781231322325766	7	systole	25	A	2446.423693900757	coherent
414.376	0.0781231322325766	7	systole	26	B	500.0	coherent
414.5395	0.0781231322325766	7	systole	27	A	2446.423693900757	coherent
414.8619	0.0781231322325766	7	systole	28	A	2446.423693900757	coherent
415.0258	0.0781231322325766	7	systole	29	B	500.0	coherent
415.1894	0.0781231322325766	7	systole	30	A	2446.423693900757	coherent
415.502	0.0781231322325766	7	systole	31	A	2446.423693900757	coherent
415.6659	0.0781231322325766	7	systole	32	B	500.0	coherent
415.8294	0.0781231322325766	7	systole	33	A	2446.423693900757	coherent
416.1473	0.0781231322325766	7	systole	34	A	2446.423693900757	coherent
416.3099	0.0781231322325766	7	systole	35	B	500.0	coherent
416.4723	0.0781231322325766	7	systole	36	A	2446.423693900757	coherent
416.7773	0.0781231322325766	7	systole	37	A	2446.423693900757	coherent
416.9399	0.0781231322325766	7	systole	38	B	500.0	coherent
417.1022	0.0781231322325766	7	systole	39	A	2446.423693900757	coherent
417.4072	0.0781231322325766	7	systole	40	A	2446.423693900757	coherent
417.5699	0.0781231322325766	7	systole	41	B	500.0	coherent
417.7322	0.0781231322325766	7	systole	42	A	2446.423693900757	coherent
418.0373	0.0781231322325766	7	systole	43	A	2446.423693900757	coherent
418.1999	0.0781231322325766	7	systole	44	B	500.0	coherent
418.3622	0.0781231322325766	7	systole	45	A	2446.423693900757	coherent
422.6746	0.0781410437775775	8	diastole	1	A	1987.9452401467304	coherent
422.8321	0.0781410437775775	8	diastole	2	B	500.0	coherent
422.9897	0.0781410437775775	8	diastole	3	A	1987.9452401467304	coherent
423.3146	0.0781410437775775	8	diastole	4	A	1987.9452401467304	coherent
423.4721	0.0781410437775775	8	diastole	5	B	500.0	coherent
423.6296	0.0781410437775775	8	diastole	6	A	1987.9452401467304	coherent
423.9887	0.0781410437775775	8	diastole	7	A	1987.9452401467304	coherent
424.1486	0.0781410437775775	8	diastole	8	B	500.0	coherent
424.3087	0.0781410437775775	8	diastole	9	A	1987.9452401467304	coherent
424.6487	0.0781410437775775	8	diastole	10	A	1987.9452401467304	coherent
424.8086	0.0781410437775775	8	diastole	11	B	500.0	coherent
424.9687	0.0781410437775775	8	diastole	12	A	1987.9452401467304	coherent
425.3127	0.0781410437775775	8	diastole	13	A	1987.9452401467304	coherent
425.4751	0.0781410437775775	8	diastole	14	B	500.0	coherent
425.6376	0.0781410437775775	8	diastole	15	A	1987.9452401467304	coherent
425.9827	0.0781410437775775	8	diastole	16	A	1987.9452401467304	coherent
426.1452	0.0781410437775775	8	diastole	17	B	500.0	coherent
426.3077	0.0781410437775775	8	diastole	18	A	1987.9452401467304	coherent
426.6528	0.0781410437775775	8	diastole	19	A	1987.9452401467304	coherent
426.8153	0.0781410437775775	8	diastole	20	B	500.0	coherent
426.9778	0.0781410437775775	8	diastole	21	A	1987.9452401467304	coherent
427.3229	0.0781410437775775	8	diastole	22	A	1987.9452401467304	coherent
427.4853	0.0781410437775775	8	diastole	23	B	500.0	coherent
427.6479	0.0781410437775775	8	diastole	24	A	1987.9452401467304	coherent
427.9929	0.0781410437775775	8	diastole	25	A	1987.9452401467304	coherent
428.1553	0.0781410437775775	8	diastole	26	B	500.0	coherent
428.3179	0.0781410437775775	8	diastole	27	A	1987.9452401467304	coherent
428.6399	0.0781410437775775	8	diastole	28	A	1987.9452401467304	coherent
428.8036	0.0781410437775775	8	diastole	29	B	500.0	coherent
428.9674	0.0781410437775775	8	diastole	30	A	1987.9452401467304	coherent
429.2798	0.0781410437775775	8	diastole	31	A	1987.9452401467304	coherent
429.4435	0.0781410437775775	8	diastole	32	B	500.0	coherent
429.6073	0.0781410437775775	8	diastole	33	A	1987.9452401467304	coherent
429.9197	0.0781410437775775	8	diastole	34	A	1987.9452401467304	coherent
430.0834	0.0781410437775775	8	diastole	35	B	500.0	coherent
430.2473	0.0781410437775775	8	diastole	36	A	1987.9452401467304	coherent
430.5597	0.0781410437775775	8	diastole	37	A	1987.9452401467304	coherent
430.7234	0.0781410437775775	8	diastole	38	B	500.0	coherent
430.8873	0.0781410437775775	8	diastole	39	A	1987.9452401467304	coherent
431.1997	0.0781410437775775	8	diastole	40	A	1987.9452401467304	coherent
431.3634	0.0781410437775775	8	diastole	41	B	500.0	coherent
431.5272	0.0781410437775775	8	diastole	42	A	1987.9452401467304	coherent
431.8126	0.0781410437775775	8	diastole	43	A	1987.9452401467304	coherent
431.975	0.0781410437775775	8	diastole	44	B	500.0	coherent
432.1376	0.0781410437775775	8	diastole	45	A	1987.9452401467304	coherent
435.442	0.0775031063240021	9	diastole	1	A	2942.014383864825	coherent
435.597	0.0775031063240021	9	diastole	2	B	500.0	coherent
435.752	0.0775031063240021	9	diastole	3	A	2942.014383864825	coherent
436.0736	0.0775031063240021	9	diastole	4	A	2942.014383864825	coherent
436.2286	0.0775031063240021	9	diastole	5	B	500.0	coherent
436.3836	0.0775031063240021	9	diastole	6	A	2942.014383864825	coherent
436.7052	0.0775031063240021	9	diastole	7	A	2942.014383864825	coherent
436.8602	0.0775031063240021	9	diastole	8	B	500.0	coherent
437.0152	0.0775031063240021	9	diastole	9	A	2942.014383864825	coherent
437.3336	0.0775031063240021	9	diastole	10	A	2942.014383864825	coherent
437.4886	0.0775031063240021	9	diastole	11	B	500.0	coherent
437.6436	0.0775031063240021	9	diastole	12	A	2942.014383864825	coherent
437.9619	0.0775031063240021	9	diastole	13	A	2942.014383864825	coherent
438.117	0.0775031063240021	9	diastole	14	B	500.0	coherent
438.2719	0.0775031063240021	9	diastole	15	A	2942.014383864825	coherent
438.5719	0.0775031063240021	9	diastole	16	A	2942.014383864825	coherent
438.7269	0.0775031063240021	9	diastole	17	B	500.0	coherent
438.8819	0.0775031063240021	9	diastole	18	A	2942.014383864825	coherent
439.1819	0.0775031063240021	9	diastole	19	A	2942.014383864825	coherent
439.3369	0.0775031063240021	9	diastole	20	B	500.0	coherent
439.4919	0.0775031063240021	9	diastole	21	A	2942.014383864825	coherent
439.8019	0.0775031063240021	9	diastole	22	A	2942.014383864825	coherent
439.9569	0.0775031063240021	9	diastole	23	B	500.0	coherent
440.1118	0.0775031063240021	9	diastole	24	A	2942.014383864825	coherent
440.4218	0.0775031063240021	9	diastole	25	A	2942.014383864825	coherent
440.5769	0.0775031063240021	9	diastole	26	B	500.0	coherent
440.7318	0.0775031063240021	9	diastole	27	A	2942.014383864825	coherent
441.0418	0.0775031063240021	9	diastole	28	A	2942.014383864825	coherent
441.1968	0.0775031063240021	9	diastole	29	B	500.0	coherent
441.3518	0.0775031063240021	9	diastole	30	A	2942.014383864825	coherent
441.6618	0.0775031063240021	9	diastole	31	A	2942.014383864825	coherent
441.8168	0.0775031063240021	9	diastole	32	B	500.0	coherent
441.9718	0.0775031063240021	9	diastole	33	A	2942.014383864825	coherent
442.3248	0.0775031063240021	9	diastole	34	A	2942.014383864825	coherent
442.4821	0.0775031063240021	9	diastole	35	B	500.0	coherent
442.6394	0.0775031063240021	9	diastole	36	A	2942.014383864825	coherent
443.0043	0.0775031063240021	9	diastole	37	A	2942.014383864825	coherent
443.1668	0.0775031063240021	9	diastole	38	B	500.0	coherent
443.3293	0.0775031063240021	9	diastole	39	A	2942.014383864825	coherent
443.6443	0.0775031063240021	9	diastole	40	A	2942.014383864825	coherent
443.8068	0.0775031063240021	9	diastole	41	B	500.0	coherent
443.9693	0.0775031063240021	9	diastole	42	A	2942.014383864825	coherent
444.2843	0.0775031063240021	9	diastole	43	A	2942.014383864825	coherent
444.4468	0.0775031063240021	9	diastole	44	B	500.0	coherent
444.6093	0.0775031063240021	9	diastole	45	A	2942.014383864825	coherent
447.3579	0.0812506511865649	10	systole	1	A	3538.000656405778	streaming
447.5203	0.0812506511865649	10	systole	2	B	500.0	streaming
447.6829	0.0812506511865649	10	systole	3	A	3538.000656405778	streaming
448.0079	0.0812506511865649	10	systole	4	A	3538.000656405778	streaming
448.1703	0.0812506511865649	10	systole	5	B	500.0	streaming
448.3329	0.0812506511865649	10	systole	6	A	3538.000656405778	streaming
448.6233	0.0812506511865649	10	systole	7	A	3538.000656405778	streaming
448.7845	0.0812506511865649	10	systole	8	B	500.0	streaming
448.9458	0.0812506511865649	10	systole	9	A	3538.000656405778	streaming
449.2187	0.0812506511865649	10	systole	10	A	3538.000656405778	streaming
449.3786	0.0812506511865649	10	systole	11	B	500.0	streaming
449.5387	0.0812506511865649	10	systole	12	A	3538.000656405778	streaming
449.8187	0.0812506511865649	10	systole	13	A	3538.000656405778	streaming
449.9787	0.0812506511865649	10	systole	14	B	500.0	streaming
450.1387	0.0812506511865649	10	systole	15	A	3538.000656405778	streaming
450.4141	0.0812506511865649	10	systole	16	A	3538.000656405778	streaming
450.5729	0.0812506511865649	10	systole	17	B	500.0	streaming
450.7317	0.0812506511865649	10	systole	18	A	3538.000656405778	streaming
451.0196	0.0812506511865649	10	systole	19	A	3538.000656405778	streaming
451.177	0.0812506511865649	10	systole	20	B	500.0	streaming
451.3346	0.0812506511865649	10	systole	21	A	3538.000656405778	streaming
451.6012	0.0812506511865649	10	systole	22	A	3538.000656405778	streaming
451.7537	0.0812506511865649	10	systole	23	B	500.0	streaming
451.9062	0.0812506511865649	10	systole	24	A	3538.000656405778	streaming
452.2012	0.0812506511865649	10	systole	25	A	3538.000656405778	streaming
452.3537	0.0812506511865649	10	systole	26	B	500.0	streaming
452.5062	0.0812506511865649	10	systole	27	A	3538.000656405778	streaming
452.8113	0.0812506511865649	10	systole	28	A	3538.000656405778	streaming
452.9637	0.0812506511865649	10	systole	29	B	500.0	streaming
453.1162	0.0812506511865649	10	systole	30	A	3538.000656405778	streaming
453.4212	0.0812506511865649	10	systole	31	A	3538.000656405778	streaming
453.5737	0.0812506511865649	10	systole	32	B	500.0	streaming
453.7262	0.0812506511865649	10	systole	33	A	3538.000656405778	streaming
454.0313	0.0812506511865649	10	systole	34	A	3538.000656405778	streaming
454.1837	0.0812506511865649	10	systole	35	B	500.0	streaming
454.3363	0.0812506511865649	10	systole	36	A	3538.000656405778	streaming
454.6412	0.0812506511865649	10	systole	37	A	3538.000656405778	streaming
454.7937	0.0812506511865649	10	systole	38	B	500.0	streaming
454.9462	0.0812506511865649	10	systole	39	A	3538.000656405778	streaming
455.2512	0.0812506511865649	10	systole	40	A	3538.000656405778	streaming
455.4037	0.0812506511865649	10	systole	41	B	500.0	streaming
455.5562	0.0812506511865649	10	systole	42	A	3538.000656405778	streaming
455.8612	0.0812506511865649	10	systole	43	A	3538.000656405778	streaming
456.0136	0.0812506511865649	10	systole	44	B	500.0	streaming
456.1662	0.0812506511865649	10	systole	45	A	3538.000656405778	streaming
456.4712	0.0812506511865649	10	systole	46	A	3538.000656405778	streaming
456.6236	0.0812506511865649	10	systole	47	B	500.0	streaming
456.7761	0.0812506511865649	10	systole	48	A	3538.000656405778	streaming
489.7139	0.0787552562251221	11	systole	1	A	2130.3297690552017	coherent
489.8727	0.0787552562251221	11	systole	2	B	500.0	coherent
490.0314	0.0787552562251221	11	systole	3	A	2130.3297690552017	coherent
490.3539	0.0787552562251221	11	systole	4	A	2130.3297690552017	coherent
490.5127	0.0787552562251221	11	systole	5	B	500.0	coherent
490.6714	0.0787552562251221	11	systole	6	A	2130.3297690552017	coherent
491.0185	0.0787552562251221	11	systole	7	A	2130.3297690552017	coherent
491.1785	0.0787552562251221	11	systole	8	B	500.0	coherent
491.3384	0.0787552562251221	11	systole	9	A	2130.3297690552017	coherent
491.7085	0.0787552562251221	11	systole	10	A	2130.3297690552017	coherent
491.8685	0.0787552562251221	11	systole	11	B	500.0	coherent
492.0285	0.0787552562251221	11	systole	12	A	2130.3297690552017	coherent
492.3985	0.0787552562251221	11	systole	13	A	2130.3297690552017	coherent
492.5586	0.0787552562251221	11	systole	14	B	500.0	coherent
492.7185	0.0787552562251221	11	systole	15	A	2130.3297690552017	coherent
493.0684	0.0787552562251221	11	systole	16	A	2130.3297690552017	coherent
493.2285	0.0787552562251221	11	systole	17	B	500.0	coherent
493.3884	0.0787552562251221	11	systole	18	A	2130.3297690552017	coherent
493.7383	0.0787552562251221	11	systole	19	A	2130.3297690552017	coherent
493.8983	0.0787552562251221	11	systole	20	B	500.0	coherent
494.0583	0.0787552562251221	11	systole	21	A	2130.3297690552017	coherent
494.4222	0.0787552562251221	11	systole	22	A	2130.3297690552017	coherent
494.5859	0.0787552562251221	11	systole	23	B	500.0	coherent
494.7497	0.0787552562251221	11	systole	24	A	2130.3297690552017	coherent
495.0922	0.0787552562251221	11	systole	25	A	2130.3297690552017	coherent
495.256	0.0787552562251221	11	systole	26	B	500.0	coherent
495.4197	0.0787552562251221	11	systole	27	A	2130.3297690552017	coherent
495.757	0.0787552562251221	11	systole	28	A	2130.3297690552017	coherent
495.922	0.0787552562251221	11	systole	29	B	500.0	coherent
496.087	0.0787552562251221	11	systole	30	A	2130.3297690552017	coherent
496.4172	0.0787552562251221	11	systole	31	A	2130.3297690552017	coherent
496.5822	0.0787552562251221	11	systole	32	B	500.0	coherent
496.7472	0.0787552562251221	11	systole	33	A	2130.3297690552017	coherent
497.0774	0.0787552562251221	11	systole	34	A	2130.3297690552017	coherent
497.2424	0.0787552562251221	11	systole	35	B	500.0	coherent
497.4074	0.0787552562251221	11	systole	36	A	2130.3297690552017	coherent
497.727	0.0787552562251221	11	systole	37	A	2130.3297690552017	coherent
497.892	0.0787552562251221	11	systole	38	B	500.0	coherent
498.057	0.0787552562251221	11	systole	39	A	2130.3297690552017	coherent
498.3766	0.0787552562251221	11	systole	40	A	2130.3297690552017	coherent
498.5416	0.0787552562251221	11	systole	41	B	500.0	coherent
498.7066	0.0787552562251221	11	systole	42	A	2130.3297690552017	coherent
499.0167	0.0787552562251221	11	systole	43	A	2130.3297690552017	coherent
499.1817	0.0787552562251221	11	systole	44	B	500.0	coherent
499.3467	0.0787552562251221	11	systole	45	A	2130.3297690552017	coherent
501.8802	0.0780378451163414	12	systole	1	A	4157.735780147634	streaming
502.0354	0.0780378451163414	12	systole	2	B	500.0	streaming
502.1903	0.0780378451163414	12	systole	3	A	4157.735780147634	streaming
502.4902	0.0780378451163414	12	systole	4	A	4157.735780147634	streaming
502.6453	0.0780378451163414	12	systole	5	B	500.0	streaming
502.8002	0.0780378451163414	12	systole	6	A	4157.735780147634	streaming
503.1003	0.0780378451163414	12	systole	7	A	4157.735780147634	streaming
503.2554	0.0780378451163414	12	systole	8	B	500.0	streaming
503.4103	0.0780378451163414	12	systole	9	A	4157.735780147634	streaming
503.7103	0.0780378451163414	12	systole	10	A	4157.735780147634	streaming
503.8654	0.0780378451163414	12	systole	11	B	500.0	streaming
504.0203	0.0780378451163414	12	systole	12	A	4157.735780147634	streaming
504.34	0.0780378451163414	12	systole	13	A	4157.735780147634	streaming
504.4952	0.0780378451163414	12	systole	14	B	500.0	streaming
504.65	0.0780378451163414	12	systole	15	A	4157.735780147634	streaming
504.9704	0.0780378451163414	12	systole	16	A	4157.735780147634	streaming
505.1256	0.0780378451163414	12	systole	17	B	500.0	streaming
505.2804	0.0780378451163414	12	systole	18	A	4157.735780147634	streaming
505.6008	0.0780378451163414	12	systole	19	A	4157.735780147634	streaming
505.756	0.0780378451163414	12	systole	20	B	500.0	streaming
505.9108	0.0780378451163414	12	systole	21	A	4157.735780147634	streaming
506.2308	0.0780378451163414	12	systole	22	A	4157.735780147634	streaming
506.3859	0.0780378451163414	12	systole	23	B	500.0	streaming
506.5408	0.0780378451163414	12	systole	24	A	4157.735780147634	streaming
506.8608	0.0780378451163414	12	systole	25	A	4157.735780147634	streaming
507.0159	0.0780378451163414	12	systole	26	B	500.0	streaming
507.1708	0.0780378451163414	12	systole	27	A	4157.735780147634	streaming
507.493	0.0780378451163414	12	systole	28	A	4157.735780147634	streaming
507.6492	0.0780378451163414	12	systole	29	B	500.0	streaming
507.8052	0.0780378451163414	12	systole	30	A	4157.735780147634	streaming
508.1131	0.0780378451163414	12	systole	31	A	4157.735780147634	streaming
508.2693	0.0780378451163414	12	systole	32	B	500.0	streaming
508.4252	0.0780378451163414	12	systole	33	A	4157.735780147634	streaming
508.733	0.0780378451163414	12	systole	34	A	4157.735780147634	streaming
508.8892	0.0780378451163414	12	systole	35	B	500.0	streaming
509.0452	0.0780378451163414	12	systole	36	A	4157.735780147634	streaming
509.3675	0.0780378451163414	12	systole	37	A	4157.735780147634	streaming
509.5249	0.0780378451163414	12	systole	38	B	500.0	streaming
509.682	0.0780378451163414	12	systole	39	A	4157.735780147634	streaming
509.9836	0.0780378451163414	12	systole	40	A	4157.735780147634	streaming
510.1398	0.0780378451163414	12	systole	41	B	500.0	streaming
510.2958	0.0780378451163414	12	systole	42	A	4157.735780147634	streaming
510.6039	0.0780378451163414	12	systole	43	A	4157.735780147634	streaming
510.7602	0.0780378451163414	12	systole	44	B	500.0	streaming
510.9161	0.0780378451163414	12	systole	45	A	4157.735780147634	streaming
515.1371	0.0762127334601245	13	diastole	1	A	2446.423693900757	streaming
515.2899	0.0762127334601245	13	diastole	2	B	500.0	streaming
515.4424	0.0762127334601245	13	diastole	3	A	2446.423693900757	streaming
515.7575	0.0762127334601245	13	diastole	4	A	2446.423693900757	streaming
515.9103	0.0762127334601245	13	diastole	5	B	500.0	streaming
516.0628	0.0762127334601245	13	diastole	6	A	2446.423693900757	streaming
516.3773	0.0762127334601245	13	diastole	7	A	2446.423693900757	streaming
516.5301	0.0762127334601245	13	diastole	8	B	500.0	streaming
516.6826	0.0762127334601245	13	diastole	9	A	2446.423693900757	streaming
517.0087	0.0762127334601245	13	diastole	10	A	2446.423693900757	streaming
517.1618	0.0762127334601245	13	diastole	11	B	500.0	streaming
517.3145	0.0762127334601245	13	diastole	12	A	2446.423693900757	streaming
517.6504	0.0762127334601245	13	diastole	13	A	2446.423693900757	streaming
517.8055	0.0762127334601245	13	diastole	14	B	500.0	streaming
517.9604	0.0762127334601245	13	diastole	15	A	2446.423693900757	streaming
518.2805	0.0762127334601245	13	diastole	16	A	2446.423693900757	streaming
518.4356	0.0762127334601245	13	diastole	17	B	500.0	streaming
518.5904	0.0762127334601245	13	diastole	18	A	2446.423693900757	streaming
518.9105	0.0762127334601245	13	diastole	19	A	2446.423693900757	streaming
519.0657	0.0762127334601245	13	diastole	20	B	500.0	streaming
519.2205	0.0762127334601245	13	diastole	21	A	2446.423693900757	streaming
519.5306	0.0762127334601245	13	diastole	22	A	2446.423693900757	streaming
519.6858	0.0762127334601245	13	diastole	23	B	500.0	streaming
519.8406	0.0762127334601245	13	diastole	24	A	2446.423693900757	streaming
520.1507	0.0762127334601245	13	diastole	25	A	2446.423693900757	streaming
520.3059	0.0762127334601245	13	diastole	26	B	500.0	streaming
520.4607	0.0762127334601245	13	diastole	27	A	2446.423693900757	streaming
520.7708	0.0762127334601245	13	diastole	28	A	2446.423693900757	streaming
520.926	0.0762127334601245	13	diastole	29	B	500.0	streaming
521.0808	0.0762127334601245	13	diastole	30	A	2446.423693900757	streaming
521.3909	0.0762127334601245	13	diastole	31	A	2446.423693900757	streaming
521.546	0.0762127334601245	13	diastole	32	B	500.0	streaming
521.7009	0.0762127334601245	13	diastole	33	A	2446.423693900757	streaming
522.0208	0.0762127334601245	13	diastole	34	A	2446.423693900757	streaming
522.176	0.0762127334601245	13	diastole	35	B	500.0	streaming
522.3309	0.0762127334601245	13	diastole	36	A	2446.423693900757	streaming
522.6405	0.0762127334601245	13	diastole	37	A	2446.423693900757	streaming
522.7957	0.0762127334601245	13	diastole	38	B	500.0	streaming
522.9506	0.0762127334601245	13	diastole	39	A	2446.423693900757	streaming
523.2505	0.0762127334601245	13	diastole	40	A	2446.423693900757	streaming
523.4056	0.0762127334601245	13	diastole	41	B	500.0	streaming
523.5605	0.0762127334601245	13	diastole	42	A	2446.423693900757	streaming
523.8708	0.0762127334601245	13	diastole	43	A	2446.423693900757	streaming
524.026	0.0762127334601245	13	diastole	44	B	500.0	streaming
524.1808	0.0762127334601245	13	diastole	45	A	2446.423693900757	streaming
524.4808	0.0762127334601245	13	diastole	46	A	2446.423693900757	streaming
524.636	0.0762127334601245	13	diastole	47	B	500.0	streaming
524.7908	0.0762127334601245	13	diastole	48	A	2446.423693900757	streaming
527.5603	0.0768799935467541	14	diastole	1	A	1374.6058324966025	streaming
527.7154	0.0768799935467541	14	diastole	2	B	500.0	streaming
527.8703	0.0768799935467541	14	diastole	3	A	1374.6058324966025	streaming
528.1903	0.0768799935467541	14	diastole	4	A	1374.6058324966025	streaming
528.3454	0.0768799935467541	14	diastole	5	B	500.0	streaming
528.5003	0.0768799935467541	14	diastole	6	A	1374.6058324966025	streaming
528.8321	0.0768799935467541	14	diastole	7	A	1374.6058324966025	streaming
528.9872	0.0768799935467541	14	diastole	8	B	500.0	streaming
529.1421	0.0768799935467541	14	diastole	9	A	1374.6058324966025	streaming
529.4703	0.0768799935467541	14	diastole	10	A	1374.6058324966025	streaming
529.6254	0.0768799935467541	14	diastole	11	B	500.0	streaming
529.7804	0.0768799935467541	14	diastole	12	A	1374.6058324966025	streaming
530.1084	0.0768799935467541	14	diastole	13	A	1374.6058324966025	streaming
530.2635	0.0768799935467541	14	diastole	14	B	500.0	streaming
530.4185	0.0768799935467541	14	diastole	15	A	1374.6058324966025	streaming
530.7854	0.0768799935467541	14	diastole	16	A	1374.6058324966025	streaming
530.9418	0.0768799935467541	14	diastole	17	B	500.0	streaming
531.0979	0.0768799935467541	14	diastole	18	A	1374.6058324966025	streaming
531.4441	0.0768799935467541	14	diastole	19	A	1374.6058324966025	streaming
531.6017	0.0768799935467541	14	diastole	20	B	500.0	streaming
531.7591	0.0768799935467541	14	diastole	21	A	1374.6058324966025	streaming
532.0957	0.0768799935467541	14	diastole	22	A	1374.6058324966025	streaming
532.2533	0.0768799935467541	14	diastole	23	B	500.0	streaming
532.4107	0.0768799935467541	14	diastole	24	A	1374.6058324966025	streaming
532.7793	0.0768799935467541	14	diastole	25	A	1374.6058324966025	streaming
532.941	0.0768799935467541	14	diastole	26	B	500.0	streaming
533.1026	0.0768799935467541	14	diastole	27	A	1374.6058324966025	streaming
533.4353	0.0768799935467541	14	diastole	28	A	1374.6058324966025	streaming
533.598	0.0768799935467541	14	diastole	29	B	500.0	streaming
533.7607	0.0768799935467541	14	diastole	30	A	1374.6058324966025	streaming
534.0854	0.0768799935467541	14	diastole	31	A	1374.6058324966025	streaming
534.2481	0.0768799935467541	14	diastole	32	B	500.0	streaming
534.4108	0.0768799935467541	14	diastole	33	A	1374.6058324966025	streaming
534.7253	0.0768799935467541	14	diastole	34	A	1374.6058324966025	streaming
534.8881	0.0768799935467541	14	diastole	35	B	500.0	streaming
535.0508	0.0768799935467541	14	diastole	36	A	1374.6058324966025	streaming
535.3654	0.0768799935467541	14	diastole	37	A	1374.6058324966025	streaming
535.5282	0.0768799935467541	14	diastole	38	B	500.0	streaming
535.6908	0.0768799935467541	14	diastole	39	A	1374.6058324966025	streaming
535.9954	0.0768799935467541	14	diastole	40	A	1374.6058324966025	streaming
536.1581	0.0768799935467541	14	diastole	41	B	500.0	streaming
536.3208	0.0768799935467541	14	diastole	42	A	1374.6058324966025	streaming
536.6253	0.0768799935467541	14	diastole	43	A	1374.6058324966025	streaming
536.788	0.0768799935467541	14	diastole	44	B	500.0	streaming
536.9507	0.0768799935467541	14	diastole	45	A	1374.6058324966025	streaming
537.2371	0.0768799935467541	14	diastole	46	A	1374.6058324966025	streaming
537.3984	0.0768799935467541	14	diastole	47	B	500.0	streaming
537.5597	0.0768799935467541	14	diastole	48	A	1374.6058324966025	streaming
541.2102	0.0775025603652466	15	systole	1	A	4157.735780147634	streaming
541.3653	0.0775025603652466	15	systole	2	B	500.0	streaming
541.5202	0.0775025603652466	15	systole	3	A	4157.735780147634	streaming
541.8402	0.0775025603652466	15	systole	4	A	4157.735780147634	streaming
541.9954	0.0775025603652466	15	systole	5	B	500.0	streaming
542.1502	0.0775025603652466	15	systole	6	A	4157.735780147634	streaming
542.4703	0.0775025603652466	15	systole	7	A	4157.735780147634	streaming
542.6254	0.0775025603652466	15	systole	8	B	500.0	streaming
542.7803	0.0775025603652466	15	systole	9	A	4157.735780147634	streaming
543.1302	0.0775025603652466	15	systole	10	A	4157.735780147634	streaming
543.2853	0.0775025603652466	15	systole	11	B	500.0	streaming
543.4402	0.0775025603652466	15	systole	12	A	4157.735780147634	streaming
543.7902	0.0775025603652466	15	systole	13	A	4157.735780147634	streaming
543.9453	0.0775025603652466	15	systole	14	B	500.0	streaming
544.1002	0.0775025603652466	15	systole	15	A	4157.735780147634	streaming
544.4448	0.0775025603652466	15	systole	16	A	4157.735780147634	streaming
544.6012	0.0775025603652466	15	systole	17	B	500.0	streaming
544.7573	0.0775025603652466	15	systole	18	A	4157.735780147634	streaming
545.1085	0.0775025603652466	15	systole	19	A	4157.735780147634	streaming
545.2687	0.0775025603652466	15	systole	20	B	500.0	streaming
545.4286	0.0775025603652466	15	systole	21	A	4157.735780147634	streaming
545.7777	0.0775025603652466	15	systole	22	A	4157.735780147634	streaming
545.9403	0.0775025603652466	15	systole	23	B	500.0	streaming
546.1027	0.0775025603652466	15	systole	24	A	4157.735780147634	streaming
546.4377	0.0775025603652466	15	systole	25	A	4157.735780147634	streaming
546.6004	0.0775025603652466	15	systole	26	B	500.0	streaming
546.7628	0.0775025603652466	15	systole	27	A	4157.735780147634	streaming
547.0778	0.0775025603652466	15	systole	28	A	4157.735780147634	streaming
547.2404	0.0775025603652466	15	systole	29	B	500.0	streaming
547.4028	0.0775025603652466	15	systole	30	A	4157.735780147634	streaming
547.7178	0.0775025603652466	15	systole	31	A	4157.735780147634	streaming
547.8804	0.0775025603652466	15	systole	32	B	500.0	streaming
548.0428	0.0775025603652466	15	systole	33	A	4157.735780147634	streaming
548.3578	0.0775025603652466	15	systole	34	A	4157.735780147634	streaming
548.5204	0.0775025603652466	15	systole	35	B	500.0	streaming
548.6828	0.0775025603652466	15	systole	36	A	4157.735780147634	streaming
548.9878	0.0775025603652466	15	systole	37	A	4157.735780147634	streaming
549.1505	0.0775025603652466	15	systole	38	B	500.0	streaming
549.3128	0.0775025603652466	15	systole	39	A	4157.735780147634	streaming
549.6178	0.0775025603652466	15	systole	40	A	4157.735780147634	streaming
549.7805	0.0775025603652466	15	systole	41	B	500.0	streaming
549.9428	0.0775025603652466	15	systole	42	A	4157.735780147634	streaming
550.2333	0.0775025603652466	15	systole	43	A	4157.735780147634	streaming
550.3947	0.0775025603652466	15	systole	44	B	500.0	streaming
550.5558	0.0775025603652466	15	systole	45	A	4157.735780147634	streaming
552.8966	0.0768848631705623	16	diastole	1	A	907.6609849845596	coherent
553.0487	0.0768848631705623	16	diastole	2	B	500.0	coherent
553.2016	0.0768848631705623	16	diastole	3	A	907.6609849845596	coherent
553.4966	0.0768848631705623	16	diastole	4	A	907.6609849845596	coherent
553.6487	0.0768848631705623	16	diastole	5	B	500.0	coherent
553.8016	0.0768848631705623	16	diastole	6	A	907.6609849845596	coherent
554.0966	0.0768848631705623	16	diastole	7	A	907.6609849845596	coherent
554.2486	0.0768848631705623	16	diastole	8	B	500.0	coherent
554.4016	0.0768848631705623	16	diastole	9	A	907.6609849845596	coherent
554.7066	0.0768848631705623	16	diastole	10	A	907.6609849845596	coherent
554.8586	0.0768848631705623	16	diastole	11	B	500.0	coherent
555.0116	0.0768848631705623	16	diastole	12	A	907.6609849845596	coherent
555.3065	0.0768848631705623	16	diastole	13	A	907.6609849845596	coherent
555.4586	0.0768848631705623	16	diastole	14	B	500.0	coherent
555.6115	0.0768848631705623	16	diastole	15	A	907.6609849845596	coherent
555.8895	0.0768848631705623	16	diastole	16	A	907.6609849845596	coherent
556.0403	0.0768848631705623	16	diastole	17	B	500.0	coherent
556.192	0.0768848631705623	16	diastole	18	A	907.6609849845596	coherent
556.4795	0.0768848631705623	16	diastole	19	A	907.6609849845596	coherent
556.6303	0.0768848631705623	16	diastole	20	B	500.0	coherent
556.782	0.0768848631705623	16	diastole	21	A	907.6609849845596	coherent
557.0425	0.0768848631705623	16	diastole	22	A	907.6609849845596	coherent
557.1921	0.0768848631705623	16	diastole	23	B	500.0	coherent
557.3426	0.0768848631705623	16	diastole	24	A	907.6609849845596	coherent
557.6025	0.0768848631705623	16	diastole	25	A	907.6609849845596	coherent
557.7521	0.0768848631705623	16	diastole	26	B	500.0	coherent
557.9025	0.0768848631705623	16	diastole	27	A	907.6609849845596	coherent
558.1624	0.0768848631705623	16	diastole	28	A	907.6609849845596	coherent
558.312	0.0768848631705623	16	diastole	29	B	500.0	coherent
558.4624	0.0768848631705623	16	diastole	30	A	907.6609849845596	coherent
558.7254	0.0768848631705623	16	diastole	31	A	907.6609849845596	coherent
558.8737	0.0768848631705623	16	diastole	32	B	500.0	coherent
559.0229	0.0768848631705623	16	diastole	33	A	907.6609849845596	coherent
559.3084	0.0768848631705623	16	diastole	34	A	907.6609849845596	coherent
559.4555	0.0768848631705623	16	diastole	35	B	500.0	coherent
559.6034	0.0768848631705623	16	diastole	36	A	907.6609849845596	coherent
559.8985	0.0768848631705623	16	diastole	37	A	907.6609849845596	coherent
560.0455	0.0768848631705623	16	diastole	38	B	500.0	coherent
560.1935	0.0768848631705623	16	diastole	39	A	907.6609849845596	coherent
560.5085	0.0768848631705623	16	diastole	40	A	907.6609849845596	coherent
560.6555	0.0768848631705623	16	diastole	41	B	500.0	coherent
560.8035	0.0768848631705623	16	diastole	42	A	907.6609849845596	coherent
561.1189	0.0768848631705623	16	diastole	43	A	907.6609849845596	coherent
561.2659	0.0768848631705623	16	diastole	44	B	500.0	coherent
561.4139	0.0768848631705623	16	diastole	45	A	907.6609849845596	coherent
561.7189	0.0768848631705623	16	diastole	46	A	907.6609849845596	coherent
561.8659	0.0768848631705623	16	diastole	47	B	500.0	coherent
562.0139	0.0768848631705623	16	diastole	48	A	907.6609849845596	coherent
562.3259	0.0768848631705623	16	diastole	49	A	907.6609849845596	coherent
562.4742	0.0768848631705623	16	diastole	50	B	500.0	coherent
562.6234	0.0768848631705623	16	diastole	51	A	907.6609849845596	coherent
564.9451	0.0744741311646066	17	systole	1	A	4062.961875947593	streaming
565.0928	0.0744741311646066	17	systole	2	B	500.0	streaming
565.2404	0.0744741311646066	17	systole	3	A	4062.961875947593	streaming
565.515	0.0744741311646066	17	systole	4	A	4062.961875947593	streaming
565.6628	0.0744741311646066	17	systole	5	B	500.0	streaming
565.8104	0.0744741311646066	17	systole	6	A	4062.961875947593	streaming
566.0689	0.0744741311646066	17	systole	7	A	4062.961875947593	streaming
566.2155	0.0744741311646066	17	systole	8	B	500.0	streaming
566.3618	0.0744741311646066	17	systole	9	A	4062.961875947593	streaming
566.6237	0.0744741311646066	17	systole	10	A	4062.961875947593	streaming
566.7688	0.0744741311646066	17	systole	11	B	500.0	streaming
566.9137	0.0744741311646066	17	systole	12	A	4062.961875947593	streaming
567.1783	0.0744741311646066	17	systole	13	A	4062.961875947593	streaming
567.3219	0.0744741311646066	17	systole	14	B	500.0	streaming
567.4654	0.0744741311646066	17	systole	15	A	4062.961875947593	streaming
567.7344	0.0744741311646066	17	systole	16	A	4062.961875947593	streaming
567.877	0.0744741311646066	17	systole	17	B	500.0	streaming
568.0194	0.0744741311646066	17	systole	18	A	4062.961875947593	streaming
568.2944	0.0744741311646066	17	systole	19	A	4062.961875947593	streaming
568.437	0.0744741311646066	17	systole	20	B	500.0	streaming
568.5794	0.0744741311646066	17	systole	21	A	4062.961875947593	streaming
568.8744	0.0744741311646066	17	systole	22	A	4062.961875947593	streaming
569.017	0.0744741311646066	17	systole	23	B	500.0	streaming
569.1594	0.0744741311646066	17	systole	24	A	4062.961875947593	streaming
569.4544	0.0744741311646066	17	systole	25	A	4062.961875947593	streaming
569.597	0.0744741311646066	17	systole	26	B	500.0	streaming
569.7394	0.0744741311646066	17	systole	27	A	4062.961875947593	streaming
570.0343	0.0744741311646066	17	systole	28	A	4062.961875947593	streaming
570.1769	0.0744741311646066	17	systole	29	B	500.0	streaming
570.3193	0.0744741311646066	17	systole	30	A	4062.961875947593	streaming
570.6144	0.0744741311646066	17	systole	31	A	4062.961875947593	streaming
570.757	0.0744741311646066	17	systole	32	B	500.0	streaming
570.8994	0.0744741311646066	17	systole	33	A	4062.961875947593	streaming
571.2044	0.0744741311646066	17	systole	34	A	4062.961875947593	streaming
571.347	0.0744741311646066	17	systole	35	B	500.0	streaming
571.4894	0.0744741311646066	17	systole	36	A	4062.961875947593	streaming
571.819	0.0744741311646066	17	systole	37	A	4062.961875947593	streaming
571.9628	0.0744741311646066	17	systole	38	B	500.0	streaming
572.1065	0.0744741311646066	17	systole	39	A	4062.961875947593	streaming
572.4232	0.0744741311646066	17	systole	40	A	4062.961875947593	streaming
572.5683	0.0744741311646066	17	systole	41	B	500.0	streaming
572.7132	0.0744741311646066	17	systole	42	A	4062.961875947593	streaming
573.0281	0.0744741311646066	17	systole	43	A	4062.961875947593	streaming
573.1745	0.0744741311646066	17	systole	44	B	500.0	streaming
573.3206	0.0744741311646066	17	systole	45	A	4062.961875947593	streaming
573.6285	0.0744741311646066	17	systole	46	A	4062.961875947593	streaming
573.7749	0.0744741311646066	17	systole	47	B	500.0	streaming
573.921	0.0744741311646066	17	systole	48	A	4062.961875947593	streaming
574.2471	0.0744741311646066	17	systole	49	A	4062.961875947593	streaming
574.3959	0.0744741311646066	17	systole	50	B	500.0	streaming
574.5444	0.0744741311646066	17	systole	51	A	4062.961875947593	streaming
576.5261	0.0762044810981024	18	diastole	1	A	928.8333655934664	coherent
576.6782	0.0762044810981024	18	diastole	2	B	500.0	coherent
576.8311	0.0762044810981024	18	diastole	3	A	928.8333655934664	coherent
577.136	0.0762044810981024	18	diastole	4	A	928.8333655934664	coherent
577.288	0.0762044810981024	18	diastole	5	B	500.0	coherent
577.4409	0.0762044810981024	18	diastole	6	A	928.8333655934664	coherent
577.7459	0.0762044810981024	18	diastole	7	A	928.8333655934664	coherent
577.8979	0.0762044810981024	18	diastole	8	B	500.0	coherent
578.0508	0.0762044810981024	18	diastole	9	A	928.8333655934664	coherent
578.357	0.0762044810981024	18	diastole	10	A	928.8333655934664	coherent
578.5091	0.0762044810981024	18	diastole	11	B	500.0	coherent
578.6621	0.0762044810981024	18	diastole	12	A	928.8333655934664	coherent
578.957	0.0762044810981024	18	diastole	13	A	928.8333655934664	coherent
579.1091	0.0762044810981024	18	diastole	14	B	500.0	coherent
579.2621	0.0762044810981024	18	diastole	15	A	928.8333655934664	coherent
579.5671	0.0762044810981024	18	diastole	16	A	928.8333655934664	coherent
579.7192	0.0762044810981024	18	diastole	17	B	500.0	coherent
579.8722	0.0762044810981024	18	diastole	18	A	928.8333655934664	coherent
580.1771	0.0762044810981024	18	diastole	19	A	928.8333655934664	coherent
580.3293	0.0762044810981024	18	diastole	20	B	500.0	coherent
580.4823	0.0762044810981024	18	diastole	21	A	928.8333655934664	coherent
580.7971	0.0762044810981024	18	diastole	22	A	928.8333655934664	coherent
580.9493	0.0762044810981024	18	diastole	23	B	500.0	coherent
581.1023	0.0762044810981024	18	diastole	24	A	928.8333655934664	coherent
581.4071	0.0762044810981024	18	diastole	25	A	928.8333655934664	coherent
581.5593	0.0762044810981024	18	diastole	26	B	500.0	coherent
581.7123	0.0762044810981024	18	diastole	27	A	928.8333655934664	coherent
582.0271	0.0762044810981024	18	diastole	28	A	928.8333655934664	coherent
582.1792	0.0762044810981024	18	diastole	29	B	500.0	coherent
582.3322	0.0762044810981024	18	diastole	30	A	928.8333655934664	coherent
582.6571	0.0762044810981024	18	diastole	31	A	928.8333655934664	coherent
582.8093	0.0762044810981024	18	diastole	32	B	500.0	coherent
582.9623	0.0762044810981024	18	diastole	33	A	928.8333655934664	coherent
583.2972	0.0762044810981024	18	diastole	34	A	928.8333655934664	coherent
583.4493	0.0762044810981024	18	diastole	35	B	500.0	coherent
583.6024	0.0762044810981024	18	diastole	36	A	928.8333655934664	coherent
583.9442	0.0762044810981024	18	diastole	37	A	928.8333655934664	coherent
584.0975	0.0762044810981024	18	diastole	38	B	500.0	coherent
584.2518	0.0762044810981024	18	diastole	39	A	928.8333655934664	coherent
584.6097	0.0762044810981024	18	diastole	40	A	928.8333655934664	coherent
584.7655	0.0762044810981024	18	diastole	41	B	500.0	coherent
584.9222	0.0762044810981024	18	diastole	42	A	928.8333655934664	coherent
585.2613	0.0762044810981024	18	diastole	43	A	928.8333655934664	coherent
585.4171	0.0762044810981024	18	diastole	44	B	500.0	coherent
585.5738	0.0762044810981024	18	diastole	45	A	928.8333655934664	coherent
585.9127	0.0762044810981024	18	diastole	46	A	928.8333655934664	coherent
586.0708	0.0762044810981024	18	diastole	47	B	500.0	coherent
586.2298	0.0762044810981024	18	diastole	48	A	928.8333655934664	coherent
591.1377	0.0799051456851884	19	diastole	1	A	950.4996196948616	coherent
591.2971	0.0799051456851884	19	diastole	2	B	500.0	coherent
591.4573	0.0799051456851884	19	diastole	3	A	950.4996196948616	coherent
591.8359	0.0799051456851884	19	diastole	4	A	950.4996196948616	coherent
591.9968	0.0799051456851884	19	diastole	5	B	500.0	coherent
592.1584	0.0799051456851884	19	diastole	6	A	950.4996196948616	coherent
592.5259	0.0799051456851884	19	diastole	7	A	950.4996196948616	coherent
592.6868	0.0799051456851884	19	diastole	8	B	500.0	coherent
592.8484	0.0799051456851884	19	diastole	9	A	950.4996196948616	coherent
593.2272	0.0799051456851884	19	diastole	10	A	950.4996196948616	coherent
593.3918	0.0799051456851884	19	diastole	11	B	500.0	coherent
593.5572	0.0799051456851884	19	diastole	12	A	950.4996196948616	coherent
593.8976	0.0799051456851884	19	diastole	13	A	950.4996196948616	coherent
594.0637	0.0799051456851884	19	diastole	14	B	500.0	coherent
594.2306	0.0799051456851884	19	diastole	15	A	950.4996196948616	coherent
594.5477	0.0799051456851884	19	diastole	16	A	950.4996196948616	coherent
594.7138	0.0799051456851884	19	diastole	17	B	500.0	coherent
594.8807	0.0799051456851884	19	diastole	18	A	950.4996196948616	coherent
595.1876	0.0799051456851884	19	diastole	19	A	950.4996196948616	coherent
595.3537	0.0799051456851884	19	diastole	20	B	500.0	coherent
595.5206	0.0799051456851884	19	diastole	21	A	950.4996196948616	coherent
595.816	0.0799051456851884	19	diastole	22	A	950.4996196948616	coherent
595.9821	0.0799051456851884	19	diastole	23	B	500.0	coherent
596.149	0.0799051456851884	19	diastole	24	A	950.4996196948616	coherent
596.4359	0.0799051456851884	19	diastole	25	A	950.4996196948616	coherent
596.6021	0.0799051456851884	19	diastole	26	B	500.0	coherent
596.7689	0.0799051456851884	19	diastole	27	A	950.4996196948616	coherent
597.0318	0.0799051456851884	19	diastole	28	A	950.4996196948616	coherent
597.1954	0.0799051456851884	19	diastole	29	B	500.0	coherent
597.3598	0.0799051456851884	19	diastole	30	A	950.4996196948616	coherent
597.6262	0.0799051456851884	19	diastole	31	A	950.4996196948616	coherent
597.787	0.0799051456851884	19	diastole	32	B	500.0	coherent
597.9487	0.0799051456851884	19	diastole	33	A	950.4996196948616	coherent
598.2208	0.0799051456851884	19	diastole	34	A	950.4996196948616	coherent
598.3789	0.0799051456851884	19	diastole	35	B	500.0	coherent
598.5379	0.0799051456851884	19	diastole	36	A	950.4996196948616	coherent
598.8067	0.0799051456851884	19	diastole	37	A	950.4996196948616	coherent
598.9623	0.0799051456851884	19	diastole	38	B	500.0	coherent
599.1188	0.0799051456851884	19	diastole	39	A	950.4996196948616	coherent
599.3766	0.0799051456851884	19	diastole	40	A	950.4996196948616	coherent
599.5287	0.0799051456851884	19	diastole	41	B	500.0	coherent
599.6816	0.0799051456851884	19	diastole	42	A	950.4996196948616	coherent
599.9667	0.0799051456851884	19	diastole	43	A	950.4996196948616	coherent
600.1188	0.0799051456851884	19	diastole	44	B	500.0	coherent
600.2717	0.0799051456851884	19	diastole	45	A	950.4996196948616	coherent
602.2626	0.0750143680197652	20	diastole	1	A	972.6712675344384	coherent
602.4122	0.0750143680197652	20	diastole	2	B	500.0	coherent
602.5626	0.0750143680197652	20	diastole	3	A	972.6712675344384	coherent
602.8726	0.0750143680197652	20	diastole	4	A	972.6712675344384	coherent
603.0223	0.0750143680197652	20	diastole	5	B	500.0	coherent
603.1726	0.0750143680197652	20	diastole	6	A	972.6712675344384	coherent
603.4826	0.0750143680197652	20	diastole	7	A	972.6712675344384	coherent
603.6323	0.0750143680197652	20	diastole	8	B	500.0	coherent
603.7827	0.0750143680197652	20	diastole	9	A	972.6712675344384	coherent
604.1027	0.0750143680197652	20	diastole	10	A	972.6712675344384	coherent
604.2523	0.0750143680197652	20	diastole	11	B	500.0	coherent
604.4027	0.0750143680197652	20	diastole	12	A	972.6712675344384	coherent
604.7496	0.0750143680197652	20	diastole	13	A	972.6712675344384	coherent
604.9004	0.0750143680197652	20	diastole	14	B	500.0	coherent
605.0521	0.0750143680197652	20	diastole	15	A	972.6712675344384	coherent
605.3796	0.0750143680197652	20	diastole	16	A	972.6712675344384	coherent
605.5305	0.0750143680197652	20	diastole	17	B	500.0	coherent
605.6821	0.0750143680197652	20	diastole	18	A	972.6712675344384	coherent
606.054	0.0750143680197652	20	diastole	19	A	972.6712675344384	coherent
606.2074	0.0750143680197652	20	diastole	20	B	500.0	coherent
606.3616	0.0750143680197652	20	diastole	21	A	972.6712675344384	coherent
606.7175	0.0750143680197652	20	diastole	22	A	972.6712675344384	coherent
606.8734	0.0750143680197652	20	diastole	23	B	500.0	coherent
607.03	0.0750143680197652	20	diastole	24	A	972.6712675344384	coherent
607.382	0.0750143680197652	20	diastole	25	A	972.6712675344384	coherent
607.5403	0.0750143680197652	20	diastole	26	B	500.0	coherent
607.6994	0.0750143680197652	20	diastole	27	A	972.6712675344384	coherent
608.0323	0.0750143680197652	20	diastole	28	A	972.6712675344384	coherent
608.1907	0.0750143680197652	20	diastole	29	B	500.0	coherent
608.3498	0.0750143680197652	20	diastole	30	A	972.6712675344384	coherent
608.669	0.0750143680197652	20	diastole	31	A	972.6712675344384	coherent
608.8287	0.0750143680197652	20	diastole	32	B	500.0	coherent
608.989	0.0750143680197652	20	diastole	33	A	972.6712675344384	coherent
609.2986	0.0750143680197652	20	diastole	34	A	972.6712675344384	coherent
609.4582	0.0750143680197652	20	diastole	35	B	500.0	coherent
609.6186	0.0750143680197652	20	diastole	36	A	972.6712675344384	coherent
609.9289	0.0750143680197652	20	diastole	37	A	972.6712675344384	coherent
610.0886	0.0750143680197652	20	diastole	38	B	500.0	coherent
610.2489	0.0750143680197652	20	diastole	39	A	972.6712675344384	coherent
610.5489	0.0750143680197652	20	diastole	40	A	972.6712675344384	coherent
610.7086	0.0750143680197652	20	diastole	41	B	500.0	coherent
610.8689	0.0750143680197652	20	diastole	42	A	972.6712675344384	coherent
611.1522	0.0750143680197652	20	diastole	43	A	972.6712675344384	coherent
611.3106	0.0750143680197652	20	diastole	44	B	500.0	coherent
611.4697	0.0750143680197652	20	diastole	45	A	972.6712675344384	coherent
611.7722	0.0750143680197652	20	diastole	46	A	972.6712675344384	coherent
611.9306	0.0750143680197652	20	diastole	47	B	500.0	coherent
612.0897	0.0750143680197652	20	diastole	48	A	972.6712675344384	coherent
614.2872	0.0781036428525112	21	diastole	1	A	4999.999999999997	streaming
614.4435	0.0781036428525112	21	diastole	2	B	500.0	streaming
614.5995	0.0781036428525112	21	diastole	3	A	4999.999999999997	streaming
614.927	0.0781036428525112	21	diastole	4	A	4999.999999999997	streaming
615.0833	0.0781036428525112	21	diastole	5	B	500.0	streaming
615.2394	0.0781036428525112	21	diastole	6	A	4999.999999999997	streaming
615.557	0.0781036428525112	21	diastole	7	A	4999.999999999997	streaming
615.7133	0.0781036428525112	21	diastole	8	B	500.0	streaming
615.8694	0.0781036428525112	21	diastole	9	A	4999.999999999997	streaming
616.187	0.0781036428525112	21	diastole	10	A	4999.999999999997	streaming
616.3433	0.0781036428525112	21	diastole	11	B	500.0	streaming
616.4994	0.0781036428525112	21	diastole	12	A	4999.999999999997	streaming
616.844	0.0781036428525112	21	diastole	13	A	4999.999999999997	streaming
617.0015	0.0781036428525112	21	diastole	14	B	500.0	streaming
617.1589	0.0781036428525112	21	diastole	15	A	4999.999999999997	streaming
617.4742	0.0781036428525112	21	diastole	16	A	4999.999999999997	streaming
617.6318	0.0781036428525112	21	diastole	17	B	500.0	streaming
617.7892	0.0781036428525112	21	diastole	18	A	4999.999999999997	streaming
618.1042	0.0781036428525112	21	diastole	19	A	4999.999999999997	streaming
618.2618	0.0781036428525112	21	diastole	20	B	500.0	streaming
618.4192	0.0781036428525112	21	diastole	21	A	4999.999999999997	streaming
618.7259	0.0781036428525112	21	diastole	22	A	4999.999999999997	streaming
618.8835	0.0781036428525112	21	diastole	23	B	500.0	streaming
619.0409	0.0781036428525112	21	diastole	24	A	4999.999999999997	streaming
619.3476	0.0781036428525112	21	diastole	25	A	4999.999999999997	streaming
619.5052	0.0781036428525112	21	diastole	26	B	500.0	streaming
619.6626	0.0781036428525112	21	diastole	27	A	4999.999999999997	streaming
619.9576	0.0781036428525112	21	diastole	28	A	4999.999999999997	streaming
620.1152	0.0781036428525112	21	diastole	29	B	500.0	streaming
620.2726	0.0781036428525112	21	diastole	30	A	4999.999999999997	streaming
620.5676	0.0781036428525112	21	diastole	31	A	4999.999999999997	streaming
620.7252	0.0781036428525112	21	diastole	32	B	500.0	streaming
620.8826	0.0781036428525112	21	diastole	33	A	4999.999999999997	streaming
621.1717	0.0781036428525112	21	diastole	34	A	4999.999999999997	streaming
621.3283	0.0781036428525112	21	diastole	35	B	500.0	streaming
621.4847	0.0781036428525112	21	diastole	36	A	4999.999999999997	streaming
621.7722	0.0781036428525112	21	diastole	37	A	4999.999999999997	streaming
621.9271	0.0781036428525112	21	diastole	38	B	500.0	streaming
622.0817	0.0781036428525112	21	diastole	39	A	4999.999999999997	streaming
622.3922	0.0781036428525112	21	diastole	40	A	4999.999999999997	streaming
622.5471	0.0781036428525112	21	diastole	41	B	500.0	streaming
622.7017	0.0781036428525112	21	diastole	42	A	4999.999999999997	streaming
622.9852	0.0781036428525112	21	diastole	43	A	4999.999999999997	streaming
623.1388	0.0781036428525112	21	diastole	44	B	500.0	streaming
623.2922	0.0781036428525112	21	diastole	45	A	4999.999999999997	streaming
623.5794	0.0781036428525112	21	diastole	46	A	4999.999999999997	streaming
623.732	0.0781036428525112	21	diastole	47	B	500.0	streaming
623.8844	0.0781036428525112	21	diastole	48	A	4999.999999999997	streaming
626.3012	0.0762455124349799	22	systole	1	A	2745.3794129915964	streaming
626.4536	0.0762455124349799	22	systole	2	B	500.0	streaming
626.6061	0.0762455124349799	22	systole	3	A	2745.3794129915964	streaming
626.9211	0.0762455124349799	22	systole	4	A	2745.3794129915964	streaming
627.0735	0.0762455124349799	22	systole	5	B	500.0	streaming
627.226	0.0762455124349799	22	systole	6	A	2745.3794129915964	streaming
627.5507	0.0762455124349799	22	systole	7	A	2745.3794129915964	streaming
627.7032	0.0762455124349799	22	systole	8	B	500.0	streaming
627.8557	0.0762455124349799	22	systole	9	A	2745.3794129915964	streaming
628.1912	0.0762455124349799	22	systole	10	A	2745.3794129915964	streaming
628.3437	0.0762455124349799	22	systole	11	B	500.0	streaming
628.4962	0.0762455124349799	22	systole	12	A	2745.3794129915964	streaming
628.8317	0.0762455124349799	22	systole	13	A	2745.3794129915964	streaming
628.9842	0.0762455124349799	22	systole	14	B	500.0	streaming
629.1367	0.0762455124349799	22	systole	15	A	2745.3794129915964	streaming
629.4817	0.0762455124349799	22	systole	16	A	2745.3794129915964	streaming
629.6341	0.0762455124349799	22	systole	17	B	500.0	streaming
629.7867	0.0762455124349799	22	systole	18	A	2745.3794129915964	streaming
630.1463	0.0762455124349799	22	systole	19	A	2745.3794129915964	streaming
630.2999	0.0762455124349799	22	systole	20	B	500.0	streaming
630.4538	0.0762455124349799	22	systole	21	A	2745.3794129915964	streaming
630.8442	0.0762455124349799	22	systole	22	A	2745.3794129915964	streaming
631.0029	0.0762455124349799	22	systole	23	B	500.0	streaming
631.1618	0.0762455124349799	22	systole	24	A	2745.3794129915964	streaming
631.5238	0.0762455124349799	22	systole	25	A	2745.3794129915964	streaming
631.6825	0.0762455124349799	22	systole	26	B	500.0	streaming
631.8413	0.0762455124349799	22	systole	27	A	2745.3794129915964	streaming
632.2135	0.0762455124349799	22	systole	28	A	2745.3794129915964	streaming
632.3748	0.0762455124349799	22	systole	29	B	500.0	streaming
632.5362	0.0762455124349799	22	systole	30	A	2745.3794129915964	streaming
632.8723	0.0762455124349799	22	systole	31	A	2745.3794129915964	streaming
633.036	0.0762455124349799	22	systole	32	B	500.0	streaming
633.1998	0.0762455124349799	22	systole	33	A	2745.3794129915964	streaming
633.5221	0.0762455124349799	22	systole	34	A	2745.3794129915964	streaming
633.6858	0.0762455124349799	22	systole	35	B	500.0	streaming
633.8496	0.0762455124349799	22	systole	36	A	2745.3794129915964	streaming
634.1866	0.0762455124349799	22	systole	37	A	2745.3794129915964	streaming
634.3516	0.0762455124349799	22	systole	38	B	500.0	streaming
634.5166	0.0762455124349799	22	systole	39	A	2745.3794129915964	streaming
634.8266	0.0762455124349799	22	systole	40	A	2745.3794129915964	streaming
634.9916	0.0762455124349799	22	systole	41	B	500.0	streaming
635.1566	0.0762455124349799	22	systole	42	A	2745.3794129915964	streaming
635.4667	0.0762455124349799	22	systole	43	A	2745.3794129915964	streaming
635.6316	0.0762455124349799	22	systole	44	B	500.0	streaming
635.7966	0.0762455124349799	22	systole	45	A	2745.3794129915964	streaming
636.1067	0.0762455124349799	22	systole	46	A	2745.3794129915964	streaming
636.2716	0.0762455124349799	22	systole	47	B	500.0	streaming
636.4367	0.0762455124349799	22	systole	48	A	2745.3794129915964	streaming
640.1303	0.0775079347076825	23	diastole	1	A	4999.999999999997	streaming
640.2854	0.0775079347076825	23	diastole	2	B	500.0	streaming
640.4403	0.0775079347076825	23	diastole	3	A	4999.999999999997	streaming
640.7703	0.0775079347076825	23	diastole	4	A	4999.999999999997	streaming
640.9254	0.0775079347076825	23	diastole	5	B	500.0	streaming
641.0803	0.0775079347076825	23	diastole	6	A	4999.999999999997	streaming
641.4103	0.0775079347076825	23	diastole	7	A	4999.999999999997	streaming
641.5654	0.0775079347076825	23	diastole	8	B	500.0	streaming
641.7203	0.0775079347076825	23	diastole	9	A	4999.999999999997	streaming
642.0503	0.0775079347076825	23	diastole	10	A	4999.999999999997	streaming
642.2054	0.0775079347076825	23	diastole	11	B	500.0	streaming
642.3603	0.0775079347076825	23	diastole	12	A	4999.999999999997	streaming
642.7044	0.0775079347076825	23	diastole	13	A	4999.999999999997	streaming
642.862	0.0775079347076825	23	diastole	14	B	500.0	streaming
643.0194	0.0775079347076825	23	diastole	15	A	4999.999999999997	streaming
643.3701	0.0775079347076825	23	diastole	16	A	4999.999999999997	streaming
643.5303	0.0775079347076825	23	diastole	17	B	500.0	streaming
643.6901	0.0775079347076825	23	diastole	18	A	4999.999999999997	streaming
644.0102	0.0775079347076825	23	diastole	19	A	4999.999999999997	streaming
644.1703	0.0775079347076825	23	diastole	20	B	500.0	streaming
644.3302	0.0775079347076825	23	diastole	21	A	4999.999999999997	streaming
644.6502	0.0775079347076825	23	diastole	22	A	4999.999999999997	streaming
644.8103	0.0775079347076825	23	diastole	23	B	500.0	streaming
644.9702	0.0775079347076825	23	diastole	24	A	4999.999999999997	streaming
645.286	0.0775079347076825	23	diastole	25	A	4999.999999999997	streaming
645.4471	0.0775079347076825	23	diastole	26	B	500.0	streaming
645.6081	0.0775079347076825	23	diastole	27	A	4999.999999999997	streaming
645.9159	0.0775079347076825	23	diastole	28	A	4999.999999999997	streaming
646.077	0.0775079347076825	23	diastole	29	B	500.0	streaming
646.2379	0.0775079347076825	23	diastole	30	A	4999.999999999997	streaming
646.5558	0.0775079347076825	23	diastole	31	A	4999.999999999997	streaming
646.717	0.0775079347076825	23	diastole	32	B	500.0	streaming
646.8779	0.0775079347076825	23	diastole	33	A	4999.999999999997	streaming
647.1799	0.0775079347076825	23	diastole	34	A	4999.999999999997	streaming
647.34	0.0775079347076825	23	diastole	35	B	500.0	streaming
647.4999	0.0775079347076825	23	diastole	36	A	4999.999999999997	streaming
647.7958	0.0775079347076825	23	diastole	37	A	4999.999999999997	streaming
647.9535	0.0775079347076825	23	diastole	38	B	500.0	streaming
648.1109	0.0775079347076825	23	diastole	39	A	4999.999999999997	streaming
648.4359	0.0775079347076825	23	diastole	40	A	4999.999999999997	streaming
648.5935	0.0775079347076825	23	diastole	41	B	500.0	streaming
648.7509	0.0775079347076825	23	diastole	42	A	4999.999999999997	streaming
649.0759	0.0775079347076825	23	diastole	43	A	4999.999999999997	streaming
649.2335	0.0775079347076825	23	diastole	44	B	500.0	streaming
649.3909	0.0775079347076825	23	diastole	45	A	4999.999999999997	streaming
649.7159	0.0775079347076825	23	diastole	46	A	4999.999999999997	streaming
649.8735	0.0775079347076825	23	diastole	47	B	500.0	streaming
650.0309	0.0775079347076825	23	diastole	48	A	4999.999999999997	streaming
652.5294	0.0787558727897703	24	systole	1	A	1942.6308330494364	coherent
652.6868	0.0787558727897703	24	systole	2	B	500.0	coherent
652.8444	0.0787558727897703	24	systole	3	A	1942.6308330494364	coherent
653.1694	0.0787558727897703	24	systole	4	A	1942.6308330494364	coherent
653.3269	0.0787558727897703	24	systole	5	B	500.0	coherent
653.4845	0.0787558727897703	24	systole	6	A	1942.6308330494364	coherent
653.8094	0.0787558727897703	24	systole	7	A	1942.6308330494364	coherent
653.9669	0.0787558727897703	24	systole	8	B	500.0	coherent
654.1245	0.0787558727897703	24	systole	9	A	1942.6308330494364	coherent
654.454	0.0787558727897703	24	systole	10	A	1942.6308330494364	coherent
654.6126	0.0787558727897703	24	systole	11	B	500.0	coherent
654.7715	0.0787558727897703	24	systole	12	A	1942.6308330494364	coherent
655.094	0.0787558727897703	24	systole	13	A	1942.6308330494364	coherent
655.2526	0.0787558727897703	24	systole	14	B	500.0	coherent
655.4115	0.0787558727897703	24	systole	15	A	1942.6308330494364	coherent
655.7339	0.0787558727897703	24	systole	16	A	1942.6308330494364	coherent
655.8926	0.0787558727897703	24	systole	17	B	500.0	coherent
656.0514	0.0787558727897703	24	systole	18	A	1942.6308330494364	coherent
656.3784	0.0787558727897703	24	systole	19	A	1942.6308330494364	coherent
656.5383	0.0787558727897703	24	systole	20	B	500.0	coherent
656.6984	0.0787558727897703	24	systole	21	A	1942.6308330494364	coherent
657.0183	0.0787558727897703	24	systole	22	A	1942.6308330494364	coherent
657.1782	0.0787558727897703	24	systole	23	B	500.0	coherent
657.3382	0.0787558727897703	24	systole	24	A	1942.6308330494364	coherent
657.6582	0.0787558727897703	24	systole	25	A	1942.6308330494364	coherent
657.818	0.0787558727897703	24	systole	26	B	500.0	coherent
657.9781	0.0787558727897703	24	systole	27	A	1942.6308330494364	coherent
658.2737	0.0787558727897703	24	systole	28	A	1942.6308330494364	coherent
658.4324	0.0787558727897703	24	systole	29	B	500.0	coherent
658.5912	0.0787558727897703	24	systole	30	A	1942.6308330494364	coherent
658.8839	0.0787558727897703	24	systole	31	A	1942.6308330494364	coherent
659.0425	0.0787558727897703	24	systole	32	B	500.0	coherent
659.2014	0.0787558727897703	24	systole	33	A	1942.6308330494364	coherent
659.5038	0.0787558727897703	24	systole	34	A	1942.6308330494364	coherent
659.6625	0.0787558727897703	24	systole	35	B	500.0	coherent
659.8213	0.0787558727897703	24	systole	36	A	1942.6308330494364	coherent
660.1237	0.0787558727897703	24	systole	37	A	1942.6308330494364	coherent
660.2823	0.0787558727897703	24	systole	38	B	500.0	coherent
660.4412	0.0787558727897703	24	systole	39	A	1942.6308330494364	coherent
660.7293	0.0787558727897703	24	systole	40	A	1942.6308330494364	coherent
660.8867	0.0787558727897703	24	systole	41	B	500.0	coherent
661.0443	0.0787558727897703	24	systole	42	A	1942.6308330494364	coherent
661.3246	0.0787558727897703	24	systole	43	A	1942.6308330494364	coherent
661.4808	0.0787558727897703	24	systole	44	B	500.0	coherent
661.6371	0.0787558727897703	24	systole	45	A	1942.6308330494364	coherent
661.92	0.0787558727897703	24	systole	46	A	1942.6308330494364	coherent
662.0749	0.0787558727897703	24	systole	47	B	500.0	coherent
662.23	0.0787558727897703	24	systole	48	A	1942.6308330494364	coherent
664.0362	0.0762724174710456	25	diastole	1	A	4999.999999999997	streaming
664.1889	0.0762724174710456	25	diastole	2	B	500.0	streaming
664.3413	0.0762724174710456	25	diastole	3	A	4999.999999999997	streaming
664.6763	0.0762724174710456	25	diastole	4	A	4999.999999999997	streaming
664.829	0.0762724174710456	25	diastole	5	B	500.0	streaming
664.9814	0.0762724174710456	25	diastole	6	A	4999.999999999997	streaming
665.3334	0.0762724174710456	25	diastole	7	A	4999.999999999997	streaming
665.4872	0.0762724174710456	25	diastole	8	B	500.0	streaming
665.6409	0.0762724174710456	25	diastole	9	A	4999.999999999997	streaming
665.9834	0.0762724174710456	25	diastole	10	A	4999.999999999997	streaming
666.1373	0.0762724174710456	25	diastole	11	B	500.0	streaming
666.291	0.0762724174710456	25	diastole	12	A	4999.999999999997	streaming
666.6471	0.0762724174710456	25	diastole	13	A	4999.999999999997	streaming
666.8035	0.0762724174710456	25	diastole	14	B	500.0	streaming
666.9596	0.0762724174710456	25	diastole	15	A	4999.999999999997	streaming
667.3254	0.0762724174710456	25	diastole	16	A	4999.999999999997	streaming
667.4868	0.0762724174710456	25	diastole	17	B	500.0	streaming
667.6479	0.0762724174710456	25	diastole	18	A	4999.999999999997	streaming
667.9554	0.0762724174710456	25	diastole	19	A	4999.999999999997	streaming
668.1168	0.0762724174710456	25	diastole	20	B	500.0	streaming
668.2779	0.0762724174710456	25	diastole	21	A	4999.999999999997	streaming
668.5855	0.0762724174710456	25	diastole	22	A	4999.999999999997	streaming
668.7468	0.0762724174710456	25	diastole	23	B	500.0	streaming
668.9079	0.0762724174710456	25	diastole	24	A	4999.999999999997	streaming
669.2255	0.0762724174710456	25	diastole	25	A	4999.999999999997	streaming
669.3868	0.0762724174710456	25	diastole	26	B	500.0	streaming
669.5479	0.0762724174710456	25	diastole	27	A	4999.999999999997	streaming
669.8554	0.0762724174710456	25	diastole	28	A	4999.999999999997	streaming
670.0168	0.0762724174710456	25	diastole	29	B	500.0	streaming
670.1779	0.0762724174710456	25	diastole	30	A	4999.999999999997	streaming
670.4758	0.0762724174710456	25	diastole	31	A	4999.999999999997	streaming
670.6372	0.0762724174710456	25	diastole	32	B	500.0	streaming
670.7983	0.0762724174710456	25	diastole	33	A	4999.999999999997	streaming
671.0962	0.0762724174710456	25	diastole	34	A	4999.999999999997	streaming
671.2576	0.0762724174710456	25	diastole	35	B	500.0	streaming
671.4187	0.0762724174710456	25	diastole	36	A	4999.999999999997	streaming
671.6918	0.0762724174710456	25	diastole	37	A	4999.999999999997	streaming
671.8507	0.0762724174710456	25	diastole	38	B	500.0	streaming
672.0094	0.0762724174710456	25	diastole	39	A	4999.999999999997	streaming
672.3014	0.0762724174710456	25	diastole	40	A	4999.999999999997	streaming
672.4603	0.0762724174710456	25	diastole	41	B	500.0	streaming
672.619	0.0762724174710456	25	diastole	42	A	4999.999999999997	streaming
672.9044	0.0762724174710456	25	diastole	43	A	4999.999999999997	streaming
673.062	0.0762724174710456	25	diastole	44	B	500.0	streaming
673.2194	0.0762724174710456	25	diastole	45	A	4999.999999999997	streaming
673.5145	0.0762724174710456	25	diastole	46	A	4999.999999999997	streaming
673.6721	0.0762724174710456	25	diastole	47	B	500.0	streaming
673.8295	0.0762724174710456	25	diastole	48	A	4999.999999999997	streaming
676.9545	0.074377333803568	26	diastole	1	A	4999.999999999997	streaming
677.1034	0.074377333803568	26	diastole	2	B	500.0	streaming
677.252	0.074377333803568	26	diastole	3	A	4999.999999999997	streaming
677.5646	0.074377333803568	26	diastole	4	A	4999.999999999997	streaming
677.7134	0.074377333803568	26	diastole	5	B	500.0	streaming
677.862	0.074377333803568	26	diastole	6	A	4999.999999999997	streaming
678.1746	0.074377333803568	26	diastole	7	A	4999.999999999997	streaming
678.3235	0.074377333803568	26	diastole	8	B	500.0	streaming
678.4721	0.074377333803568	26	diastole	9	A	4999.999999999997	streaming
678.826	0.074377333803568	26	diastole	10	A	4999.999999999997	streaming
678.9751	0.074377333803568	26	diastole	11	B	500.0	streaming
679.124	0.074377333803568	26	diastole	12	A	4999.999999999997	streaming
679.5188	0.074377333803568	26	diastole	13	A	4999.999999999997	streaming
679.6701	0.074377333803568	26	diastole	14	B	500.0	streaming
679.8213	0.074377333803568	26	diastole	15	A	4999.999999999997	streaming
680.1988	0.074377333803568	26	diastole	16	A	4999.999999999997	streaming
680.3502	0.074377333803568	26	diastole	17	B	500.0	streaming
680.5013	0.074377333803568	26	diastole	18	A	4999.999999999997	streaming
680.8997	0.074377333803568	26	diastole	19	A	4999.999999999997	streaming
681.0548	0.074377333803568	26	diastole	20	B	500.0	streaming
681.2097	0.074377333803568	26	diastole	21	A	4999.999999999997	streaming
681.608	0.074377333803568	26	diastole	22	A	4999.999999999997	streaming
681.7681	0.074377333803568	26	diastole	23	B	500.0	streaming
681.928	0.074377333803568	26	diastole	24	A	4999.999999999997	streaming
682.2881	0.074377333803568	26	diastole	25	A	4999.999999999997	streaming
682.4482	0.074377333803568	26	diastole	26	B	500.0	streaming
682.6081	0.074377333803568	26	diastole	27	A	4999.999999999997	streaming
682.9865	0.074377333803568	26	diastole	28	A	4999.999999999997	streaming
683.1516	0.074377333803568	26	diastole	29	B	500.0	streaming
683.3165	0.074377333803568	26	diastole	30	A	4999.999999999997	streaming
683.6564	0.074377333803568	26	diastole	31	A	4999.999999999997	streaming
683.8216	0.074377333803568	26	diastole	32	B	500.0	streaming
683.9864	0.074377333803568	26	diastole	33	A	4999.999999999997	streaming
684.3268	0.074377333803568	26	diastole	34	A	4999.999999999997	streaming
684.4934	0.074377333803568	26	diastole	35	B	500.0	streaming
684.6598	0.074377333803568	26	diastole	36	A	4999.999999999997	streaming
684.9463	0.074377333803568	26	diastole	37	A	4999.999999999997	streaming
685.113	0.074377333803568	26	diastole	38	B	500.0	streaming
685.2793	0.074377333803568	26	diastole	39	A	4999.999999999997	streaming
685.5663	0.074377333803568	26	diastole	40	A	4999.999999999997	streaming
685.733	0.074377333803568	26	diastole	41	B	500.0	streaming
685.8993	0.074377333803568	26	diastole	42	A	4999.999999999997	streaming
694.1425	0.0743799786723684	27	systole	1	A	3970.34830453257	streaming
694.2901	0.0743799786723684	27	systole	2	B	500.0	streaming
694.4376	0.0743799786723684	27	systole	3	A	3970.34830453257	streaming
694.7425	0.0743799786723684	27	systole	4	A	3970.34830453257	streaming
694.8901	0.0743799786723684	27	systole	5	B	500.0	streaming
695.0375	0.0743799786723684	27	systole	6	A	3970.34830453257	streaming
695.3425	0.0743799786723684	27	systole	7	A	3970.34830453257	streaming
695.4901	0.0743799786723684	27	systole	8	B	500.0	streaming
695.6375	0.0743799786723684	27	systole	9	A	3970.34830453257	streaming
695.9325	0.0743799786723684	27	systole	10	A	3970.34830453257	streaming
696.0801	0.0743799786723684	27	systole	11	B	500.0	streaming
696.2275	0.0743799786723684	27	systole	12	A	3970.34830453257	streaming
696.5226	0.0743799786723684	27	systole	13	A	3970.34830453257	streaming
696.6702	0.0743799786723684	27	systole	14	B	500.0	streaming
696.8176	0.0743799786723684	27	systole	15	A	3970.34830453257	streaming
697.1125	0.0743799786723684	27	systole	16	A	3970.34830453257	streaming
697.2601	0.0743799786723684	27	systole	17	B	500.0	streaming
697.4075	0.0743799786723684	27	systole	18	A	3970.34830453257	streaming
697.7025	0.0743799786723684	27	systole	19	A	3970.34830453257	streaming
697.8501	0.0743799786723684	27	systole	20	B	500.0	streaming
697.9976	0.0743799786723684	27	systole	21	A	3970.34830453257	streaming
698.2926	0.0743799786723684	27	systole	22	A	3970.34830453257	streaming
698.4401	0.0743799786723684	27	systole	23	B	500.0	streaming
698.5876	0.0743799786723684	27	systole	24	A	3970.34830453257	streaming
698.883	0.0743799786723684	27	systole	25	A	3970.34830453257	streaming
699.0306	0.0743799786723684	27	systole	26	B	500.0	streaming
699.1781	0.0743799786723684	27	systole	27	A	3970.34830453257	streaming
699.4733	0.0743799786723684	27	systole	28	A	3970.34830453257	streaming
699.6209	0.0743799786723684	27	systole	29	B	500.0	streaming
699.7684	0.0743799786723684	27	systole	30	A	3970.34830453257	streaming
700.0629	0.0743799786723684	27	systole	31	A	3970.34830453257	streaming
700.2104	0.0743799786723684	27	systole	32	B	500.0	streaming
700.3579	0.0743799786723684	27	systole	33	A	3970.34830453257	streaming
700.6528	0.0743799786723684	27	systole	34	A	3970.34830453257	streaming
700.8003	0.0743799786723684	27	systole	35	B	500.0	streaming
700.9478	0.0743799786723684	27	systole	36	A	3970.34830453257	streaming
701.2428	0.0743799786723684	27	systole	37	A	3970.34830453257	streaming
701.3904	0.0743799786723684	27	systole	38	B	500.0	streaming
701.5379	0.0743799786723684	27	systole	39	A	3970.34830453257	streaming
701.8229	0.0743799786723684	27	systole	40	A	3970.34830453257	streaming
701.9704	0.0743799786723684	27	systole	41	B	500.0	streaming
702.1179	0.0743799786723684	27	systole	42	A	3970.34830453257	streaming
702.4129	0.0743799786723684	27	systole	43	A	3970.34830453257	streaming
702.5605	0.0743799786723684	27	systole	44	B	500.0	streaming
702.708	0.0743799786723684	27	systole	45	A	3970.34830453257	streaming
703.003	0.0743799786723684	27	systole	46	A	3970.34830453257	streaming
703.1506	0.0743799786723684	27	systole	47	B	500.0	streaming
703.298	0.0743799786723684	27	systole	48	A	3970.34830453257	streaming
703.6028	0.0743799786723684	27	systole	49	A	3970.34830453257	streaming
703.7504	0.0743799786723684	27	systole	50	B	500.0	streaming
703.8979	0.0743799786723684	27	systole	51	A	3970.34830453257	streaming
706.5828	0.0737610468349885	28	systole	1	A	2130.3297690552017	coherent
706.7303	0.0737610468349885	28	systole	2	B	500.0	coherent
706.8778	0.0737610468349885	28	systole	3	A	2130.3297690552017	coherent
707.1827	0.0737610468349885	28	systole	4	A	2130.3297690552017	coherent
707.3303	0.0737610468349885	28	systole	5	B	500.0	coherent
707.4778	0.0737610468349885	28	systole	6	A	2130.3297690552017	coherent
707.8118	0.0737610468349885	28	systole	7	A	2130.3297690552017	coherent
707.9617	0.0737610468349885	28	systole	8	B	500.0	coherent
708.1117	0.0737610468349885	28	systole	9	A	2130.3297690552017	coherent
708.4318	0.0737610468349885	28	systole	10	A	2130.3297690552017	coherent
708.5818	0.0737610468349885	28	systole	11	B	500.0	coherent
708.7318	0.0737610468349885	28	systole	12	A	2130.3297690552017	coherent
709.0517	0.0737610468349885	28	systole	13	A	2130.3297690552017	coherent
709.2018	0.0737610468349885	28	systole	14	B	500.0	coherent
709.3517	0.0737610468349885	28	systole	15	A	2130.3297690552017	coherent
709.6717	0.0737610468349885	28	systole	16	A	2130.3297690552017	coherent
709.8217	0.0737610468349885	28	systole	17	B	500.0	coherent
709.9717	0.0737610468349885	28	systole	18	A	2130.3297690552017	coherent
710.3154	0.0737610468349885	28	systole	19	A	2130.3297690552017	coherent
710.4691	0.0737610468349885	28	systole	20	B	500.0	coherent
710.6228	0.0737610468349885	28	systole	21	A	2130.3297690552017	coherent
710.9453	0.0737610468349885	28	systole	22	A	2130.3297690552017	coherent
711.0991	0.0737610468349885	28	systole	23	B	500.0	coherent
711.2528	0.0737610468349885	28	systole	24	A	2130.3297690552017	coherent
711.5899	0.0737610468349885	28	systole	25	A	2130.3297690552017	coherent
711.7449	0.0737610468349885	28	systole	26	B	500.0	coherent
711.8999	0.0737610468349885	28	systole	27	A	2130.3297690552017	coherent
712.22	0.0737610468349885	28	systole	28	A	2130.3297690552017	coherent
712.3751	0.0737610468349885	28	systole	29	B	500.0	coherent
712.53	0.0737610468349885	28	systole	30	A	2130.3297690552017	coherent
712.8501	0.0737610468349885	28	systole	31	A	2130.3297690552017	coherent
713.0051	0.0737610468349885	28	systole	32	B	500.0	coherent
713.1601	0.0737610468349885	28	systole	33	A	2130.3297690552017	coherent
713.4846	0.0737610468349885	28	systole	34	A	2130.3297690552017	coherent
713.6409	0.0737610468349885	28	systole	35	B	500.0	coherent
713.7971	0.0737610468349885	28	systole	36	A	2130.3297690552017	coherent
714.1046	0.0737610468349885	28	systole	37	A	2130.3297690552017	coherent
714.2609	0.0737610468349885	28	systole	38	B	500.0	coherent
714.4171	0.0737610468349885	28	systole	39	A	2130.3297690552017	coherent
714.7245	0.0737610468349885	28	systole	40	A	2130.3297690552017	coherent
714.8808	0.0737610468349885	28	systole	41	B	500.0	coherent
715.0371	0.0737610468349885	28	systole	42	A	2130.3297690552017	coherent
715.3446	0.0737610468349885	28	systole	43	A	2130.3297690552017	coherent
715.5009	0.0737610468349885	28	systole	44	B	500.0	coherent
715.6571	0.0737610468349885	28	systole	45	A	2130.3297690552017	coherent
715.9647	0.0737610468349885	28	systole	46	A	2130.3297690552017	coherent
716.121	0.0737610468349885	28	systole	47	B	500.0	coherent
716.2772	0.0737610468349885	28	systole	48	A	2130.3297690552017	coherent
720.1812	0.0762580546725075	29	systole	1	A	3457.353363503972	streaming
720.3336	0.0762580546725075	29	systole	2	B	500.0	streaming
720.4862	0.0762580546725075	29	systole	3	A	3457.353363503972	streaming
720.8012	0.0762580546725075	29	systole	4	A	3457.353363503972	streaming
720.9537	0.0762580546725075	29	systole	5	B	500.0	streaming
721.1062	0.0762580546725075	29	systole	6	A	3457.353363503972	streaming
721.4613	0.0762580546725075	29	systole	7	A	3457.353363503972	streaming
721.6138	0.0762580546725075	29	systole	8	B	500.0	streaming
721.7663	0.0762580546725075	29	systole	9	A	3457.353363503972	streaming
722.1213	0.0762580546725075	29	systole	10	A	3457.353363503972	streaming
722.2738	0.0762580546725075	29	systole	11	B	500.0	streaming
722.4264	0.0762580546725075	29	systole	12	A	3457.353363503972	streaming
722.7814	0.0762580546725075	29	systole	13	A	3457.353363503972	streaming
722.9338	0.0762580546725075	29	systole	14	B	500.0	streaming
723.0864	0.0762580546725075	29	systole	15	A	3457.353363503972	streaming
723.4559	0.0762580546725075	29	systole	16	A	3457.353363503972	streaming
723.6096	0.0762580546725075	29	systole	17	B	500.0	streaming
723.7632	0.0762580546725075	29	systole	18	A	3457.353363503972	streaming
724.1302	0.0762580546725075	29	systole	19	A	3457.353363503972	streaming
724.2853	0.0762580546725075	29	systole	20	B	500.0	streaming
724.4401	0.0762580546725075	29	systole	21	A	3457.353363503972	streaming
724.7905	0.0762580546725075	29	systole	22	A	3457.353363503972	streaming
724.9454	0.0762580546725075	29	systole	23	B	500.0	streaming
725.1005	0.0762580546725075	29	systole	24	A	3457.353363503972	streaming
725.4506	0.0762580546725075	29	systole	25	A	3457.353363503972	streaming
725.6055	0.0762580546725075	29	systole	26	B	500.0	streaming
725.7606	0.0762580546725075	29	systole	27	A	3457.353363503972	streaming
726.1288	0.0762580546725075	29	systole	28	A	3457.353363503972	streaming
726.2887	0.0762580546725075	29	systole	29	B	500.0	streaming
726.4488	0.0762580546725075	29	systole	30	A	3457.353363503972	streaming
726.7925	0.0762580546725075	29	systole	31	A	3457.353363503972	streaming
726.9562	0.0762580546725075	29	systole	32	B	500.0	streaming
727.12	0.0762580546725075	29	systole	33	A	3457.353363503972	streaming
727.4426	0.0762580546725075	29	systole	34	A	3457.353363503972	streaming
727.6062	0.0762580546725075	29	systole	35	B	500.0	streaming
727.77	0.0762580546725075	29	systole	36	A	3457.353363503972	streaming
728.0824	0.0762580546725075	29	systole	37	A	3457.353363503972	streaming
728.2461	0.0762580546725075	29	systole	38	B	500.0	streaming
728.4097	0.0762580546725075	29	systole	39	A	3457.353363503972	streaming
728.6978	0.0762580546725075	29	systole	40	A	3457.353363503972	streaming
728.8602	0.0762580546725075	29	systole	41	B	500.0	streaming
729.0226	0.0762580546725075	29	systole	42	A	3457.353363503972	streaming
729.3177	0.0762580546725075	29	systole	43	A	3457.353363503972	streaming
729.4801	0.0762580546725075	29	systole	44	B	500.0	streaming
729.6427	0.0762580546725075	29	systole	45	A	3457.353363503972	streaming
733.6746	0.0760974622971843	30	diastole	1	A	1066.651739219328	coherent
733.8266	0.0760974622971843	30	diastole	2	B	500.0	coherent
733.979	0.0760974622971843	30	diastole	3	A	1066.651739219328	coherent
734.2849	0.0760974622971843	30	diastole	4	A	1066.651739219328	coherent
734.4368	0.0760974622971843	30	diastole	5	B	500.0	coherent
734.5892	0.0760974622971843	30	diastole	6	A	1066.651739219328	coherent
734.8951	0.0760974622971843	30	diastole	7	A	1066.651739219328	coherent
735.0471	0.0760974622971843	30	diastole	8	B	500.0	coherent
735.1995	0.0760974622971843	30	diastole	9	A	1066.651739219328	coherent
735.5466	0.0760974622971843	30	diastole	10	A	1066.651739219328	coherent
735.6988	0.0760974622971843	30	diastole	11	B	500.0	coherent
735.8515	0.0760974622971843	30	diastole	12	A	1066.651739219328	coherent
736.1966	0.0760974622971843	30	diastole	13	A	1066.651739219328	coherent
736.3488	0.0760974622971843	30	diastole	14	B	500.0	coherent
736.5015	0.0760974622971843	30	diastole	15	A	1066.651739219328	coherent
736.8467	0.0760974622971843	30	diastole	16	A	1066.651739219328	coherent
736.9989	0.0760974622971843	30	diastole	17	B	500.0	coherent
737.1515	0.0760974622971843	30	diastole	18	A	1066.651739219328	coherent
737.5071	0.0760974622971843	30	diastole	19	A	1066.651739219328	coherent
737.6594	0.0760974622971843	30	diastole	20	B	500.0	coherent
737.8122	0.0760974622971843	30	diastole	21	A	1066.651739219328	coherent
738.167	0.0760974622971843	30	diastole	22	A	1066.651739219328	coherent
738.3194	0.0760974622971843	30	diastole	23	B	500.0	coherent
738.4721	0.0760974622971843	30	diastole	24	A	1066.651739219328	coherent
738.8694	0.0760974622971843	30	diastole	25	A	1066.651739219328	coherent
739.0292	0.0760974622971843	30	diastole	26	B	500.0	coherent
739.1894	0.0760974622971843	30	diastole	27	A	1066.651739219328	coherent
739.5336	0.0760974622971843	30	diastole	28	A	1066.651739219328	coherent
739.6958	0.0760974622971843	30	diastole	29	B	500.0	coherent
739.8586	0.0760974622971843	30	diastole	30	A	1066.651739219328	coherent
740.1835	0.0760974622971843	30	diastole	31	A	1066.651739219328	coherent
740.3458	0.0760974622971843	30	diastole	32	B	500.0	coherent
740.5085	0.0760974622971843	30	diastole	33	A	1066.651739219328	coherent
740.8137	0.0760974622971843	30	diastole	34	A	1066.651739219328	coherent
740.9759	0.0760974622971843	30	diastole	35	B	500.0	coherent
741.1386	0.0760974622971843	30	diastole	36	A	1066.651739219328	coherent
741.4436	0.0760974622971843	30	diastole	37	A	1066.651739219328	coherent
741.6059	0.0760974622971843	30	diastole	38	B	500.0	coherent
741.7686	0.0760974622971843	30	diastole	39	A	1066.651739219328	coherent
742.0735	0.0760974622971843	30	diastole	40	A	1066.651739219328	coherent
742.2358	0.0760974622971843	30	diastole	41	B	500.0	coherent
742.3985	0.0760974622971843	30	diastole	42	A	1066.651739219328	coherent
745.8073	0.0781326151045505	31	diastole	1	A	4999.999999999997	streaming
745.9636	0.0781326151045505	31	diastole	2	B	500.0	streaming
746.1198	0.0781326151045505	31	diastole	3	A	4999.999999999997	streaming
746.4672	0.0781326151045505	31	diastole	4	A	4999.999999999997	streaming
746.6236	0.0781326151045505	31	diastole	5	B	500.0	streaming
746.7798	0.0781326151045505	31	diastole	6	A	4999.999999999997	streaming
747.1272	0.0781326151045505	31	diastole	7	A	4999.999999999997	streaming
747.2836	0.0781326151045505	31	diastole	8	B	500.0	streaming
747.4398	0.0781326151045505	31	diastole	9	A	4999.999999999997	streaming
747.7943	0.0781326151045505	31	diastole	10	A	4999.999999999997	streaming
747.952	0.0781326151045505	31	diastole	11	B	500.0	streaming
748.1094	0.0781326151045505	31	diastole	12	A	4999.999999999997	streaming
748.4485	0.0781326151045505	31	diastole	13	A	4999.999999999997	streaming
748.6087	0.0781326151045505	31	diastole	14	B	500.0	streaming
748.7686	0.0781326151045505	31	diastole	15	A	4999.999999999997	streaming
749.0683	0.0781326151045505	31	diastole	16	A	4999.999999999997	streaming
749.2285	0.0781326151045505	31	diastole	17	B	500.0	streaming
749.3884	0.0781326151045505	31	diastole	18	A	4999.999999999997	streaming
749.6885	0.0781326151045505	31	diastole	19	A	4999.999999999997	streaming
749.8487	0.0781326151045505	31	diastole	20	B	500.0	streaming
750.0086	0.0781326151045505	31	diastole	21	A	4999.999999999997	streaming
750.3085	0.0781326151045505	31	diastole	22	A	4999.999999999997	streaming
750.4687	0.0781326151045505	31	diastole	23	B	500.0	streaming
750.6285	0.0781326151045505	31	diastole	24	A	4999.999999999997	streaming
750.9386	0.0781326151045505	31	diastole	25	A	4999.999999999997	streaming
751.0987	0.0781326151045505	31	diastole	26	B	500.0	streaming
751.2586	0.0781326151045505	31	diastole	27	A	4999.999999999997	streaming
751.5615	0.0781326151045505	31	diastole	28	A	4999.999999999997	streaming
751.7203	0.0781326151045505	31	diastole	29	B	500.0	streaming
751.879	0.0781326151045505	31	diastole	30	A	4999.999999999997	streaming
752.1742	0.0781326151045505	31	diastole	31	A	4999.999999999997	streaming
752.3318	0.0781326151045505	31	diastole	32	B	500.0	streaming
752.4892	0.0781326151045505	31	diastole	33	A	4999.999999999997	streaming
752.7941	0.0781326151045505	31	diastole	34	A	4999.999999999997	streaming
752.9517	0.0781326151045505	31	diastole	35	B	500.0	streaming
753.1091	0.0781326151045505	31	diastole	36	A	4999.999999999997	streaming
753.4241	0.0781326151045505	31	diastole	37	A	4999.999999999997	streaming
753.5818	0.0781326151045505	31	diastole	38	B	500.0	streaming
753.7391	0.0781326151045505	31	diastole	39	A	4999.999999999997	streaming
754.054	0.0781326151045505	31	diastole	40	A	4999.999999999997	streaming
754.2117	0.0781326151045505	31	diastole	41	B	500.0	streaming
754.369	0.0781326151045505	31	diastole	42	A	4999.999999999997	streaming
756.2091	0.0787489750073291	32	systole	1	A	3378.544393000609	streaming
756.3667	0.0787489750073291	32	systole	2	B	500.0	streaming
756.524	0.0787489750073291	32	systole	3	A	3378.544393000609	streaming
756.8245	0.0787489750073291	32	systole	4	A	3378.544393000609	streaming
756.9809	0.0787489750073291	32	systole	5	B	500.0	streaming
757.137	0.0787489750073291	32	systole	6	A	3378.544393000609	streaming
757.4301	0.0787489750073291	32	systole	7	A	3378.544393000609	streaming
757.5853	0.0787489750073291	32	systole	8	B	500.0	streaming
757.7401	0.0787489750073291	32	systole	9	A	3378.544393000609	streaming
758.0402	0.0787489750073291	32	systole	10	A	3378.544393000609	streaming
758.1954	0.0787489750073291	32	systole	11	B	500.0	streaming
758.3502	0.0787489750073291	32	systole	12	A	3378.544393000609	streaming
758.6502	0.0787489750073291	32	systole	13	A	3378.544393000609	streaming
758.8054	0.0787489750073291	32	systole	14	B	500.0	streaming
758.9602	0.0787489750073291	32	systole	15	A	3378.544393000609	streaming
759.2703	0.0787489750073291	32	systole	16	A	3378.544393000609	streaming
759.4254	0.0787489750073291	32	systole	17	B	500.0	streaming
759.5803	0.0787489750073291	32	systole	18	A	3378.544393000609	streaming
759.8802	0.0787489750073291	32	systole	19	A	3378.544393000609	streaming
760.0354	0.0787489750073291	32	systole	20	B	500.0	streaming
760.1902	0.0787489750073291	32	systole	21	A	3378.544393000609	streaming
760.5102	0.0787489750073291	32	systole	22	A	3378.544393000609	streaming
760.6653	0.0787489750073291	32	systole	23	B	500.0	streaming
