onset	duration	trial_num	trial_type	tone_num	tone_type	frequency	response
190.3276	0.1325008357816841	1	systole	1	A	1578.5670027440333	coherent
190.5927	0.1325008357816841	1	systole	2	B	500.0	coherent
190.8576	0.1325008357816841	1	systole	3	A	1578.5670027440333	coherent
191.3475	0.1325008357816841	1	systole	4	A	1578.5670027440333	coherent
191.6127	0.1325008357816841	1	systole	5	B	500.0	coherent
191.8775	0.1325008357816841	1	systole	6	A	1578.5670027440333	coherent
192.3134	0.1325008357816841	1	systole	7	A	1578.5670027440333	coherent
192.5749	0.1325008357816841	1	systole	8	B	500.0	coherent
192.836	0.1325008357816841	1	systole	9	A	1578.5670027440333	coherent
193.4313	0.1325008357816841	1	systole	10	A	1578.5670027440333	coherent
193.7003	0.1325008357816841	1	systole	11	B	500.0	coherent
193.9689	0.1325008357816841	1	systole	12	A	1578.5670027440333	coherent
194.4661	0.1325008357816841	1	systole	13	A	1578.5670027440333	coherent
194.7363	0.1325008357816841	1	systole	14	B	500.0	coherent
195.0062	0.1325008357816841	1	systole	15	A	1578.5670027440333	coherent
195.4484	0.1325008357816841	1	systole	16	A	1578.5670027440333	coherent
195.7111	0.1325008357816841	1	systole	17	B	500.0	coherent
195.9734	0.1325008357816841	1	systole	18	A	1578.5670027440333	coherent
196.5224	0.1325008357816841	1	systole	19	A	1578.5670027440333	coherent
196.7889	0.1325008357816841	1	systole	20	B	500.0	coherent
197.055	0.1325008357816841	1	systole	21	A	1578.5670027440333	coherent
197.5632	0.1325008357816841	1	systole	22	A	1578.5670027440333	coherent
197.8271	0.1325008357816841	1	systole	23	B	500.0	coherent
198.0907	0.1325008357816841	1	systole	24	A	1578.5670027440333	coherent
198.5294	0.1325008357816841	1	systole	25	A	1578.5670027440333	coherent
198.7896	0.1325008357816841	1	systole	26	B	500.0	coherent
199.0494	0.1325008357816841	1	systole	27	A	1578.5670027440333	coherent
208.5275	0.118755290255649	2	diastole	1	A	1578.5670027440333	coherent
208.7627	0.118755290255649	2	diastole	2	B	500.0	coherent
208.9976	0.118755290255649	2	diastole	3	A	1578.5670027440333	coherent
209.4375	0.118755290255649	2	diastole	4	A	1578.5670027440333	coherent
209.6727	0.118755290255649	2	diastole	5	B	500.0	coherent
209.9075	0.118755290255649	2	diastole	6	A	1578.5670027440333	coherent
210.3875	0.118755290255649	2	diastole	7	A	1578.5670027440333	coherent
210.6227	0.118755290255649	2	diastole	8	B	500.0	coherent
210.8575	0.118755290255649	2	diastole	9	A	1578.5670027440333	coherent
211.3775	0.118755290255649	2	diastole	10	A	1578.5670027440333	coherent
211.6127	0.118755290255649	2	diastole	11	B	500.0	coherent
211.8475	0.118755290255649	2	diastole	12	A	1578.5670027440333	coherent
212.3075	0.118755290255649	2	diastole	13	A	1578.5670027440333	coherent
212.5427	0.118755290255649	2	diastole	14	B	500.0	coherent
212.7775	0.118755290255649	2	diastole	15	A	1578.5670027440333	coherent
213.1775	0.118755290255649	2	diastole	16	A	1578.5670027440333	coherent
213.4127	0.118755290255649	2	diastole	17	B	500.0	coherent
213.6475	0.118755290255649	2	diastole	18	A	1578.5670027440333	coherent
214.0475	0.118755290255649	2	diastole	19	A	1578.5670027440333	coherent
214.2827	0.118755290255649	2	diastole	20	B	500.0	coherent
214.5175	0.118755290255649	2	diastole	21	A	1578.5670027440333	coherent
215.0574	0.118755290255649	2	diastole	22	A	1578.5670027440333	coherent
215.2926	0.118755290255649	2	diastole	23	B	500.0	coherent
215.5274	0.118755290255649	2	diastole	24	A	1578.5670027440333	coherent
216.0674	0.118755290255649	2	diastole	25	A	1578.5670027440333	coherent
216.3025	0.118755290255649	2	diastole	26	B	500.0	coherent
216.5373	0.118755290255649	2	diastole	27	A	1578.5670027440333	coherent
221.4114	0.1175134529476054	3	systole	1	A	2180.0224995339627	coherent
221.6501	0.1175134529476054	3	systole	2	B	500.0	coherent
221.8889	0.1175134529476054	3	systole	3	A	2180.0224995339627	coherent
222.4447	0.1175134529476054	3	systole	4	A	2180.0224995339627	coherent
222.6872	0.1175134529476054	3	systole	5	B	500.0	coherent
222.9296	0.1175134529476054	3	systole	6	A	2180.0224995339627	coherent
223.4643	0.1175134529476054	3	systole	7	A	2180.0224995339627	coherent
223.7068	0.1175134529476054	3	systole	8	B	500.0	coherent
223.9493	0.1175134529476054	3	systole	9	A	2180.0224995339627	coherent
224.4344	0.1175134529476054	3	systole	10	A	2180.0224995339627	coherent
224.677	0.1175134529476054	3	systole	11	B	500.0	coherent
224.9195	0.1175134529476054	3	systole	12	A	2180.0224995339627	coherent
225.4789	0.1175134529476054	3	systole	13	A	2180.0224995339627	coherent
225.7227	0.1175134529476054	3	systole	14	B	500.0	coherent
225.9664	0.1175134529476054	3	systole	15	A	2180.0224995339627	coherent
226.5282	0.1175134529476054	3	systole	16	A	2180.0224995339627	coherent
226.7745	0.1175134529476054	3	systole	17	B	500.0	coherent
227.0207	0.1175134529476054	3	systole	18	A	2180.0224995339627	coherent
227.4682	0.1175134529476054	3	systole	19	A	2180.0224995339627	coherent
227.7145	0.1175134529476054	3	systole	20	B	500.0	coherent
227.9607	0.1175134529476054	3	systole	21	A	2180.0224995339627	coherent
228.339	0.1175134529476054	3	systole	22	A	2180.0224995339627	coherent
228.5828	0.1175134529476054	3	systole	23	B	500.0	coherent
228.8265	0.1175134529476054	3	systole	24	A	2180.0224995339627	coherent
229.249	0.1175134529476054	3	systole	25	A	2180.0224995339627	coherent
229.4928	0.1175134529476054	3	systole	26	B	500.0	coherent
229.7365	0.1175134529476054	3	systole	27	A	2180.0224995339627	coherent
230.159	0.1175134529476054	3	systole	28	A	2180.0224995339627	coherent
230.4028	0.1175134529476054	3	systole	29	B	500.0	coherent
230.6465	0.1175134529476054	3	systole	30	A	2180.0224995339627	coherent
236.8508	0.1230972436023876	4	diastole	1	A	2180.0224995339627	coherent
237.097	0.1230972436023876	4	diastole	2	B	500.0	coherent
237.3432	0.1230972436023876	4	diastole	3	A	2180.0224995339627	coherent
237.9504	0.1230972436023876	4	diastole	4	A	2180.0224995339627	coherent
238.2054	0.1230972436023876	4	diastole	5	B	500.0	coherent
238.4604	0.1230972436023876	4	diastole	6	A	2180.0224995339627	coherent
239.012	0.1230972436023876	4	diastole	7	A	2180.0224995339627	coherent
239.2708	0.1230972436023876	4	diastole	8	B	500.0	coherent
239.5295	0.1230972436023876	4	diastole	9	A	2180.0224995339627	coherent
240.052	0.1230972436023876	4	diastole	10	A	2180.0224995339627	coherent
240.3108	0.1230972436023876	4	diastole	11	B	500.0	coherent
240.5695	0.1230972436023876	4	diastole	12	A	2180.0224995339627	coherent
241.1561	0.1230972436023876	4	diastole	13	A	2180.0224995339627	coherent
241.4174	0.1230972436023876	4	diastole	14	B	500.0	coherent
241.6786	0.1230972436023876	4	diastole	15	A	2180.0224995339627	coherent
242.2461	0.1230972436023876	4	diastole	16	A	2180.0224995339627	coherent
242.5074	0.1230972436023876	4	diastole	17	B	500.0	coherent
242.7686	0.1230972436023876	4	diastole	18	A	2180.0224995339627	coherent
243.3564	0.1230972436023876	4	diastole	19	A	2180.0224995339627	coherent
243.6177	0.1230972436023876	4	diastole	20	B	500.0	coherent
243.8789	0.1230972436023876	4	diastole	21	A	2180.0224995339627	coherent
244.4667	0.1230972436023876	4	diastole	22	A	2180.0224995339627	coherent
244.728	0.1230972436023876	4	diastole	23	B	500.0	coherent
244.9892	0.1230972436023876	4	diastole	24	A	2180.0224995339627	coherent
245.4866	0.1230972436023876	4	diastole	25	A	2180.0224995339627	coherent
245.7479	0.1230972436023876	4	diastole	26	B	500.0	coherent
246.0091	0.1230972436023876	4	diastole	27	A	2180.0224995339627	coherent
254.5302	0.138157771580154	5	diastole	1	A	1987.9452401467304	coherent
254.8115	0.138157771580154	5	diastole	2	B	500.0	coherent
255.0929	0.138157771580154	5	diastole	3	A	1987.9452401467304	coherent
255.6503	0.138157771580154	5	diastole	4	A	1987.9452401467304	coherent
255.9316	0.138157771580154	5	diastole	5	B	500.0	coherent
256.2129	0.138157771580154	5	diastole	6	A	1987.9452401467304	coherent
256.8314	0.138157771580154	5	diastole	7	A	1987.9452401467304	coherent
257.1164	0.138157771580154	5	diastole	8	B	500.0	coherent
257.4015	0.138157771580154	5	diastole	9	A	1987.9452401467304	coherent
257.9413	0.138157771580154	5	diastole	10	A	1987.9452401467304	coherent
258.2263	0.138157771580154	5	diastole	11	B	500.0	coherent
258.5114	0.138157771580154	5	diastole	12	A	1987.9452401467304	coherent
259.0512	0.138157771580154	5	diastole	13	A	1987.9452401467304	coherent
259.3362	0.138157771580154	5	diastole	14	B	500.0	coherent
259.6213	0.138157771580154	5	diastole	15	A	1987.9452401467304	coherent
260.0801	0.138157771580154	5	diastole	16	A	1987.9452401467304	coherent
260.3614	0.138157771580154	5	diastole	17	B	500.0	coherent
260.6427	0.138157771580154	5	diastole	18	A	1987.9452401467304	coherent
261.19	0.138157771580154	5	diastole	19	A	1987.9452401467304	coherent
261.4713	0.138157771580154	5	diastole	20	B	500.0	coherent
261.7526	0.138157771580154	5	diastole	21	A	1987.9452401467304	coherent
262.3439	0.138157771580154	5	diastole	22	A	1987.9452401467304	coherent
262.6276	0.138157771580154	5	diastole	23	B	500.0	coherent
262.9115	0.138157771580154	5	diastole	24	A	1987.9452401467304	coherent
267.8712	0.1381218374590389	6	diastole	1	A	2942.014383864825	coherent
268.1474	0.1381218374590389	6	diastole	2	B	500.0	coherent
268.4236	0.1381218374590389	6	diastole	3	A	2942.014383864825	coherent
268.9929	0.1381218374590389	6	diastole	4	A	2942.014383864825	coherent
269.2691	0.1381218374590389	6	diastole	5	B	500.0	coherent
269.5453	0.1381218374590389	6	diastole	6	A	2942.014383864825	coherent
269.9912	0.1381218374590389	6	diastole	7	A	2942.014383864825	coherent
270.2675	0.1381218374590389	6	diastole	8	B	500.0	coherent
270.5437	0.1381218374590389	6	diastole	9	A	2942.014383864825	coherent
270.9895	0.1381218374590389	6	diastole	10	A	2942.014383864825	coherent
271.2658	0.1381218374590389	6	diastole	11	B	500.0	coherent
271.542	0.1381218374590389	6	diastole	12	A	2942.014383864825	coherent
271.9355	0.1381218374590389	6	diastole	13	A	2942.014383864825	coherent
272.2092	0.1381218374590389	6	diastole	14	B	500.0	coherent
272.4829	0.1381218374590389	6	diastole	15	A	2942.014383864825	coherent
272.9173	0.1381218374590389	6	diastole	16	A	2942.014383864825	coherent
273.1861	0.1381218374590389	6	diastole	17	B	500.0	coherent
273.4548	0.1381218374590389	6	diastole	18	A	2942.014383864825	coherent
274.0455	0.1381218374590389	6	diastole	19	A	2942.014383864825	coherent
274.3193	0.1381218374590389	6	diastole	20	B	500.0	coherent
274.593	0.1381218374590389	6	diastole	21	A	2942.014383864825	coherent
275.1655	0.1381218374590389	6	diastole	22	A	2942.014383864825	coherent
275.4393	0.1381218374590389	6	diastole	23	B	500.0	coherent
275.713	0.1381218374590389	6	diastole	24	A	2942.014383864825	coherent
276.1525	0.1381218374590389	6	diastole	25	A	2942.014383864825	coherent
276.4187	0.1381218374590389	6	diastole	26	B	500.0	coherent
276.6849	0.1381218374590389	6	diastole	27	A	2942.014383864825	coherent
283.8019	0.1350319179764483	7	diastole	1	A	2446.423693900757	coherent
284.0696	0.1350319179764483	7	diastole	2	B	500.0	coherent
284.337	0.1350319179764483	7	diastole	3	A	2446.423693900757	coherent
284.8819	0.1350319179764483	7	diastole	4	A	2446.423693900757	coherent
285.1496	0.1350319179764483	7	diastole	5	B	500.0	coherent
285.417	0.1350319179764483	7	diastole	6	A	2446.423693900757	coherent
285.9619	0.1350319179764483	7	diastole	7	A	2446.423693900757	coherent
286.2296	0.1350319179764483	7	diastole	8	B	500.0	coherent
286.4969	0.1350319179764483	7	diastole	9	A	2446.423693900757	coherent
287.0518	0.1350319179764483	7	diastole	10	A	2446.423693900757	coherent
287.3195	0.1350319179764483	7	diastole	11	B	500.0	coherent
287.5869	0.1350319179764483	7	diastole	12	A	2446.423693900757	coherent
288.2925	0.1350319179764483	7	diastole	13	A	2446.423693900757	coherent
288.5639	0.1350319179764483	7	diastole	14	B	500.0	coherent
288.835	0.1350319179764483	7	diastole	15	A	2446.423693900757	coherent
289.5025	0.1350319179764483	7	diastole	16	A	2446.423693900757	coherent
289.7739	0.1350319179764483	7	diastole	17	B	500.0	coherent
290.045	0.1350319179764483	7	diastole	18	A	2446.423693900757	coherent
290.7125	0.1350319179764483	7	diastole	19	A	2446.423693900757	coherent
290.9839	0.1350319179764483	7	diastole	20	B	500.0	coherent
291.255	0.1350319179764483	7	diastole	21	A	2446.423693900757	coherent
291.7825	0.1350319179764483	7	diastole	22	A	2446.423693900757	coherent
292.0539	0.1350319179764483	7	diastole	23	B	500.0	coherent
292.325	0.1350319179764483	7	diastole	24	A	2446.423693900757	coherent
299.5021	0.1487479875213466	8	systole	1	A	1987.9452401467304	coherent
299.7982	0.1487479875213466	8	systole	2	B	500.0	coherent
300.0945	0.1487479875213466	8	systole	3	A	1987.9452401467304	coherent
300.682	0.1487479875213466	8	systole	4	A	1987.9452401467304	coherent
300.9782	0.1487479875213466	8	systole	5	B	500.0	coherent
301.2745	0.1487479875213466	8	systole	6	A	1987.9452401467304	coherent
301.7346	0.1487479875213466	8	systole	7	A	1987.9452401467304	coherent
302.0233	0.1487479875213466	8	systole	8	B	500.0	coherent
302.3121	0.1487479875213466	8	systole	9	A	1987.9452401467304	coherent
302.8791	0.1487479875213466	8	systole	10	A	1987.9452401467304	coherent
303.169	0.1487479875213466	8	systole	11	B	500.0	coherent
303.4591	0.1487479875213466	8	systole	12	A	1987.9452401467304	coherent
304.0329	0.1487479875213466	8	systole	13	A	1987.9452401467304	coherent
304.3266	0.1487479875213466	8	systole	14	B	500.0	coherent
304.6204	0.1487479875213466	8	systole	15	A	1987.9452401467304	coherent
305.1729	0.1487479875213466	8	systole	16	A	1987.9452401467304	coherent
305.4666	0.1487479875213466	8	systole	17	B	500.0	coherent
305.7604	0.1487479875213466	8	systole	18	A	1987.9452401467304	coherent
306.1946	0.1487479875213466	8	systole	19	A	1987.9452401467304	coherent
306.4833	0.1487479875213466	8	systole	20	B	500.0	coherent
306.7721	0.1487479875213466	8	systole	21	A	1987.9452401467304	coherent
307.3498	0.1487479875213466	8	systole	22	A	1987.9452401467304	coherent
307.6373	0.1487479875213466	8	systole	23	B	500.0	coherent
307.9248	0.1487479875213466	8	systole	24	A	1987.9452401467304	coherent
308.5098	0.1487479875213466	8	systole	25	A	1987.9452401467304	coherent
308.7972	0.1487479875213466	8	systole	26	B	500.0	coherent
309.0847	0.1487479875213466	8	systole	27	A	1987.9452401467304	coherent
312.8862	0.1425041693437378	9	systole	1	A	2942.014383864825	coherent
313.1699	0.1425041693437378	9	systole	2	B	500.0	coherent
313.4536	0.1425041693437378	9	systole	3	A	2942.014383864825	coherent
314.0161	0.1425041693437378	9	systole	4	A	2942.014383864825	coherent
314.2998	0.1425041693437378	9	systole	5	B	500.0	coherent
314.5836	0.1425041693437378	9	systole	6	A	2942.014383864825	coherent
315.0124	0.1425041693437378	9	systole	7	A	2942.014383864825	coherent
315.2924	0.1425041693437378	9	systole	8	B	500.0	coherent
315.5724	0.1425041693437378	9	systole	9	A	2942.014383864825	coherent
315.9995	0.1425041693437378	9	systole	10	A	2942.014383864825	coherent
316.2733	0.1425041693437378	9	systole	11	B	500.0	coherent
316.547	0.1425041693437378	9	systole	12	A	2942.014383864825	coherent
317.0695	0.1425041693437378	9	systole	13	A	2942.014383864825	coherent
317.3433	0.1425041693437378	9	systole	14	B	500.0	coherent
317.617	0.1425041693437378	9	systole	15	A	2942.014383864825	coherent
318.1395	0.1425041693437378	9	systole	16	A	2942.014383864825	coherent
318.4132	0.1425041693437378	9	systole	17	B	500.0	coherent
318.6869	0.1425041693437378	9	systole	18	A	2942.014383864825	coherent
319.3095	0.1425041693437378	9	systole	19	A	2942.014383864825	coherent
319.5833	0.1425041693437378	9	systole	20	B	500.0	coherent
319.857	0.1425041693437378	9	systole	21	A	2942.014383864825	coherent
320.4049	0.1425041693437378	9	systole	22	A	2942.014383864825	coherent
320.6774	0.1425041693437378	9	systole	23	B	500.0	coherent
320.9499	0.1425041693437378	9	systole	24	A	2942.014383864825	coherent
326.7485	0.1368807357212063	10	diastole	1	A	3538.000656405778	streaming
327.031	0.1368807357212063	10	diastole	2	B	500.0	streaming
327.3135	0.1368807357212063	10	diastole	3	A	3538.000656405778	streaming
327.9185	0.1368807357212063	10	diastole	4	A	3538.000656405778	streaming
328.201	0.1368807357212063	10	diastole	5	B	500.0	streaming
328.4835	0.1368807357212063	10	diastole	6	A	3538.000656405778	streaming
329.1565	0.1368807357212063	10	diastole	7	A	3538.000656405778	streaming
329.4477	0.1368807357212063	10	diastole	8	B	500.0	streaming
329.7389	0.1368807357212063	10	diastole	9	A	3538.000656405778	streaming
330.197	0.1368807357212063	10	diastole	10	A	3538.000656405778	streaming
330.4794	0.1368807357212063	10	diastole	11	B	500.0	streaming
330.7619	0.1368807357212063	10	diastole	12	A	3538.000656405778	streaming
331.287	0.1368807357212063	10	diastole	13	A	3538.000656405778	streaming
331.5695	0.1368807357212063	10	diastole	14	B	500.0	streaming
331.852	0.1368807357212063	10	diastole	15	A	3538.000656405778	streaming
332.5366	0.1368807357212063	10	diastole	16	A	3538.000656405778	streaming
332.8278	0.1368807357212063	10	diastole	17	B	500.0	streaming
333.1191	0.1368807357212063	10	diastole	18	A	3538.000656405778	streaming
333.7167	0.1368807357212063	10	diastole	19	A	3538.000656405778	streaming
334.0079	0.1368807357212063	10	diastole	20	B	500.0	streaming
334.2991	0.1368807357212063	10	diastole	21	A	3538.000656405778	streaming
334.8093	0.1368807357212063	10	diastole	22	A	3538.000656405778	streaming
335.0992	0.1368807357212063	10	diastole	23	B	500.0	streaming
335.3893	0.1368807357212063	10	diastole	24	A	3538.000656405778	streaming
335.9697	0.1368807357212063	10	diastole	25	A	3538.000656405778	streaming
336.2597	0.1368807357212063	10	diastole	26	B	500.0	streaming
336.5497	0.1368807357212063	10	diastole	27	A	3538.000656405778	streaming
338.8187	0.1449818125693127	11	systole	1	A	2446.423693900757	streaming
339.1088	0.1449818125693127	11	systole	2	B	500.0	streaming
339.3986	0.1449818125693127	11	systole	3	A	2446.423693900757	streaming
339.9288	0.1449818125693127	11	systole	4	A	2446.423693900757	streaming
340.2189	0.1449818125693127	11	systole	5	B	500.0	streaming
340.5087	0.1449818125693127	11	systole	6	A	2446.423693900757	streaming
340.9561	0.1449818125693127	11	systole	7	A	2446.423693900757	streaming
341.24	0.1449818125693127	11	systole	8	B	500.0	streaming
341.5236	0.1449818125693127	11	systole	9	A	2446.423693900757	streaming
342.0061	0.1449818125693127	11	systole	10	A	2446.423693900757	streaming
342.29	0.1449818125693127	11	systole	11	B	500.0	streaming
342.5736	0.1449818125693127	11	systole	12	A	2446.423693900757	streaming
343.0934	0.1449818125693127	11	systole	13	A	2446.423693900757	streaming
343.3711	0.1449818125693127	11	systole	14	B	500.0	streaming
343.6484	0.1449818125693127	11	systole	15	A	2446.423693900757	streaming
344.2134	0.1449818125693127	11	systole	16	A	2446.423693900757	streaming
344.491	0.1449818125693127	11	systole	17	B	500.0	streaming
344.7684	0.1449818125693127	11	systole	18	A	2446.423693900757	streaming
345.3333	0.1449818125693127	11	systole	19	A	2446.423693900757	streaming
345.611	0.1449818125693127	11	systole	20	B	500.0	streaming
345.8884	0.1449818125693127	11	systole	21	A	2446.423693900757	streaming
346.3634	0.1449818125693127	11	systole	22	A	2446.423693900757	streaming
346.6411	0.1449818125693127	11	systole	23	B	500.0	streaming
346.9184	0.1449818125693127	11	systole	24	A	2446.423693900757	streaming
347.4333	0.1449818125693127	11	systole	25	A	2446.423693900757	streaming
347.7109	0.1449818125693127	11	systole	26	B	500.0	streaming
347.9883	0.1449818125693127	11	systole	27	A	2446.423693900757	streaming
352.7884	0.1362494812055956	12	systole	1	A	1374.6058324966025	streaming
353.0559	0.1362494812055956	12	systole	2	B	500.0	streaming
353.3233	0.1362494812055956	12	systole	3	A	1374.6058324966025	streaming
353.8502	0.1362494812055956	12	systole	4	A	1374.6058324966025	streaming
354.1178	0.1362494812055956	12	systole	5	B	500.0	streaming
354.3852	0.1362494812055956	12	systole	6	A	1374.6058324966025	streaming
355.0205	0.1362494812055956	12	systole	7	A	1374.6058324966025	streaming
355.2931	0.1362494812055956	12	systole	8	B	500.0	streaming
355.5655	0.1362494812055956	12	systole	9	A	1374.6058324966025	streaming
356.0785	0.1362494812055956	12	systole	10	A	1374.6058324966025	streaming
356.3511	0.1362494812055956	12	systole	11	B	500.0	streaming
356.6235	0.1362494812055956	12	systole	12	A	1374.6058324966025	streaming
357.1308	0.1362494812055956	12	systole	13	A	1374.6058324966025	streaming
357.3983	0.1362494812055956	12	systole	14	B	500.0	streaming
357.6658	0.1362494812055956	12	systole	15	A	1374.6058324966025	streaming
358.2603	0.1362494812055956	12	systole	16	A	1374.6058324966025	streaming
358.5279	0.1362494812055956	12	systole	17	B	500.0	streaming
358.7954	0.1362494812055956	12	systole	18	A	1374.6058324966025	streaming
359.39	0.1362494812055956	12	systole	19	A	1374.6058324966025	streaming
359.6576	0.1362494812055956	12	systole	20	B	500.0	streaming
359.925	0.1362494812055956	12	systole	21	A	1374.6058324966025	streaming
360.4746	0.1362494812055956	12	systole	22	A	1374.6058324966025	streaming
360.7435	0.1362494812055956	12	systole	23	B	500.0	streaming
361.0122	0.1362494812055956	12	systole	24	A	1374.6058324966025	streaming
361.6046	0.1362494812055956	12	systole	25	A	1374.6058324966025	streaming
361.8735	0.1362494812055956	12	systole	26	B	500.0	streaming
362.1422	0.1362494812055956	12	systole	27	A	1374.6058324966025	streaming
367.2237	0.1356277312152087	13	systole	1	A	907.6609849845596	coherent
367.5007	0.1356277312152087	13	systole	2	B	500.0	coherent
367.7786	0.1356277312152087	13	systole	3	A	907.6609849845596	coherent
368.2537	0.1356277312152087	13	systole	4	A	907.6609849845596	coherent
368.5307	0.1356277312152087	13	systole	5	B	500.0	coherent
368.8086	0.1356277312152087	13	systole	6	A	907.6609849845596	coherent
369.2837	0.1356277312152087	13	systole	7	A	907.6609849845596	coherent
369.5607	0.1356277312152087	13	systole	8	B	500.0	coherent
369.8386	0.1356277312152087	13	systole	9	A	907.6609849845596	coherent
370.3555	0.1356277312152087	13	systole	10	A	907.6609849845596	coherent
370.6276	0.1356277312152087	13	systole	11	B	500.0	coherent
370.9005	0.1356277312152087	13	systole	12	A	907.6609849845596	coherent
371.5039	0.1356277312152087	13	systole	13	A	907.6609849845596	coherent
371.7809	0.1356277312152087	13	systole	14	B	500.0	coherent
372.0589	0.1356277312152087	13	systole	15	A	907.6609849845596	coherent
372.5756	0.1356277312152087	13	systole	16	A	907.6609849845596	coherent
372.8476	0.1356277312152087	13	systole	17	B	500.0	coherent
373.1206	0.1356277312152087	13	systole	18	A	907.6609849845596	coherent
373.7157	0.1356277312152087	13	systole	19	A	907.6609849845596	coherent
373.9877	0.1356277312152087	13	systole	20	B	500.0	coherent
374.2607	0.1356277312152087	13	systole	21	A	907.6609849845596	coherent
374.8557	0.1356277312152087	13	systole	22	A	907.6609849845596	coherent
375.1278	0.1356277312152087	13	systole	23	B	500.0	coherent
375.4007	0.1356277312152087	13	systole	24	A	907.6609849845596	coherent
375.9257	0.1356277312152087	13	systole	25	A	907.6609849845596	coherent
376.1977	0.1356277312152087	13	systole	26	B	500.0	coherent
376.4707	0.1356277312152087	13	systole	27	A	907.6609849845596	coherent
381.1073	0.1343833389109932	14	systole	1	A	928.8333655934664	coherent
381.3743	0.1343833389109932	14	systole	2	B	500.0	coherent
381.6422	0.1343833389109932	14	systole	3	A	928.8333655934664	coherent
382.0774	0.1343833389109932	14	systole	4	A	928.8333655934664	coherent
382.3444	0.1343833389109932	14	systole	5	B	500.0	coherent
382.6124	0.1343833389109932	14	systole	6	A	928.8333655934664	coherent
382.9536	0.1343833389109932	14	systole	7	A	928.8333655934664	coherent
383.2169	0.1343833389109932	14	systole	8	B	500.0	coherent
383.481	0.1343833389109932	14	systole	9	A	928.8333655934664	coherent
383.8435	0.1343833389109932	14	systole	10	A	928.8333655934664	coherent
384.1069	0.1343833389109932	14	systole	11	B	500.0	coherent
384.371	0.1343833389109932	14	systole	12	A	928.8333655934664	coherent
384.9199	0.1343833389109932	14	systole	13	A	928.8333655934664	coherent
385.1794	0.1343833389109932	14	systole	14	B	500.0	coherent
385.4399	0.1343833389109932	14	systole	15	A	928.8333655934664	coherent
386.0399	0.1343833389109932	14	systole	16	A	928.8333655934664	coherent
386.2995	0.1343833389109932	14	systole	17	B	500.0	coherent
386.5599	0.1343833389109932	14	systole	18	A	928.8333655934664	coherent
387.0998	0.1343833389109932	14	systole	19	A	928.8333655934664	coherent
387.3594	0.1343833389109932	14	systole	20	B	500.0	coherent
387.6198	0.1343833389109932	14	systole	21	A	928.8333655934664	coherent
388.1597	0.1343833389109932	14	systole	22	A	928.8333655934664	coherent
388.4193	0.1343833389109932	14	systole	23	B	500.0	coherent
388.6797	0.1343833389109932	14	systole	24	A	928.8333655934664	coherent
389.2196	0.1343833389109932	14	systole	25	A	928.8333655934664	coherent
389.4792	0.1343833389109932	14	systole	26	B	500.0	coherent
389.7397	0.1343833389109932	14	systole	27	A	928.8333655934664	coherent
393.4035	0.1293954892607871	15	diastole	1	A	2130.3297690552017	coherent
393.666	0.1293954892607871	15	diastole	2	B	500.0	coherent
393.9285	0.1293954892607871	15	diastole	3	A	2130.3297690552017	coherent
394.5389	0.1293954892607871	15	diastole	4	A	2130.3297690552017	coherent
394.8076	0.1293954892607871	15	diastole	5	B	500.0	coherent
395.0764	0.1293954892607871	15	diastole	6	A	2130.3297690552017	coherent
395.5889	0.1293954892607871	15	diastole	7	A	2130.3297690552017	coherent
395.8576	0.1293954892607871	15	diastole	8	B	500.0	coherent
396.1263	0.1293954892607871	15	diastole	9	A	2130.3297690552017	coherent
396.7756	0.1293954892607871	15	diastole	10	A	2130.3297690552017	coherent
397.0456	0.1293954892607871	15	diastole	11	B	500.0	coherent
397.3156	0.1293954892607871	15	diastole	12	A	2130.3297690552017	coherent
397.9456	0.1293954892607871	15	diastole	13	A	2130.3297690552017	coherent
398.2156	0.1293954892607871	15	diastole	14	B	500.0	coherent
398.4856	0.1293954892607871	15	diastole	15	A	2130.3297690552017	coherent
399.1156	0.1293954892607871	15	diastole	16	A	2130.3297690552017	coherent
399.3857	0.1293954892607871	15	diastole	17	B	500.0	coherent
399.6556	0.1293954892607871	15	diastole	18	A	2130.3297690552017	coherent
400.1932	0.1293954892607871	15	diastole	19	A	2130.3297690552017	coherent
400.4645	0.1293954892607871	15	diastole	20	B	500.0	coherent
400.7358	0.1293954892607871	15	diastole	21	A	2130.3297690552017	coherent
401.1877	0.1293954892607871	15	diastole	22	A	2130.3297690552017	coherent
401.4528	0.1293954892607871	15	diastole	23	B	500.0	coherent
401.7178	0.1293954892607871	15	diastole	24	A	2130.3297690552017	coherent
406.3278	0.1387309408746659	16	systole	1	A	950.4996196948616	coherent
406.6086	0.1387309408746659	16	systole	2	B	500.0	coherent
406.8903	0.1387309408746659	16	systole	3	A	950.4996196948616	coherent
407.5178	0.1387309408746659	16	systole	4	A	950.4996196948616	coherent
407.7987	0.1387309408746659	16	systole	5	B	500.0	coherent
408.0803	0.1387309408746659	16	systole	6	A	950.4996196948616	coherent
408.7078	0.1387309408746659	16	systole	7	A	950.4996196948616	coherent
408.9887	0.1387309408746659	16	systole	8	B	500.0	coherent
409.2703	0.1387309408746659	16	systole	9	A	950.4996196948616	coherent
409.8187	0.1387309408746659	16	systole	10	A	950.4996196948616	coherent
410.0971	0.1387309408746659	16	systole	11	B	500.0	coherent
410.3763	0.1387309408746659	16	systole	12	A	950.4996196948616	coherent
410.9036	0.1387309408746659	16	systole	13	A	950.4996196948616	coherent
411.1806	0.1387309408746659	16	systole	14	B	500.0	coherent
411.4585	0.1387309408746659	16	systole	15	A	950.4996196948616	coherent
412.0586	0.1387309408746659	16	systole	16	A	950.4996196948616	coherent
412.3369	0.1387309408746659	16	systole	17	B	500.0	coherent
412.6161	0.1387309408746659	16	systole	18	A	950.4996196948616	coherent
413.2423	0.1387309408746659	16	systole	19	A	950.4996196948616	coherent
413.5243	0.1387309408746659	16	systole	20	B	500.0	coherent
413.8072	0.1387309408746659	16	systole	21	A	950.4996196948616	coherent
414.3323	0.1387309408746659	16	systole	22	A	950.4996196948616	coherent
414.6144	0.1387309408746659	16	systole	23	B	500.0	coherent
414.8973	0.1387309408746659	16	systole	24	A	950.4996196948616	coherent
418.2608	0.136231495096581	17	systole	1	A	972.6712675344384	coherent
418.5316	0.136231495096581	17	systole	2	B	500.0	coherent
418.8032	0.136231495096581	17	systole	3	A	972.6712675344384	coherent
419.3408	0.136231495096581	17	systole	4	A	972.6712675344384	coherent
419.6117	0.136231495096581	17	systole	5	B	500.0	coherent
419.8832	0.136231495096581	17	systole	6	A	972.6712675344384	coherent
420.4209	0.136231495096581	17	systole	7	A	972.6712675344384	coherent
420.6917	0.136231495096581	17	systole	8	B	500.0	coherent
420.9633	0.136231495096581	17	systole	9	A	972.6712675344384	coherent
421.4419	0.136231495096581	17	systole	10	A	972.6712675344384	coherent
421.7103	0.136231495096581	17	systole	11	B	500.0	coherent
421.9794	0.136231495096581	17	systole	12	A	972.6712675344384	coherent
422.3881	0.136231495096581	17	systole	13	A	972.6712675344384	coherent
422.6528	0.136231495096581	17	systole	14	B	500.0	coherent
422.9181	0.136231495096581	17	systole	15	A	972.6712675344384	coherent
423.3482	0.136231495096581	17	systole	16	A	972.6712675344384	coherent
423.6129	0.136231495096581	17	systole	17	B	500.0	coherent
423.8782	0.136231495096581	17	systole	18	A	972.6712675344384	coherent
424.3545	0.136231495096581	17	systole	19	A	972.6712675344384	coherent
424.6154	0.136231495096581	17	systole	20	B	500.0	coherent
424.8769	0.136231495096581	17	systole	21	A	972.6712675344384	coherent
425.3753	0.136231495096581	17	systole	22	A	972.6712675344384	coherent
425.6337	0.136231495096581	17	systole	23	B	500.0	coherent
425.8928	0.136231495096581	17	systole	24	A	972.6712675344384	coherent
426.4852	0.136231495096581	17	systole	25	A	972.6712675344384	coherent
426.7436	0.136231495096581	17	systole	26	B	500.0	coherent
427.0027	0.136231495096581	17	systole	27	A	972.6712675344384	coherent
431.9767	0.1325062100659124	18	systole	1	A	4999.999999999997	streaming
432.2443	0.1325062100659124	18	systole	2	B	500.0	streaming
432.5117	0.1325062100659124	18	systole	3	A	4999.999999999997	streaming
432.9867	0.1325062100659124	18	systole	4	A	4999.999999999997	streaming
433.2543	0.1325062100659124	18	systole	5	B	500.0	streaming
433.5217	0.1325062100659124	18	systole	6	A	4999.999999999997	streaming
433.9966	0.1325062100659124	18	systole	7	A	4999.999999999997	streaming
434.2642	0.1325062100659124	18	systole	8	B	500.0	streaming
434.5316	0.1325062100659124	18	systole	9	A	4999.999999999997	streaming
435.1112	0.1325062100659124	18	systole	10	A	4999.999999999997	streaming
435.3801	0.1325062100659124	18	systole	11	B	500.0	streaming
435.6488	0.1325062100659124	18	systole	12	A	4999.999999999997	streaming
436.2213	0.1325062100659124	18	systole	13	A	4999.999999999997	streaming
436.4901	0.1325062100659124	18	systole	14	B	500.0	streaming
436.7588	0.1325062100659124	18	systole	15	A	4999.999999999997	streaming
437.3712	0.1325062100659124	18	systole	16	A	4999.999999999997	streaming
437.6401	0.1325062100659124	18	systole	17	B	500.0	streaming
437.9088	0.1325062100659124	18	systole	18	A	4999.999999999997	streaming
438.5012	0.1325062100659124	18	systole	19	A	4999.999999999997	streaming
438.7701	0.1325062100659124	18	systole	20	B	500.0	streaming
439.0388	0.1325062100659124	18	systole	21	A	4999.999999999997	streaming
439.5612	0.1325062100659124	18	systole	22	A	4999.999999999997	streaming
439.8301	0.1325062100659124	18	systole	23	B	500.0	streaming
440.0988	0.1325062100659124	18	systole	24	A	4999.999999999997	streaming
443.0826	0.1387546374171506	19	systole	1	A	4999.999999999997	streaming
443.3627	0.1387546374171506	19	systole	2	B	500.0	streaming
443.6426	0.1387546374171506	19	systole	3	A	4999.999999999997	streaming
444.2073	0.1387546374171506	19	systole	4	A	4999.999999999997	streaming
444.4886	0.1387546374171506	19	systole	5	B	500.0	streaming
444.7697	0.1387546374171506	19	systole	6	A	4999.999999999997	streaming
445.3273	0.1387546374171506	19	systole	7	A	4999.999999999997	streaming
445.6086	0.1387546374171506	19	systole	8	B	500.0	streaming
445.8898	0.1387546374171506	19	systole	9	A	4999.999999999997	streaming
446.3877	0.1387546374171506	19	systole	10	A	4999.999999999997	streaming
446.6691	0.1387546374171506	19	systole	11	B	500.0	streaming
446.9502	0.1387546374171506	19	systole	12	A	4999.999999999997	streaming
447.4481	0.1387546374171506	19	systole	13	A	4999.999999999997	streaming
447.7295	0.1387546374171506	19	systole	14	B	500.0	streaming
448.0106	0.1387546374171506	19	systole	15	A	4999.999999999997	streaming
448.5085	0.1387546374171506	19	systole	16	A	4999.999999999997	streaming
448.7899	0.1387546374171506	19	systole	17	B	500.0	streaming
449.0711	0.1387546374171506	19	systole	18	A	4999.999999999997	streaming
449.6654	0.1387546374171506	19	systole	19	A	4999.999999999997	streaming
449.9455	0.1387546374171506	19	systole	20	B	500.0	streaming
450.2253	0.1387546374171506	19	systole	21	A	4999.999999999997	streaming
450.8271	0.1387546374171506	19	systole	22	A	4999.999999999997	streaming
451.1071	0.1387546374171506	19	systole	23	B	500.0	streaming
451.387	0.1387546374171506	19	systole	24	A	4999.999999999997	streaming
451.9801	0.1387546374171506	19	systole	25	A	4999.999999999997	streaming
452.2615	0.1387546374171506	19	systole	26	B	500.0	streaming
452.5427	0.1387546374171506	19	systole	27	A	4999.999999999997	streaming
455.3376	0.1399612000968773	20	systole	1	A	4999.999999999997	streaming
455.6164	0.1399612000968773	20	systole	2	B	500.0	streaming
455.8949	0.1399612000968773	20	systole	3	A	4999.999999999997	streaming
456.4476	0.1399612000968773	20	systole	4	A	4999.999999999997	streaming
456.7264	0.1399612000968773	20	systole	5	B	500.0	streaming
457.005	0.1399612000968773	20	systole	6	A	4999.999999999997	streaming
457.6177	0.1399612000968773	20	systole	7	A	4999.999999999997	streaming
457.8965	0.1399612000968773	20	systole	8	B	500.0	streaming
458.1751	0.1399612000968773	20	systole	9	A	4999.999999999997	streaming
458.7952	0.1399612000968773	20	systole	10	A	4999.999999999997	streaming
459.0788	0.1399612000968773	20	systole	11	B	500.0	streaming
459.3621	0.1399612000968773	20	systole	12	A	4999.999999999997	streaming
459.8551	0.1399612000968773	20	systole	13	A	4999.999999999997	streaming
460.1387	0.1399612000968773	20	systole	14	B	500.0	streaming
460.4221	0.1399612000968773	20	systole	15	A	4999.999999999997	streaming
460.9151	0.1399612000968773	20	systole	16	A	4999.999999999997	streaming
461.1987	0.1399612000968773	20	systole	17	B	500.0	streaming
461.482	0.1399612000968773	20	systole	18	A	4999.999999999997	streaming
462.0613	0.1399612000968773	20	systole	19	A	4999.999999999997	streaming
462.3439	0.1399612000968773	20	systole	20	B	500.0	streaming
462.6263	0.1399612000968773	20	systole	21	A	4999.999999999997	streaming
463.2113	0.1399612000968773	20	systole	22	A	4999.999999999997	streaming
463.4939	0.1399612000968773	20	systole	23	B	500.0	streaming
463.7763	0.1399612000968773	20	systole	24	A	4999.999999999997	streaming
464.2671	0.1399612000968773	20	systole	25	A	4999.999999999997	streaming
464.5484	0.1399612000968773	20	systole	26	B	500.0	streaming
464.8295	0.1399612000968773	20	systole	27	A	4999.999999999997	streaming
467.5585	0.1412566445942502	21	systole	1	A	4999.999999999997	streaming
467.8349	0.1412566445942502	21	systole	2	B	500.0	streaming
468.111	0.1412566445942502	21	systole	3	A	4999.999999999997	streaming
468.6889	0.1412566445942502	21	systole	4	A	4999.999999999997	streaming
468.9652	0.1412566445942502	21	systole	5	B	500.0	streaming
469.2414	0.1412566445942502	21	systole	6	A	4999.999999999997	streaming
469.8193	0.1412566445942502	21	systole	7	A	4999.999999999997	streaming
470.0956	0.1412566445942502	21	systole	8	B	500.0	streaming
470.3717	0.1412566445942502	21	systole	9	A	4999.999999999997	streaming
470.9496	0.1412566445942502	21	systole	10	A	4999.999999999997	streaming
471.226	0.1412566445942502	21	systole	11	B	500.0	streaming
471.5021	0.1412566445942502	21	systole	12	A	4999.999999999997	streaming
472.08	0.1412566445942502	21	systole	13	A	4999.999999999997	streaming
472.3563	0.1412566445942502	21	systole	14	B	500.0	streaming
472.6324	0.1412566445942502	21	systole	15	A	4999.999999999997	streaming
473.2526	0.1412566445942502	21	systole	16	A	4999.999999999997	streaming
473.5352	0.1412566445942502	21	systole	17	B	500.0	streaming
473.8176	0.1412566445942502	21	systole	18	A	4999.999999999997	streaming
474.2929	0.1412566445942502	21	systole	19	A	4999.999999999997	streaming
474.5755	0.1412566445942502	21	systole	20	B	500.0	streaming
474.8579	0.1412566445942502	21	systole	21	A	4999.999999999997	streaming
475.2896	0.1412566445942502	21	systole	22	A	4999.999999999997	streaming
475.566	0.1412566445942502	21	systole	23	B	500.0	streaming
475.8421	0.1412566445942502	21	systole	24	A	4999.999999999997	streaming
476.4398	0.1412566445942502	21	systole	25	A	4999.999999999997	streaming
476.7162	0.1412566445942502	21	systole	26	B	500.0	streaming
476.9923	0.1412566445942502	21	systole	27	A	4999.999999999997	streaming
480.7014	0.1350088250765111	22	systole	1	A	1066.651739219328	streaming
480.9699	0.1350088250765111	22	systole	2	B	500.0	streaming
481.2389	0.1350088250765111	22	systole	3	A	1066.651739219328	streaming
481.8163	0.1350088250765111	22	systole	4	A	1066.651739219328	streaming
482.0861	0.1350088250765111	22	systole	5	B	500.0	streaming
482.3563	0.1350088250765111	22	systole	6	A	1066.651739219328	streaming
482.8662	0.1350088250765111	22	systole	7	A	1066.651739219328	streaming
483.136	0.1350088250765111	22	systole	8	B	500.0	streaming
483.4062	0.1350088250765111	22	systole	9	A	1066.651739219328	streaming
483.9901	0.1350088250765111	22	systole	10	A	1066.651739219328	streaming
484.2636	0.1350088250765111	22	systole	11	B	500.0	streaming
484.5376	0.1350088250765111	22	systole	12	A	1066.651739219328	streaming
485.16	0.1350088250765111	22	systole	13	A	1066.651739219328	streaming
485.4335	0.1350088250765111	22	systole	14	B	500.0	streaming
485.7075	0.1350088250765111	22	systole	15	A	1066.651739219328	streaming
486.3055	0.1350088250765111	22	systole	16	A	1066.651739219328	streaming
486.5828	0.1350088250765111	22	systole	17	B	500.0	streaming
486.8606	0.1350088250765111	22	systole	18	A	1066.651739219328	streaming
487.4372	0.1350088250765111	22	systole	19	A	1066.651739219328	streaming
487.7145	0.1350088250765111	22	systole	20	B	500.0	streaming
487.9923	0.1350088250765111	22	systole	21	A	1066.651739219328	streaming
488.5009	0.1350088250765111	22	systole	22	A	1066.651739219328	streaming
488.777	0.1350088250765111	22	systole	23	B	500.0	streaming
489.0535	0.1350088250765111	22	systole	24	A	1066.651739219328	streaming
489.5671	0.1350088250765111	22	systole	25	A	1066.651739219328	streaming
489.8393	0.1350088250765111	22	systole	26	B	500.0	streaming
490.112	0.1350088250765111	22	systole	27	A	1066.651739219328	streaming
493.2558	0.1362464124395046	23	diastole	1	A	4157.735780147634	streaming
493.5259	0.1362464124395046	23	diastole	2	B	500.0	streaming
493.7958	0.1362464124395046	23	diastole	3	A	4157.735780147634	streaming
494.3358	0.1362464124395046	23	diastole	4	A	4157.735780147634	streaming
494.6059	0.1362464124395046	23	diastole	5	B	500.0	streaming
494.8758	0.1362464124395046	23	diastole	6	A	4157.735780147634	streaming
495.3584	0.1362464124395046	23	diastole	7	A	4157.735780147634	streaming
495.6273	0.1362464124395046	23	diastole	8	B	500.0	streaming
495.8959	0.1362464124395046	23	diastole	9	A	4157.735780147634	streaming
496.388	0.1362464124395046	23	diastole	10	A	4157.735780147634	streaming
496.6569	0.1362464124395046	23	diastole	11	B	500.0	streaming
496.9255	0.1362464124395046	23	diastole	12	A	4157.735780147634	streaming
497.4611	0.1362464124395046	23	diastole	13	A	4157.735780147634	streaming
497.7288	0.1362464124395046	23	diastole	14	B	500.0	streaming
497.9963	0.1362464124395046	23	diastole	15	A	4157.735780147634	streaming
498.4798	0.1362464124395046	23	diastole	16	A	4157.735780147634	streaming
498.7472	0.1362464124395046	23	diastole	17	B	500.0	streaming
499.0144	0.1362464124395046	23	diastole	18	A	4157.735780147634	streaming
499.5504	0.1362464124395046	23	diastole	19	A	4157.735780147634	streaming
499.818	0.1362464124395046	23	diastole	20	B	500.0	streaming
500.0854	0.1362464124395046	23	diastole	21	A	4157.735780147634	streaming
500.6824	0.1362464124395046	23	diastole	22	A	4157.735780147634	streaming
500.95	0.1362464124395046	23	diastole	23	B	500.0	streaming
501.2174	0.1362464124395046	23	diastole	24	A	4157.735780147634	streaming
501.8145	0.1362464124395046	23	diastole	25	A	4157.735780147634	streaming
502.0821	0.1362464124395046	23	diastole	26	B	500.0	streaming
502.3495	0.1362464124395046	23	diastole	27	A	4157.735780147634	streaming
507.1003	0.1337652376387268	24	diastole	1	A	4157.735780147634	streaming
507.3677	0.1337652376387268	24	diastole	2	B	500.0	streaming
507.6348	0.1337652376387268	24	diastole	3	A	4157.735780147634	streaming
508.1537	0.1337652376387268	24	diastole	4	A	4157.735780147634	streaming
508.4199	0.1337652376387268	24	diastole	5	B	500.0	streaming
508.6858	0.1337652376387268	24	diastole	6	A	4157.735780147634	streaming
509.2406	0.1337652376387268	24	diastole	7	A	4157.735780147634	streaming
509.5079	0.1337652376387268	24	diastole	8	B	500.0	streaming
509.7751	0.1337652376387268	24	diastole	9	A	4157.735780147634	streaming
510.2734	0.1337652376387268	24	diastole	10	A	4157.735780147634	streaming
510.5396	0.1337652376387268	24	diastole	11	B	500.0	streaming
510.8055	0.1337652376387268	24	diastole	12	A	4157.735780147634	streaming
511.2436	0.1337652376387268	24	diastole	13	A	4157.735780147634	streaming
511.5062	0.1337652376387268	24	diastole	14	B	500.0	streaming
511.7686	0.1337652376387268	24	diastole	15	A	4157.735780147634	streaming
512.2336	0.1337652376387268	24	diastole	16	A	4157.735780147634	streaming
512.4963	0.1337652376387268	24	diastole	17	B	500.0	streaming
512.7587	0.1337652376387268	24	diastole	18	A	4157.735780147634	streaming
513.2391	0.1337652376387268	24	diastole	19	A	4157.735780147634	streaming
513.4991	0.1337652376387268	24	diastole	20	B	500.0	streaming
513.759	0.1337652376387268	24	diastole	21	A	4157.735780147634	streaming
514.3433	0.1337652376387268	24	diastole	22	A	4157.735780147634	streaming
514.6059	0.1337652376387268	24	diastole	23	B	500.0	streaming
514.8683	0.1337652376387268	24	diastole	24	A	4157.735780147634	streaming
515.3864	0.1337652376387268	24	diastole	25	A	4157.735780147634	streaming
515.6477	0.1337652376387268	24	diastole	26	B	500.0	streaming
515.9088	0.1337652376387268	24	diastole	27	A	4157.735780147634	streaming
519.1436	0.130609930580249	25	systole	1	A	720.7460505647621	coherent
519.4051	0.130609930580249	25	systole	2	B	500.0	coherent
519.6661	0.130609930580249	25	systole	3	A	720.7460505647621	coherent
520.2537	0.130609930580249	25	systole	4	A	720.7460505647621	coherent
520.5152	0.130609930580249	25	systole	5	B	500.0	coherent
520.7762	0.130609930580249	25	systole	6	A	720.7460505647621	coherent
521.4031	0.130609930580249	25	systole	7	A	720.7460505647621	coherent
521.6671	0.130609930580249	25	systole	8	B	500.0	coherent
521.9307	0.130609930580249	25	systole	9	A	720.7460505647621	coherent
522.4135	0.130609930580249	25	systole	10	A	720.7460505647621	coherent
522.6775	0.130609930580249	25	systole	11	B	500.0	coherent
522.941	0.130609930580249	25	systole	12	A	720.7460505647621	coherent
523.4443	0.130609930580249	25	systole	13	A	720.7460505647621	coherent
523.7058	0.130609930580249	25	systole	14	B	500.0	coherent
523.9669	0.130609930580249	25	systole	15	A	720.7460505647621	coherent
524.6041	0.130609930580249	25	systole	16	A	720.7460505647621	coherent
524.8656	0.130609930580249	25	systole	17	B	500.0	coherent
525.1266	0.130609930580249	25	systole	18	A	720.7460505647621	coherent
525.7638	0.130609930580249	25	systole	19	A	720.7460505647621	coherent
526.0253	0.130609930580249	25	systole	20	B	500.0	coherent
526.2864	0.130609930580249	25	systole	21	A	720.7460505647621	coherent
526.9825	0.130609930580249	25	systole	22	A	720.7460505647621	coherent
527.254	0.130609930580249	25	systole	23	B	500.0	coherent
527.525	0.130609930580249	25	systole	24	A	720.7460505647621	coherent
528.1271	0.130609930580249	25	systole	25	A	720.7460505647621	coherent
528.4059	0.130609930580249	25	systole	26	B	500.0	coherent
528.6842	0.130609930580249	25	systole	27	A	720.7460505647621	coherent
536.1517	0.1369957237620838	26	diastole	1	A	4062.961875947593	streaming
536.4245	0.1369957237620838	26	diastole	2	B	500.0	streaming
536.6972	0.1369957237620838	26	diastole	3	A	4062.961875947593	streaming
537.2715	0.1369957237620838	26	diastole	4	A	4062.961875947593	streaming
537.5443	0.1369957237620838	26	diastole	5	B	500.0	streaming
537.817	0.1369957237620838	26	diastole	6	A	4062.961875947593	streaming
538.3488	0.1369957237620838	26	diastole	7	A	4062.961875947593	streaming
538.6212	0.1369957237620838	26	diastole	8	B	500.0	streaming
538.8934	0.1369957237620838	26	diastole	9	A	4062.961875947593	streaming
539.4789	0.1369957237620838	26	diastole	10	A	4062.961875947593	streaming
539.7513	0.1369957237620838	26	diastole	11	B	500.0	streaming
540.0235	0.1369957237620838	26	diastole	12	A	4062.961875947593	streaming
540.609	0.1369957237620838	26	diastole	13	A	4062.961875947593	streaming
540.8814	0.1369957237620838	26	diastole	14	B	500.0	streaming
541.1536	0.1369957237620838	26	diastole	15	A	4062.961875947593	streaming
541.7416	0.1369957237620838	26	diastole	16	A	4062.961875947593	streaming
542.0145	0.1369957237620838	26	diastole	17	B	500.0	streaming
542.2871	0.1369957237620838	26	diastole	18	A	4062.961875947593	streaming
542.8303	0.1369957237620838	26	diastole	19	A	4062.961875947593	streaming
543.1029	0.1369957237620838	26	diastole	20	B	500.0	streaming
543.3753	0.1369957237620838	26	diastole	21	A	4062.961875947593	streaming
543.8292	0.1369957237620838	26	diastole	22	A	4062.961875947593	streaming
544.1016	0.1369957237620838	26	diastole	23	B	500.0	streaming
544.3738	0.1369957237620838	26	diastole	24	A	4062.961875947593	streaming
544.909	0.1369957237620838	26	diastole	25	A	4062.961875947593	streaming
545.1814	0.1369957237620838	26	diastole	26	B	500.0	streaming
545.4536	0.1369957237620838	26	diastole	27	A	4062.961875947593	streaming
551.0543	0.1381143877806607	27	systole	1	A	4999.999999999997	streaming
551.3294	0.1381143877806607	27	systole	2	B	500.0	streaming
551.6043	0.1381143877806607	27	systole	3	A	4999.999999999997	streaming
552.1643	0.1381143877806607	27	systole	4	A	4999.999999999997	streaming
552.4394	0.1381143877806607	27	systole	5	B	500.0	streaming
552.7143	0.1381143877806607	27	systole	6	A	4999.999999999997	streaming
553.308	0.1381143877806607	27	systole	7	A	4999.999999999997	streaming
553.5869	0.1381143877806607	27	systole	8	B	500.0	streaming
553.8655	0.1381143877806607	27	systole	9	A	4999.999999999997	streaming
554.3679	0.1381143877806607	27	systole	10	A	4999.999999999997	streaming
554.6467	0.1381143877806607	27	systole	11	B	500.0	streaming
554.9254	0.1381143877806607	27	systole	12	A	4999.999999999997	streaming
555.4179	0.1381143877806607	27	systole	13	A	4999.999999999997	streaming
555.6967	0.1381143877806607	27	systole	14	B	500.0	streaming
555.9754	0.1381143877806607	27	systole	15	A	4999.999999999997	streaming
556.468	0.1381143877806607	27	systole	16	A	4999.999999999997	streaming
556.7468	0.1381143877806607	27	systole	17	B	500.0	streaming
557.0254	0.1381143877806607	27	systole	18	A	4999.999999999997	streaming
557.4949	0.1381143877806607	27	systole	19	A	4999.999999999997	streaming
557.7675	0.1381143877806607	27	systole	20	B	500.0	streaming
558.0399	0.1381143877806607	27	systole	21	A	4999.999999999997	streaming
558.532	0.1381143877806607	27	systole	22	A	4999.999999999997	streaming
558.7984	0.1381143877806607	27	systole	23	B	500.0	streaming
559.0646	0.1381143877806607	27	systole	24	A	4999.999999999997	streaming
559.5921	0.1381143877806607	27	systole	25	A	4999.999999999997	streaming
559.8584	0.1381143877806607	27	systole	26	B	500.0	streaming
560.1246	0.1381143877806607	27	systole	27	A	4999.999999999997	streaming
566.8078	0.1162711874349042	28	diastole	1	A	2745.3794129915964	streaming
567.0343	0.1162711874349042	28	diastole	2	B	500.0	streaming
567.2603	0.1162711874349042	28	diastole	3	A	2745.3794129915964	streaming
567.738	0.1162711874349042	28	diastole	4	A	2745.3794129915964	streaming
567.9645	0.1162711874349042	28	diastole	5	B	500.0	streaming
568.1905	0.1162711874349042	28	diastole	6	A	2745.3794129915964	streaming
568.7178	0.1162711874349042	28	diastole	7	A	2745.3794129915964	streaming
568.9442	0.1162711874349042	28	diastole	8	B	500.0	streaming
569.1703	0.1162711874349042	28	diastole	9	A	2745.3794129915964	streaming
569.7292	0.1162711874349042	28	diastole	10	A	2745.3794129915964	streaming
569.9594	0.1162711874349042	28	diastole	11	B	500.0	streaming
570.1891	0.1162711874349042	28	diastole	12	A	2745.3794129915964	streaming
570.7194	0.1162711874349042	28	diastole	13	A	2745.3794129915964	streaming
570.9496	0.1162711874349042	28	diastole	14	B	500.0	streaming
571.1794	0.1162711874349042	28	diastole	15	A	2745.3794129915964	streaming
571.725	0.1162711874349042	28	diastole	16	A	2745.3794129915964	streaming
571.9615	0.1162711874349042	28	diastole	17	B	500.0	streaming
572.1976	0.1162711874349042	28	diastole	18	A	2745.3794129915964	streaming
572.695	0.1162711874349042	28	diastole	19	A	2745.3794129915964	streaming
572.9315	0.1162711874349042	28	diastole	20	B	500.0	streaming
573.1676	0.1162711874349042	28	diastole	21	A	2745.3794129915964	streaming
573.7633	0.1162711874349042	28	diastole	22	A	2745.3794129915964	streaming
574.0047	0.1162711874349042	28	diastole	23	B	500.0	streaming
574.2457	0.1162711874349042	28	diastole	24	A	2745.3794129915964	streaming
574.8033	0.1162711874349042	28	diastole	25	A	2745.3794129915964	streaming
575.0447	0.1162711874349042	28	diastole	26	B	500.0	streaming
575.2858	0.1162711874349042	28	diastole	27	A	2745.3794129915964	streaming
577.8919	0.1224876096239313	29	diastole	1	A	1942.6308330494364	coherent
578.138	0.1224876096239313	29	diastole	2	B	500.0	coherent
578.3844	0.1224876096239313	29	diastole	3	A	1942.6308330494364	coherent
578.932	0.1224876096239313	29	diastole	4	A	1942.6308330494364	coherent
579.1782	0.1224876096239313	29	diastole	5	B	500.0	coherent
579.4246	0.1224876096239313	29	diastole	6	A	1942.6308330494364	coherent
579.9631	0.1224876096239313	29	diastole	7	A	1942.6308330494364	coherent
580.213	0.1224876096239313	29	diastole	8	B	500.0	coherent
580.4632	0.1224876096239313	29	diastole	9	A	1942.6308330494364	coherent
581.0784	0.1224876096239313	29	diastole	10	A	1942.6308330494364	coherent
581.3345	0.1224876096239313	29	diastole	11	B	500.0	coherent
581.5909	0.1224876096239313	29	diastole	12	A	1942.6308330494364	coherent
582.1397	0.1224876096239313	29	diastole	13	A	1942.6308330494364	coherent
582.3997	0.1224876096239313	29	diastole	14	B	500.0	coherent
582.6598	0.1224876096239313	29	diastole	15	A	1942.6308330494364	coherent
583.1797	0.1224876096239313	29	diastole	16	A	1942.6308330494364	coherent
583.4396	0.1224876096239313	29	diastole	17	B	500.0	coherent
583.6998	0.1224876096239313	29	diastole	18	A	1942.6308330494364	coherent
584.2197	0.1224876096239313	29	diastole	19	A	1942.6308330494364	coherent
584.4796	0.1224876096239313	29	diastole	20	B	500.0	coherent
584.7397	0.1224876096239313	29	diastole	21	A	1942.6308330494364	coherent
585.3301	0.1224876096239313	29	diastole	22	A	1942.6308330494364	coherent
585.59	0.1224876096239313	29	diastole	23	B	500.0	coherent
585.8501	0.1224876096239313	29	diastole	24	A	1942.6308330494364	coherent
586.5238	0.1224876096239313	29	diastole	25	A	1942.6308330494364	coherent
586.7862	0.1224876096239313	29	diastole	26	B	500.0	coherent
587.0487	0.1224876096239313	29	diastole	27	A	1942.6308330494364	coherent
594.5608	0.1412248356209602	30	diastole	1	A	3970.34830453257	streaming
594.8459	0.1412248356209602	30	diastole	2	B	500.0	streaming
595.1308	0.1412248356209602	30	diastole	3	A	3970.34830453257	streaming
595.7208	0.1412248356209602	30	diastole	4	A	3970.34830453257	streaming
596.0059	0.1412248356209602	30	diastole	5	B	500.0	streaming
596.2908	0.1412248356209602	30	diastole	6	A	3970.34830453257	streaming
596.8809	0.1412248356209602	30	diastole	7	A	3970.34830453257	streaming
597.1659	0.1412248356209602	30	diastole	8	B	500.0	streaming
597.4509	0.1412248356209602	30	diastole	9	A	3970.34830453257	streaming
598.0483	0.1412248356209602	30	diastole	10	A	3970.34830453257	streaming
598.3346	0.1412248356209602	30	diastole	11	B	500.0	streaming
598.6208	0.1412248356209602	30	diastole	12	A	3970.34830453257	streaming
599.2086	0.1412248356209602	30	diastole	13	A	3970.34830453257	streaming
599.4949	0.1412248356209602	30	diastole	14	B	500.0	streaming
599.7811	0.1412248356209602	30	diastole	15	A	3970.34830453257	streaming
600.3484	0.1412248356209602	30	diastole	16	A	3970.34830453257	streaming
600.6347	0.1412248356209602	30	diastole	17	B	500.0	streaming
600.9208	0.1412248356209602	30	diastole	18	A	3970.34830453257	streaming
601.4881	0.1412248356209602	30	diastole	19	A	3970.34830453257	streaming
601.7744	0.1412248356209602	30	diastole	20	B	500.0	streaming
602.0606	0.1412248356209602	30	diastole	21	A	3970.34830453257	streaming
602.5239	0.1412248356209602	30	diastole	22	A	3970.34830453257	streaming
602.8077	0.1412248356209602	30	diastole	23	B	500.0	streaming
603.0913	0.1412248356209602	30	diastole	24	A	3970.34830453257	streaming
603.5739	0.1412248356209602	30	diastole	25	A	3970.34830453257	streaming
603.8576	0.1412248356209602	30	diastole	26	B	500.0	streaming
604.1413	0.1412248356209602	30	diastole	27	A	3970.34830453257	streaming
610.208	0.1412286482518538	31	diastole	1	A	2130.3297690552017	streaming
610.4855	0.1412286482518538	31	diastole	2	B	500.0	streaming
610.763	0.1412286482518538	31	diastole	3	A	2130.3297690552017	streaming
611.238	0.1412286482518538	31	diastole	4	A	2130.3297690552017	streaming
611.5155	0.1412286482518538	31	diastole	5	B	500.0	streaming
611.7929	0.1412286482518538	31	diastole	6	A	2130.3297690552017	streaming
612.2389	0.1412286482518538	31	diastole	7	A	2130.3297690552017	streaming
612.5112	0.1412286482518538	31	diastole	8	B	500.0	streaming
612.7835	0.1412286482518538	31	diastole	9	A	2130.3297690552017	streaming
613.3928	0.1412286482518538	31	diastole	10	A	2130.3297690552017	streaming
613.6728	0.1412286482518538	31	diastole	11	B	500.0	streaming
613.9527	0.1412286482518538	31	diastole	12	A	2130.3297690552017	streaming
614.5059	0.1412286482518538	31	diastole	13	A	2130.3297690552017	streaming
614.7846	0.1412286482518538	31	diastole	14	B	500.0	streaming
615.0634	0.1412286482518538	31	diastole	15	A	2130.3297690552017	streaming
615.6258	0.1412286482518538	31	diastole	16	A	2130.3297690552017	streaming
615.9046	0.1412286482518538	31	diastole	17	B	500.0	streaming
616.1833	0.1412286482518538	31	diastole	18	A	2130.3297690552017	streaming
616.6845	0.1412286482518538	31	diastole	19	A	2130.3297690552017	streaming
616.9596	0.1412286482518538	31	diastole	20	B	500.0	streaming
617.2346	0.1412286482518538	31	diastole	21	A	2130.3297690552017	streaming
617.7232	0.1412286482518538	31	diastole	22	A	2130.3297690552017	streaming
617.9944	0.1412286482518538	31	diastole	23	B	500.0	streaming
618.2657	0.1412286482518538	31	diastole	24	A	2130.3297690552017	streaming
625.8891	0.1300119383959099	32	diastole	1	A	1473.0605584831292	coherent
626.1492	0.1300119383959099	32	diastole	2	B	500.0	coherent
626.4092	0.1300119383959099	32	diastole	3	A	1473.0605584831292	coherent
627.0186	0.1300119383959099	32	diastole	4	A	1473.0605584831292	coherent
627.2788	0.1300119383959099	32	diastole	5	B	500.0	coherent
627.5387	0.1300119383959099	32	diastole	6	A	1473.0605584831292	coherent
628.1888	0.1300119383959099	32	diastole	7	A	1473.0605584831292	coherent
628.4489	0.1300119383959099	32	diastole	8	B	500.0	coherent
628.7088	0.1300119383959099	32	diastole	9	A	1473.0605584831292	coherent
629.3485	0.1300119383959099	32	diastole	10	A	1473.0605584831292	coherent
629.6087	0.1300119383959099	32	diastole	11	B	500.0	coherent
629.8686	0.1300119383959099	32	diastole	12	A	1473.0605584831292	coherent
630.4288	0.1300119383959099	32	diastole	13	A	1473.0605584831292	coherent
630.6925	0.1300119383959099	32	diastole	14	B	500.0	coherent
630.9561	0.1300119383959099	32	diastole	15	A	1473.0605584831292	coherent
631.4883	0.1300119383959099	32	diastole	16	A	1473.0605584831292	coherent
631.7521	0.1300119383959099	32	diastole	17	B	500.0	coherent
632.0157	0.1300119383959099	32	diastole	18	A	1473.0605584831292	coherent
632.5729	0.1300119383959099	32	diastole	19	A	1473.0605584831292	coherent
632.8392	0.1300119383959099	32	diastole	20	B	500.0	coherent
633.1053	0.1300119383959099	32	diastole	21	A	1473.0605584831292	coherent
633.6029	0.1300119383959099	32	diastole	22	A	1473.0605584831292	coherent
633.8692	0.1300119383959099	32	diastole	23	B	500.0	coherent
634.1353	0.1300119383959099	32	diastole	24	A	1473.0605584831292	coherent
641.832	0.1299968473031185	33	diastole	1	A	1542.5842068661057	coherent
642.0909	0.1299968473031185	33	diastole	2	B	500.0	coherent
642.3495	0.1299968473031185	33	diastole	3	A	1542.5842068661057	coherent
642.9189	0.1299968473031185	33	diastole	4	A	1542.5842068661057	coherent
643.1791	0.1299968473031185	33	diastole	5	B	500.0	coherent
643.4389	0.1299968473031185	33	diastole	6	A	1542.5842068661057	coherent
643.9989	0.1299968473031185	33	diastole	7	A	1542.5842068661057	coherent
644.2591	0.1299968473031185	33	diastole	8	B	500.0	coherent
644.5189	0.1299968473031185	33	diastole	9	A	1542.5842068661057	coherent
645.1193	0.1299968473031185	33	diastole	10	A	1542.5842068661057	coherent
645.3794	0.1299968473031185	33	diastole	11	B	500.0	coherent
645.6393	0.1299968473031185	33	diastole	12	A	1542.5842068661057	coherent
646.1092	0.1299968473031185	33	diastole	13	A	1542.5842068661057	coherent
646.3694	0.1299968473031185	33	diastole	14	B	500.0	coherent
646.6292	0.1299968473031185	33	diastole	15	A	1542.5842068661057	coherent
647.0991	0.1299968473031185	33	diastole	16	A	1542.5842068661057	coherent
647.3593	0.1299968473031185	33	diastole	17	B	500.0	coherent
647.6192	0.1299968473031185	33	diastole	18	A	1542.5842068661057	coherent
648.139	0.1299968473031185	33	diastole	19	A	1542.5842068661057	coherent
648.3992	0.1299968473031185	33	diastole	20	B	500.0	coherent
648.659	0.1299968473031185	33	diastole	21	A	1542.5842068661057	coherent
649.2389	0.1299968473031185	33	diastole	22	A	1542.5842068661057	coherent
649.4991	0.1299968473031185	33	diastole	23	B	500.0	coherent
649.759	0.1299968473031185	33	diastole	24	A	1542.5842068661057	coherent
655.1782	0.1306308415951207	34	systole	1	A	737.5583956554606	coherent
655.441	0.1306308415951207	34	systole	2	B	500.0	coherent
655.7032	0.1306308415951207	34	systole	3	A	737.5583956554606	coherent
656.2382	0.1306308415951207	34	systole	4	A	737.5583956554606	coherent
656.501	0.1306308415951207	34	systole	5	B	500.0	coherent
656.7633	0.1306308415951207	34	systole	6	A	737.5583956554606	coherent
657.1983	0.1306308415951207	34	systole	7	A	737.5583956554606	coherent
657.4611	0.1306308415951207	34	systole	8	B	500.0	coherent
657.7233	0.1306308415951207	34	systole	9	A	737.5583956554606	coherent
658.1992	0.1306308415951207	34	systole	10	A	737.5583956554606	coherent
658.4594	0.1306308415951207	34	systole	11	B	500.0	coherent
658.7192	0.1306308415951207	34	systole	12	A	737.5583956554606	coherent
659.2536	0.1306308415951207	34	systole	13	A	737.5583956554606	coherent
659.5151	0.1306308415951207	34	systole	14	B	500.0	coherent
659.7761	0.1306308415951207	34	systole	15	A	737.5583956554606	coherent
660.289	0.1306308415951207	34	systole	16	A	737.5583956554606	coherent
660.5493	0.1306308415951207	34	systole	17	B	500.0	coherent
660.809	0.1306308415951207	34	systole	18	A	737.5583956554606	coherent
661.2799	0.1306308415951207	34	systole	19	A	737.5583956554606	coherent
661.5376	0.1306308415951207	34	systole	20	B	500.0	coherent
661.7949	0.1306308415951207	34	systole	21	A	737.5583956554606	coherent
662.3598	0.1306308415951207	34	systole	22	A	737.5583956554606	coherent
662.6176	0.1306308415951207	34	systole	23	B	500.0	coherent
662.8748	0.1306308415951207	34	systole	24	A	737.5583956554606	coherent
663.4099	0.1306308415951207	34	systole	25	A	737.5583956554606	coherent
663.6676	0.1306308415951207	34	systole	26	B	500.0	coherent
663.9249	0.1306308415951207	34	systole	27	A	737.5583956554606	coherent
664.4098	0.1306308415951207	34	systole	28	A	737.5583956554606	coherent
664.6676	0.1306308415951207	34	systole	29	B	500.0	coherent
664.9248	0.1306308415951207	34	systole	30	A	737.5583956554606	coherent
667.73	0.1256310962198767	35	diastole	1	A	4353.967332736322	streaming
667.9815	0.1256310962198767	35	diastole	2	B	500.0	streaming
668.2326	0.1256310962198767	35	diastole	3	A	4353.967332736322	streaming
668.7304	0.1256310962198767	35	diastole	4	A	4353.967332736322	streaming
668.9819	0.1256310962198767	35	diastole	5	B	500.0	streaming
669.233	0.1256310962198767	35	diastole	6	A	4353.967332736322	streaming
669.613	0.1256310962198767	35	diastole	7	A	4353.967332736322	streaming
669.8632	0.1256310962198767	35	diastole	8	B	500.0	streaming
670.113	0.1256310962198767	35	diastole	9	A	4353.967332736322	streaming
670.5031	0.1256310962198767	35	diastole	10	A	4353.967332736322	streaming
670.7532	0.1256310962198767	35	diastole	11	B	500.0	streaming
671.0031	0.1256310962198767	35	diastole	12	A	4353.967332736322	streaming
671.365	0.1256310962198767	35	diastole	13	A	4353.967332736322	streaming
671.6014	0.1256310962198767	35	diastole	14	B	500.0	streaming
671.8375	0.1256310962198767	35	diastole	15	A	4353.967332736322	streaming
672.3051	0.1256310962198767	35	diastole	16	A	4353.967332736322	streaming
672.5414	0.1256310962198767	35	diastole	17	B	500.0	streaming
672.7775	0.1256310962198767	35	diastole	18	A	4353.967332736322	streaming
673.2851	0.1256310962198767	35	diastole	19	A	4353.967332736322	streaming
673.5214	0.1256310962198767	35	diastole	20	B	500.0	streaming
673.7575	0.1256310962198767	35	diastole	21	A	4353.967332736322	streaming
674.265	0.1256310962198767	35	diastole	22	A	4353.967332736322	streaming
674.5014	0.1256310962198767	35	diastole	23	B	500.0	streaming
674.7374	0.1256310962198767	35	diastole	24	A	4353.967332736322	streaming
675.2854	0.1256310962198767	35	diastole	25	A	4353.967332736322	streaming
675.5218	0.1256310962198767	35	diastole	26	B	500.0	streaming
675.7578	0.1256310962198767	35	diastole	27	A	4353.967332736322	streaming
676.3017	0.1256310962198767	35	diastole	28	A	4353.967332736322	streaming
676.543	0.1256310962198767	35	diastole	29	B	500.0	streaming
676.7841	0.1256310962198767	35	diastole	30	A	4353.967332736322	streaming
679.445	0.1242272029048763	36	diastole	1	A	4157.735780147634	streaming
679.6938	0.1242272029048763	36	diastole	2	B	500.0	streaming
679.9424	0.1242272029048763	36	diastole	3	A	4157.735780147634	streaming
680.435	0.1242272029048763	36	diastole	4	A	4157.735780147634	streaming
680.6838	0.1242272029048763	36	diastole	5	B	500.0	streaming
680.9324	0.1242272029048763	36	diastole	6	A	4157.735780147634	streaming
681.405	0.1242272029048763	36	diastole	7	A	4157.735780147634	streaming
681.6538	0.1242272029048763	36	diastole	8	B	500.0	streaming
681.9024	0.1242272029048763	36	diastole	9	A	4157.735780147634	streaming
682.4228	0.1242272029048763	36	diastole	10	A	4157.735780147634	streaming
682.6744	0.1242272029048763	36	diastole	11	B	500.0	streaming
682.9258	0.1242272029048763	36	diastole	12	A	4157.735780147634	streaming
683.4248	0.1242272029048763	36	diastole	13	A	4157.735780147634	streaming
683.6764	0.1242272029048763	36	diastole	14	B	500.0	streaming
683.9278	0.1242272029048763	36	diastole	15	A	4157.735780147634	streaming
684.4475	0.1242272029048763	36	diastole	16	A	4157.735780147634	streaming
684.6978	0.1242272029048763	36	diastole	17	B	500.0	streaming
684.9479	0.1242272029048763	36	diastole	18	A	4157.735780147634	streaming
685.4649	0.1242272029048763	36	diastole	19	A	4157.735780147634	streaming
685.7164	0.1242272029048763	36	diastole	20	B	500.0	streaming
685.9678	0.1242272029048763	36	diastole	21	A	4157.735780147634	streaming
686.4749	0.1242272029048763	36	diastole	22	A	4157.735780147634	streaming
686.7264	0.1242272029048763	36	diastole	23	B	500.0	streaming
686.9778	0.1242272029048763	36	diastole	24	A	4157.735780147634	streaming
687.309	0.1242272029048763	36	diastole	25	A	4157.735780147634	streaming
687.5578	0.1242272029048763	36	diastole	26	B	500.0	streaming
687.8064	0.1242272029048763	36	diastole	27	A	4157.735780147634	streaming
688.178	0.1242272029048763	36	diastole	28	A	4157.735780147634	streaming
688.4231	0.1242272029048763	36	diastole	29	B	500.0	streaming
688.668	0.1242272029048763	36	diastole	30	A	4157.735780147634	streaming
690.3455	0.1186231574392877	37	systole	1	A	4999.999999999997	streaming
690.583	0.1186231574392877	37	systole	2	B	500.0	streaming
690.82	0.1186231574392877	37	systole	3	A	4999.999999999997	streaming
691.3155	0.1186231574392877	37	systole	4	A	4999.999999999997	streaming
691.553	0.1186231574392877	37	systole	5	B	500.0	streaming
691.79	0.1186231574392877	37	systole	6	A	4999.999999999997	streaming
692.2911	0.1186231574392877	37	systole	7	A	4999.999999999997	streaming
692.5301	0.1186231574392877	37	systole	8	B	500.0	streaming
692.7685	0.1186231574392877	37	systole	9	A	4999.999999999997	streaming
693.2611	0.1186231574392877	37	systole	10	A	4999.999999999997	streaming
693.5001	0.1186231574392877	37	systole	11	B	500.0	streaming
693.7386	0.1186231574392877	37	systole	12	A	4999.999999999997	streaming
694.1628	0.1186231574392877	37	systole	13	A	4999.999999999997	streaming
694.3968	0.1186231574392877	37	systole	14	B	500.0	streaming
694.6303	0.1186231574392877	37	systole	15	A	4999.999999999997	streaming
695.0828	0.1186231574392877	37	systole	16	A	4999.999999999997	streaming
695.3168	0.1186231574392877	37	systole	17	B	500.0	streaming
695.5503	0.1186231574392877	37	systole	18	A	4999.999999999997	streaming
696.0274	0.1186231574392877	37	systole	19	A	4999.999999999997	streaming
696.2626	0.1186231574392877	37	systole	20	B	500.0	streaming
696.4974	0.1186231574392877	37	systole	21	A	4999.999999999997	streaming
696.9674	0.1186231574392877	37	systole	22	A	4999.999999999997	streaming
697.2027	0.1186231574392877	37	systole	23	B	500.0	streaming
697.4374	0.1186231574392877	37	systole	24	A	4999.999999999997	streaming
697.8374	0.1186231574392877	37	systole	25	A	4999.999999999997	streaming
698.0727	0.1186231574392877	37	systole	26	B	500.0	streaming
698.3074	0.1186231574392877	37	systole	27	A	4999.999999999997	streaming
698.7476	0.1186231574392877	37	systole	28	A	4999.999999999997	streaming
698.9829	0.1186231574392877	37	systole	29	B	500.0	streaming
699.2176	0.1186231574392877	37	systole	30	A	4999.999999999997	streaming
699.7276	0.1186231574392877	37	systole	31	A	4999.999999999997	streaming
699.9628	0.1186231574392877	37	systole	32	B	500.0	streaming
700.1976	0.1186231574392877	37	systole	33	A	4999.999999999997	streaming
703.6517	0.1174972533481195	38	systole	1	A	4999.999999999997	streaming
703.8882	0.1174972533481195	38	systole	2	B	500.0	streaming
704.1241	0.1174972533481195	38	systole	3	A	4999.999999999997	streaming
704.6117	0.1174972533481195	38	systole	4	A	4999.999999999997	streaming
704.8482	0.1174972533481195	38	systole	5	B	500.0	streaming
705.0841	0.1174972533481195	38	systole	6	A	4999.999999999997	streaming
705.5562	0.1174972533481195	38	systole	7	A	4999.999999999997	streaming
705.794	0.1174972533481195	38	systole	8	B	500.0	streaming
706.0312	0.1174972533481195	38	systole	9	A	4999.999999999997	streaming
706.4963	0.1174972533481195	38	systole	10	A	4999.999999999997	streaming
706.734	0.1174972533481195	38	systole	11	B	500.0	streaming
706.9712	0.1174972533481195	38	systole	12	A	4999.999999999997	streaming
707.4609	0.1174972533481195	38	systole	13	A	4999.999999999997	streaming
707.6999	0.1174972533481195	38	systole	14	B	500.0	streaming
707.9384	0.1174972533481195	38	systole	15	A	4999.999999999997	streaming
708.421	0.1174972533481195	38	systole	16	A	4999.999999999997	streaming
708.66	0.1174972533481195	38	systole	17	B	500.0	streaming
708.8985	0.1174972533481195	38	systole	18	A	4999.999999999997	streaming
709.4656	0.1174972533481195	38	systole	19	A	4999.999999999997	streaming
709.7058	0.1174972533481195	38	systole	20	B	500.0	streaming
709.9456	0.1174972533481195	38	systole	21	A	4999.999999999997	streaming
710.5056	0.1174972533481195	38	systole	22	A	4999.999999999997	streaming
710.7458	0.1174972533481195	38	systole	23	B	500.0	streaming
710.9856	0.1174972533481195	38	systole	24	A	4999.999999999997	streaming
711.451	0.1174972533481195	38	systole	25	A	4999.999999999997	streaming
711.69	0.1174972533481195	38	systole	26	B	500.0	streaming
711.9285	0.1174972533481195	38	systole	27	A	4999.999999999997	streaming
717.8682	0.123750373837538	39	diastole	1	A	1771.4696608628924	coherent
718.1159	0.123750373837538	39	diastole	2	B	500.0	coherent
718.3632	0.123750373837538	39	diastole	3	A	1771.4696608628924	coherent
718.8381	0.123750373837538	39	diastole	4	A	1771.4696608628924	coherent
719.0859	0.123750373837538	39	diastole	5	B	500.0	coherent
719.3331	0.123750373837538	39	diastole	6	A	1771.4696608628924	coherent
719.8539	0.123750373837538	39	diastole	7	A	1771.4696608628924	coherent
720.0992	0.123750373837538	39	diastole	8	B	500.0	coherent
720.3439	0.123750373837538	39	diastole	9	A	1771.4696608628924	coherent
720.9339	0.123750373837538	39	diastole	10	A	1771.4696608628924	coherent
721.1792	0.123750373837538	39	diastole	11	B	500.0	coherent
721.4239	0.123750373837538	39	diastole	12	A	1771.4696608628924	coherent
722.0139	0.123750373837538	39	diastole	13	A	1771.4696608628924	coherent
722.2592	0.123750373837538	39	diastole	14	B	500.0	coherent
722.5039	0.123750373837538	39	diastole	15	A	1771.4696608628924	coherent
723.0351	0.123750373837538	39	diastole	16	A	1771.4696608628924	coherent
723.2841	0.123750373837538	39	diastole	17	B	500.0	coherent
723.5326	0.123750373837538	39	diastole	18	A	1771.4696608628924	coherent
724.035	0.123750373837538	39	diastole	19	A	1771.4696608628924	coherent
724.284	0.123750373837538	39	diastole	20	B	500.0	coherent
724.5325	0.123750373837538	39	diastole	21	A	1771.4696608628924	coherent
724.985	0.123750373837538	39	diastole	22	A	1771.4696608628924	coherent
725.234	0.123750373837538	39	diastole	23	B	500.0	coherent
725.4825	0.123750373837538	39	diastole	24	A	1771.4696608628924	coherent
726.035	0.123750373837538	39	diastole	25	A	1771.4696608628924	coherent
726.284	0.123750373837538	39	diastole	26	B	500.0	coherent
726.5325	0.123750373837538	39	diastole	27	A	1771.4696608628924	coherent
732.3143	0.129994492221158	40	diastole	1	A	3791.406306907005	streaming
732.572	0.129994492221158	40	diastole	2	B	500.0	streaming
732.8292	0.129994492221158	40	diastole	3	A	3791.406306907005	streaming
733.344	0.129994492221158	40	diastole	4	A	3791.406306907005	streaming
733.6016	0.129994492221158	40	diastole	5	B	500.0	streaming
733.8589	0.129994492221158	40	diastole	6	A	3791.406306907005	streaming
734.3736	0.129994492221158	40	diastole	7	A	3791.406306907005	streaming
734.6313	0.129994492221158	40	diastole	8	B	500.0	streaming
734.8885	0.129994492221158	40	diastole	9	A	3791.406306907005	streaming
735.4523	0.129994492221158	40	diastole	10	A	3791.406306907005	streaming
735.715	0.129994492221158	40	diastole	11	B	500.0	streaming
735.9773	0.129994492221158	40	diastole	12	A	3791.406306907005	streaming
736.4351	0.129994492221158	40	diastole	13	A	3791.406306907005	streaming
736.6966	0.129994492221158	40	diastole	14	B	500.0	streaming
736.9576	0.129994492221158	40	diastole	15	A	3791.406306907005	streaming
737.3809	0.129994492221158	40	diastole	16	A	3791.406306907005	streaming
737.6398	0.129994492221158	40	diastole	17	B	500.0	streaming
737.8983	0.129994492221158	40	diastole	18	A	3791.406306907005	streaming
738.3408	0.129994492221158	40	diastole	19	A	3791.406306907005	streaming
738.5998	0.129994492221158	40	diastole	20	B	500.0	streaming
738.8583	0.129994492221158	40	diastole	21	A	3791.406306907005	streaming
739.3008	0.129994492221158	40	diastole	22	A	3791.406306907005	streaming
739.5598	0.129994492221158	40	diastole	23	B	500.0	streaming
739.8183	0.129994492221158	40	diastole	24	A	3791.406306907005	streaming
740.3909	0.129994492221158	40	diastole	25	A	3791.406306907005	streaming
740.6498	0.129994492221158	40	diastole	26	B	500.0	streaming
740.9083	0.129994492221158	40	diastole	27	A	3791.406306907005	streaming
747.6203	0.127487932506483	41	diastole	1	A	1942.6308330494364	coherent
747.8756	0.127487932506483	41	diastole	2	B	500.0	coherent
748.1302	0.127487932506483	41	diastole	3	A	1942.6308330494364	coherent
748.5802	0.127487932506483	41	diastole	4	A	1942.6308330494364	coherent
748.8355	0.127487932506483	41	diastole	5	B	500.0	coherent
749.0902	0.127487932506483	41	diastole	6	A	1942.6308330494364	coherent
749.6374	0.127487932506483	41	diastole	7	A	1942.6308330494364	coherent
749.8939	0.127487932506483	41	diastole	8	B	500.0	coherent
750.1498	0.127487932506483	41	diastole	9	A	1942.6308330494364	coherent
750.6874	0.127487932506483	41	diastole	10	A	1942.6308330494364	coherent
750.9439	0.127487932506483	41	diastole	11	B	500.0	coherent
751.1998	0.127487932506483	41	diastole	12	A	1942.6308330494364	coherent
751.6692	0.127487932506483	41	diastole	13	A	1942.6308330494364	coherent
751.9208	0.127487932506483	41	diastole	14	B	500.0	coherent
752.1717	0.127487932506483	41	diastole	15	A	1942.6308330494364	coherent
752.6451	0.127487932506483	41	diastole	16	A	1942.6308330494364	coherent
752.8941	0.127487932506483	41	diastole	17	B	500.0	coherent
753.1426	0.127487932506483	41	diastole	18	A	1942.6308330494364	coherent
753.5982	0.127487932506483	41	diastole	19	A	1942.6308330494364	coherent
753.846	0.127487932506483	41	diastole	20	B	500.0	coherent
754.0932	0.127487932506483	41	diastole	21	A	1942.6308330494364	coherent
754.5178	0.127487932506483	41	diastole	22	A	1942.6308330494364	coherent
754.7656	0.127487932506483	41	diastole	23	B	500.0	coherent
755.0128	0.127487932506483	41	diastole	24	A	1942.6308330494364	coherent
755.4898	0.127487932506483	41	diastole	25	A	1942.6308330494364	coherent
755.7376	0.127487932506483	41	diastole	26	B	500.0	coherent
755.9848	0.127487932506483	41	diastole	27	A	1942.6308330494364	coherent
756.4618	0.127487932506483	41	diastole	28	A	1942.6308330494364	coherent
756.7096	0.127487932506483	41	diastole	29	B	500.0	coherent
756.9568	0.127487932506483	41	diastole	30	A	1942.6308330494364	coherent
763.3057	0.1226505476806778	42	diastole	1	A	3457.353363503972	streaming
763.5513	0.1226505476806778	42	diastole	2	B	500.0	streaming
763.7963	0.1226505476806778	42	diastole	3	A	3457.353363503972	streaming
764.3931	0.1226505476806778	42	diastole	4	A	3457.353363503972	streaming
764.6472	0.1226505476806778	42	diastole	5	B	500.0	streaming
764.9006	0.1226505476806778	42	diastole	6	A	3457.353363503972	streaming
765.4327	0.1226505476806778	42	diastole	7	A	3457.353363503972	streaming
765.6868	0.1226505476806778	42	diastole	8	B	500.0	streaming
765.9402	0.1226505476806778	42	diastole	9	A	3457.353363503972	streaming
766.4723	0.1226505476806778	42	diastole	10	A	3457.353363503972	streaming
766.7264	0.1226505476806778	42	diastole	11	B	500.0	streaming
766.9798	0.1226505476806778	42	diastole	12	A	3457.353363503972	streaming
767.6066	0.1226505476806778	42	diastole	13	A	3457.353363503972	streaming
767.872	0.1226505476806778	42	diastole	14	B	500.0	streaming
768.1367	0.1226505476806778	42	diastole	15	A	3457.353363503972	streaming
768.6769	0.1226505476806778	42	diastole	16	A	3457.353363503972	streaming
768.9423	0.1226505476806778	42	diastole	17	B	500.0	streaming
769.207	0.1226505476806778	42	diastole	18	A	3457.353363503972	streaming
769.7069	0.1226505476806778	42	diastole	19	A	3457.353363503972	streaming
769.9723	0.1226505476806778	42	diastole	20	B	500.0	streaming
770.2369	0.1226505476806778	42	diastole	21	A	3457.353363503972	streaming
770.6968	0.1226505476806778	42	diastole	22	A	3457.353363503972	streaming
770.9623	0.1226505476806778	42	diastole	23	B	500.0	streaming
771.2269	0.1226505476806778	42	diastole	24	A	3457.353363503972	streaming
775.1986	0.1343949746806174	43	diastole	1	A	3301.531841080714	streaming
775.4677	0.1343949746806174	43	diastole	2	B	500.0	streaming
775.7361	0.1343949746806174	43	diastole	3	A	3301.531841080714	streaming
776.2286	0.1343949746806174	43	diastole	4	A	3301.531841080714	streaming
776.4978	0.1343949746806174	43	diastole	5	B	500.0	streaming
776.7662	0.1343949746806174	43	diastole	6	A	3301.531841080714	streaming
777.2587	0.1343949746806174	43	diastole	7	A	3301.531841080714	streaming
777.5278	0.1343949746806174	43	diastole	8	B	500.0	streaming
777.7963	0.1343949746806174	43	diastole	9	A	3301.531841080714	streaming
778.2888	0.1343949746806174	43	diastole	10	A	3301.531841080714	streaming
778.5579	0.1343949746806174	43	diastole	11	B	500.0	streaming
778.8263	0.1343949746806174	43	diastole	12	A	3301.531841080714	streaming
779.4127	0.1343949746806174	43	diastole	13	A	3301.531841080714	streaming
779.6843	0.1343949746806174	43	diastole	14	B	500.0	streaming
779.9552	0.1343949746806174	43	diastole	15	A	3301.531841080714	streaming
780.5468	0.1343949746806174	43	diastole	16	A	3301.531841080714	streaming
780.8208	0.1343949746806174	43	diastole	17	B	500.0	streaming
781.0942	0.1343949746806174	43	diastole	18	A	3301.531841080714	streaming
781.6668	0.1343949746806174	43	diastole	19	A	3301.531841080714	streaming
781.9409	0.1343949746806174	43	diastole	20	B	500.0	streaming
782.2143	0.1343949746806174	43	diastole	21	A	3301.531841080714	streaming
782.7028	0.1343949746806174	43	diastole	22	A	3301.531841080714	streaming
782.9744	0.1343949746806174	43	diastole	23	B	500.0	streaming
783.2453	0.1343949746806174	43	diastole	24	A	3301.531841080714	streaming
790.1843	0.1331281938182655	44	diastole	1	A	2390.658456026444	coherent
790.451	0.1331281938182655	44	diastole	2	B	500.0	coherent
790.7168	0.1331281938182655	44	diastole	3	A	2390.658456026444	coherent
791.3044	0.1331281938182655	44	diastole	4	A	2390.658456026444	coherent
791.5711	0.1331281938182655	44	diastole	5	B	500.0	coherent
791.8369	0.1331281938182655	44	diastole	6	A	2390.658456026444	coherent
792.4245	0.1331281938182655	44	diastole	7	A	2390.658456026444	coherent
792.6911	0.1331281938182655	44	diastole	8	B	500.0	coherent
792.957	0.1331281938182655	44	diastole	9	A	2390.658456026444	coherent
793.4545	0.1331281938182655	44	diastole	10	A	2390.658456026444	coherent
793.7211	0.1331281938182655	44	diastole	11	B	500.0	coherent
793.987	0.1331281938182655	44	diastole	12	A	2390.658456026444	coherent
794.5168	0.1331281938182655	44	diastole	13	A	2390.658456026444	coherent
794.7822	0.1331281938182655	44	diastole	14	B	500.0	coherent
795.0468	0.1331281938182655	44	diastole	15	A	2390.658456026444	coherent
795.5865	0.1331281938182655	44	diastole	16	A	2390.658456026444	coherent
795.8519	0.1331281938182655	44	diastole	17	B	500.0	coherent
796.1165	0.1331281938182655	44	diastole	18	A	2390.658456026444	coherent
796.6541	0.1331281938182655	44	diastole	19	A	2390.658456026444	coherent
796.9208	0.1331281938182655	44	diastole	20	B	500.0	coherent
797.1867	0.1331281938182655	44	diastole	21	A	2390.658456026444	coherent
797.6502	0.1331281938182655	44	diastole	22	A	2390.658456026444	coherent
797.9144	0.1331281938182655	44	diastole	23	B	500.0	coherent
798.1778	0.1331281938182655	44	diastole	24	A	2390.658456026444	coherent
802.4117	0.1337317339202854	45	systole	1	A	790.3852555644094	coherent
802.6783	0.1337317339202854	45	systole	2	B	500.0	coherent
802.9442	0.1337317339202854	45	systole	3	A	790.3852555644094	coherent
803.4317	0.1337317339202854	45	systole	4	A	790.3852555644094	coherent
803.6983	0.1337317339202854	45	systole	5	B	500.0	coherent
803.9642	0.1337317339202854	45	systole	6	A	790.3852555644094	coherent
804.4517	0.1337317339202854	45	systole	7	A	790.3852555644094	coherent
804.7183	0.1337317339202854	45	systole	8	B	500.0	coherent
804.9842	0.1337317339202854	45	systole	9	A	790.3852555644094	coherent
805.4388	0.1337317339202854	45	systole	10	A	790.3852555644094	coherent
805.6991	0.1337317339202854	45	systole	11	B	500.0	coherent
805.9587	0.1337317339202854	45	systole	12	A	790.3852555644094	coherent
806.4487	0.1337317339202854	45	systole	13	A	790.3852555644094	coherent
806.7091	0.1337317339202854	45	systole	14	B	500.0	coherent
806.9687	0.1337317339202854	45	systole	15	A	790.3852555644094	coherent
807.3996	0.1337317339202854	45	systole	16	A	790.3852555644094	coherent
807.6574	0.1337317339202854	45	systole	17	B	500.0	coherent
807.9146	0.1337317339202854	45	systole	18	A	790.3852555644094	coherent
808.3596	0.1337317339202854	45	systole	19	A	790.3852555644094	coherent
808.6174	0.1337317339202854	45	systole	20	B	500.0	coherent
808.8746	0.1337317339202854	45	systole	21	A	790.3852555644094	coherent
809.4458	0.1337317339202854	45	systole	22	A	790.3852555644094	coherent
809.6999	0.1337317339202854	45	systole	23	B	500.0	coherent
809.9534	0.1337317339202854	45	systole	24	A	790.3852555644094	coherent
810.5457	0.1337317339202854	45	systole	25	A	790.3852555644094	coherent
810.7998	0.1337317339202854	45	systole	26	B	500.0	coherent
811.0533	0.1337317339202854	45	systole	27	A	790.3852555644094	coherent
811.6457	0.1337317339202854	45	systole	28	A	790.3852555644094	coherent
811.8998	0.1337317339202854	45	systole	29	B	500.0	coherent
812.1532	0.1337317339202854	45	systole	30	A	790.3852555644094	coherent
814.8332	0.1281364162277896	46	systole	1	A	4999.999999999997	streaming
815.0948	0.1281364162277896	46	systole	2	B	500.0	streaming
815.3557	0.1281364162277896	46	systole	3	A	4999.999999999997	streaming
815.9331	0.1281364162277896	46	systole	4	A	4999.999999999997	streaming
816.1948	0.1281364162277896	46	systole	5	B	500.0	streaming
816.4556	0.1281364162277896	46	systole	6	A	4999.999999999997	streaming
816.9732	0.1281364162277896	46	systole	7	A	4999.999999999997	streaming
817.2348	0.1281364162277896	46	systole	8	B	500.0	streaming
817.4957	0.1281364162277896	46	systole	9	A	4999.999999999997	streaming
817.9332	0.1281364162277896	46	systole	10	A	4999.999999999997	streaming
818.1948	0.1281364162277896	46	systole	11	B	500.0	streaming
818.4557	0.1281364162277896	46	systole	12	A	4999.999999999997	streaming
818.9232	0.1281364162277896	46	systole	13	A	4999.999999999997	streaming
819.1848	0.1281364162277896	46	systole	14	B	500.0	streaming
819.4457	0.1281364162277896	46	systole	15	A	4999.999999999997	streaming
819.9132	0.1281364162277896	46	systole	16	A	4999.999999999997	streaming
820.1748	0.1281364162277896	46	systole	17	B	500.0	streaming
820.4357	0.1281364162277896	46	systole	18	A	4999.999999999997	streaming
821.0032	0.1281364162277896	46	systole	19	A	4999.999999999997	streaming
821.2648	0.1281364162277896	46	systole	20	B	500.0	streaming
821.5257	0.1281364162277896	46	systole	21	A	4999.999999999997	streaming
822.0931	0.1281364162277896	46	systole	22	A	4999.999999999997	streaming
822.3548	0.1281364162277896	46	systole	23	B	500.0	streaming
822.6156	0.1281364162277896	46	systole	24	A	4999.999999999997	streaming
823.1831	0.1281364162277896	46	systole	25	A	4999.999999999997	streaming
823.4447	0.1281364162277896	46	systole	26	B	500.0	streaming
823.7056	0.1281364162277896	46	systole	27	A	4999.999999999997	streaming
826.5354	0.1318812019599136	47	systole	1	A	846.9957848672357	coherent
826.8058	0.1318812019599136	47	systole	2	B	500.0	coherent
827.0754	0.1318812019599136	47	systole	3	A	846.9957848672357	coherent
827.6454	0.1318812019599136	47	systole	4	A	846.9957848672357	coherent
827.9158	0.1318812019599136	47	systole	5	B	500.0	coherent
828.1854	0.1318812019599136	47	systole	6	A	846.9957848672357	coherent
828.6754	0.1318812019599136	47	systole	7	A	846.9957848672357	coherent
828.9458	0.1318812019599136	47	systole	8	B	500.0	coherent
829.2154	0.1318812019599136	47	systole	9	A	846.9957848672357	coherent
829.6754	0.1318812019599136	47	systole	10	A	846.9957848672357	coherent
829.9458	0.1318812019599136	47	systole	11	B	500.0	coherent
830.2154	0.1318812019599136	47	systole	12	A	846.9957848672357	coherent
830.6825	0.1318812019599136	47	systole	13	A	846.9957848672357	coherent
830.9466	0.1318812019599136	47	systole	14	B	500.0	coherent
831.21	0.1318812019599136	47	systole	15	A	846.9957848672357	coherent
831.7125	0.1318812019599136	47	systole	16	A	846.9957848672357	coherent
831.9766	0.1318812019599136	47	systole	17	B	500.0	coherent
832.24	0.1318812019599136	47	systole	18	A	846.9957848672357	coherent
832.8025	0.1318812019599136	47	systole	19	A	846.9957848672357	coherent
833.0666	0.1318812019599136	47	systole	20	B	500.0	coherent
833.33	0.1318812019599136	47	systole	21	A	846.9957848672357	coherent
833.9217	0.1318812019599136	47	systole	22	A	846.9957848672357	coherent
834.1883	0.1318812019599136	47	systole	23	B	500.0	coherent
834.4542	0.1318812019599136	47	systole	24	A	846.9957848672357	coherent
835.02	0.1318812019599136	47	systole	25	A	846.9957848672357	coherent
835.2917	0.1318812019599136	47	systole	26	B	500.0	coherent
835.5625	0.1318812019599136	47	systole	27	A	846.9957848672357	coherent
838.3701	0.1350053311907686	48	systole	1	A	4774.652015515508	streaming
838.6417	0.1350053311907686	48	systole	2	B	500.0	streaming
838.9126	0.1350053311907686	48	systole	3	A	4774.652015515508	streaming
839.4001	0.1350053311907686	48	systole	4	A	4774.652015515508	streaming
839.6717	0.1350053311907686	48	systole	5	B	500.0	streaming
839.9426	0.1350053311907686	48	systole	6	A	4774.652015515508	streaming
840.43	0.1350053311907686	48	systole	7	A	4774.652015515508	streaming
840.7016	0.1350053311907686	48	systole	8	B	500.0	streaming
840.9725	0.1350053311907686	48	systole	9	A	4774.652015515508	streaming
841.4601	0.1350053311907686	48	systole	10	A	4774.652015515508	streaming
841.7317	0.1350053311907686	48	systole	11	B	500.0	streaming
842.0026	0.1350053311907686	48	systole	12	A	4774.652015515508	streaming
842.5154	0.1350053311907686	48	systole	13	A	4774.652015515508	streaming
842.7858	0.1350053311907686	48	systole	14	B	500.0	streaming
843.0555	0.1350053311907686	48	systole	15	A	4774.652015515508	streaming
843.6154	0.1350053311907686	48	systole	16	A	4774.652015515508	streaming
843.8858	0.1350053311907686	48	systole	17	B	500.0	streaming
844.1555	0.1350053311907686	48	systole	18	A	4774.652015515508	streaming
844.7446	0.1350053311907686	48	systole	19	A	4774.652015515508	streaming
845.0175	0.1350053311907686	48	systole	20	B	500.0	streaming
845.2896	0.1350053311907686	48	systole	21	A	4774.652015515508	streaming
845.8001	0.1350053311907686	48	systole	22	A	4774.652015515508	streaming
846.0716	0.1350053311907686	48	systole	23	B	500.0	streaming
846.3426	0.1350053311907686	48	systole	24	A	4774.652015515508	streaming
846.8601	0.1350053311907686	48	systole	25	A	4774.652015515508	streaming
847.1317	0.1350053311907686	48	systole	26	B	500.0	streaming
847.4026	0.1350053311907686	48	systole	27	A	4774.652015515508	streaming
850.0171	0.1325025797705166	49	systole	1	A	907.6609849845596	coherent
850.2825	0.1325025797705166	49	systole	2	B	500.0	coherent
850.5471	0.1325025797705166	49	systole	3	A	907.6609849845596	coherent
851.077	0.1325025797705166	49	systole	4	A	907.6609849845596	coherent
851.3424	0.1325025797705166	49	systole	5	B	500.0	coherent
851.6071	0.1325025797705166	49	systole	6	A	907.6609849845596	coherent
852.137	0.1325025797705166	49	systole	7	A	907.6609849845596	coherent
852.4024	0.1325025797705166	49	systole	8	B	500.0	coherent
852.667	0.1325025797705166	49	systole	9	A	907.6609849845596	coherent
853.2516	0.1325025797705166	49	systole	10	A	907.6609849845596	coherent
853.5182	0.1325025797705166	49	systole	11	B	500.0	coherent
853.7841	0.1325025797705166	49	systole	12	A	907.6609849845596	coherent
854.257	0.1325025797705166	49	systole	13	A	907.6609849845596	coherent
854.5224	0.1325025797705166	49	systole	14	B	500.0	coherent
854.787	0.1325025797705166	49	systole	15	A	907.6609849845596	coherent
855.2969	0.1325025797705166	49	systole	16	A	907.6609849845596	coherent
855.5622	0.1325025797705166	49	systole	17	B	500.0	coherent
855.8268	0.1325025797705166	49	systole	18	A	907.6609849845596	coherent
856.3367	0.1325025797705166	49	systole	19	A	907.6609849845596	coherent
856.6021	0.1325025797705166	49	systole	20	B	500.0	coherent
856.8667	0.1325025797705166	49	systole	21	A	907.6609849845596	coherent
857.4167	0.1325025797705166	49	systole	22	A	907.6609849845596	coherent
857.6821	0.1325025797705166	49	systole	23	B	500.0	coherent
857.9467	0.1325025797705166	49	systole	24	A	907.6609849845596	coherent
858.4421	0.1325025797705166	49	systole	25	A	907.6609849845596	coherent
858.7063	0.1325025797705166	49	systole	26	B	500.0	coherent
858.9696	0.1325025797705166	49	systole	27	A	907.6609849845596	coherent
863.1187	0.1312600313976872	50	diastole	1	A	2446.423693900757	streaming
863.3791	0.1312600313976872	50	diastole	2	B	500.0	streaming
863.6387	0.1312600313976872	50	diastole	3	A	2446.423693900757	streaming
864.1416	0.1312600313976872	50	diastole	4	A	2446.423693900757	streaming
864.4008	0.1312600313976872	50	diastole	5	B	500.0	streaming
864.659	0.1312600313976872	50	diastole	6	A	2446.423693900757	streaming
865.2587	0.1312600313976872	50	diastole	7	A	2446.423693900757	streaming
865.5191	0.1312600313976872	50	diastole	8	B	500.0	streaming
865.7787	0.1312600313976872	50	diastole	9	A	2446.423693900757	streaming
866.3688	0.1312600313976872	50	diastole	10	A	2446.423693900757	streaming
866.6292	0.1312600313976872	50	diastole	11	B	500.0	streaming
866.8887	0.1312600313976872	50	diastole	12	A	2446.423693900757	streaming
867.4788	0.1312600313976872	50	diastole	13	A	2446.423693900757	streaming
867.7392	0.1312600313976872	50	diastole	14	B	500.0	streaming
867.9988	0.1312600313976872	50	diastole	15	A	2446.423693900757	streaming
868.5732	0.1312600313976872	50	diastole	16	A	2446.423693900757	streaming
868.8361	0.1312600313976872	50	diastole	17	B	500.0	streaming
869.0982	0.1312600313976872	50	diastole	18	A	2446.423693900757	streaming
869.6533	0.1312600313976872	50	diastole	19	A	2446.423693900757	streaming
869.9162	0.1312600313976872	50	diastole	20	B	500.0	streaming
870.1783	0.1312600313976872	50	diastole	21	A	2446.423693900757	streaming
870.7716	0.1312600313976872	50	diastole	22	A	2446.423693900757	streaming
871.0395	0.1312600313976872	50	diastole	23	B	500.0	streaming
871.3066	0.1312600313976872	50	diastole	24	A	2446.423693900757	streaming
873.5446	0.1356259146705269	51	systole	1	A	4455.529320143999	streaming
873.8174	0.1356259146705269	51	systole	2	B	500.0	streaming
874.0896	0.1356259146705269	51	systole	3	A	4455.529320143999	streaming
874.6246	0.1356259146705269	51	systole	4	A	4455.529320143999	streaming
874.8974	0.1356259146705269	51	systole	5	B	500.0	streaming
875.1695	0.1356259146705269	51	systole	6	A	4455.529320143999	streaming
875.7046	0.1356259146705269	51	systole	7	A	4455.529320143999	streaming
875.9773	0.1356259146705269	51	systole	8	B	500.0	streaming
876.2495	0.1356259146705269	51	systole	9	A	4455.529320143999	streaming
876.7756	0.1356259146705269	51	systole	10	A	4455.529320143999	streaming
877.0459	0.1356259146705269	51	systole	11	B	500.0	streaming
877.3156	0.1356259146705269	51	systole	12	A	4455.529320143999	streaming
877.8655	0.1356259146705269	51	systole	13	A	4455.529320143999	streaming
878.1358	0.1356259146705269	51	systole	14	B	500.0	streaming
878.4055	0.1356259146705269	51	systole	15	A	4455.529320143999	streaming
878.9555	0.1356259146705269	51	systole	16	A	4455.529320143999	streaming
879.2258	0.1356259146705269	51	systole	17	B	500.0	streaming
879.4955	0.1356259146705269	51	systole	18	A	4455.529320143999	streaming
879.9754	0.1356259146705269	51	systole	19	A	4455.529320143999	streaming
880.2457	0.1356259146705269	51	systole	20	B	500.0	streaming
880.5154	0.1356259146705269	51	systole	21	A	4455.529320143999	streaming
881.0715	0.1356259146705269	51	systole	22	A	4455.529320143999	streaming
881.3408	0.1356259146705269	51	systole	23	B	500.0	streaming
881.6094	0.1356259146705269	51	systole	24	A	4455.529320143999	streaming
882.1855	0.1356259146705269	51	systole	25	A	4455.529320143999	streaming
882.4558	0.1356259146705269	51	systole	26	B	500.0	streaming
882.7255	0.1356259146705269	51	systole	27	A	4455.529320143999	streaming
885.45	0.1350033956987317	52	systole	1	A	995.3600980827048	coherent
885.7217	0.1350033956987317	52	systole	2	B	500.0	coherent
885.9925	0.1350033956987317	52	systole	3	A	995.3600980827048	coherent
886.5591	0.1350033956987317	52	systole	4	A	995.3600980827048	coherent
886.8332	0.1350033956987317	52	systole	5	B	500.0	coherent
887.1065	0.1350033956987317	52	systole	6	A	995.3600980827048	coherent
887.659	0.1350033956987317	52	systole	7	A	995.3600980827048	coherent
887.9332	0.1350033956987317	52	systole	8	B	500.0	coherent
888.2065	0.1350033956987317	52	systole	9	A	995.3600980827048	coherent
888.749	0.1350033956987317	52	systole	10	A	995.3600980827048	coherent
889.0232	0.1350033956987317	52	systole	11	B	500.0	coherent
889.2965	0.1350033956987317	52	systole	12	A	995.3600980827048	coherent
889.8736	0.1350033956987317	52	systole	13	A	995.3600980827048	coherent
890.149	0.1350033956987317	52	systole	14	B	500.0	coherent
890.4236	0.1350033956987317	52	systole	15	A	995.3600980827048	coherent
890.9806	0.1350033956987317	52	systole	16	A	995.3600980827048	coherent
891.2574	0.1350033956987317	52	systole	17	B	500.0	coherent
891.5335	0.1350033956987317	52	systole	18	A	995.3600980827048	coherent
892.0821	0.1350033956987317	52	systole	19	A	995.3600980827048	coherent
892.359	0.1350033956987317	52	systole	20	B	500.0	coherent
892.635	0.1350033956987317	52	systole	21	A	995.3600980827048	coherent
893.2399	0.1350033956987317	52	systole	22	A	995.3600980827048	coherent
893.5189	0.1350033956987317	52	systole	23	B	500.0	coherent
893.7971	0.1350033956987317	52	systole	24	A	995.3600980827048	coherent
894.4153	0.1350033956987317	52	systole	25	A	995.3600980827048	coherent
894.6957	0.1350033956987317	52	systole	26	B	500.0	coherent
894.9753	0.1350033956987317	52	systole	27	A	995.3600980827048	coherent
897.7817	0.1400030942459125	53	systole	1	A	4062.961875947593	coherent
898.0622	0.1400030942459125	53	systole	2	B	500.0	coherent
898.3417	0.1400030942459125	53	systole	3	A	4062.961875947593	coherent
898.8721	0.1400030942459125	53	systole	4	A	4062.961875947593	coherent
899.1526	0.1400030942459125	53	systole	5	B	500.0	coherent
899.4322	0.1400030942459125	53	systole	6	A	4062.961875947593	coherent
899.9626	0.1400030942459125	53	systole	7	A	4062.961875947593	coherent
900.243	0.1400030942459125	53	systole	8	B	500.0	coherent
900.5226	0.1400030942459125	53	systole	9	A	4062.961875947593	coherent
900.9788	0.1400030942459125	53	systole	10	A	4062.961875947593	coherent
901.2555	0.1400030942459125	53	systole	11	B	500.0	coherent
901.5313	0.1400030942459125	53	systole	12	A	4062.961875947593	coherent
902.0088	0.1400030942459125	53	systole	13	A	4062.961875947593	coherent
902.2855	0.1400030942459125	53	systole	14	B	500.0	coherent
902.5614	0.1400030942459125	53	systole	15	A	4062.961875947593	coherent
903.0941	0.1400030942459125	53	systole	16	A	4062.961875947593	coherent
903.3694	0.1400030942459125	53	systole	17	B	500.0	coherent
903.6438	0.1400030942459125	53	systole	18	A	4062.961875947593	coherent
904.1844	0.1400030942459125	53	systole	19	A	4062.961875947593	coherent
904.4597	0.1400030942459125	53	systole	20	B	500.0	coherent
904.7341	0.1400030942459125	53	systole	21	A	4062.961875947593	coherent
905.3397	0.1400030942459125	53	systole	22	A	4062.961875947593	coherent
905.6165	0.1400030942459125	53	systole	23	B	500.0	coherent
905.8923	0.1400030942459125	53	systole	24	A	4062.961875947593	coherent
906.4894	0.1400030942459125	53	systole	25	A	4062.961875947593	coherent
906.7661	0.1400030942459125	53	systole	26	B	500.0	coherent
907.042	0.1400030942459125	53	systole	27	A	4062.961875947593	coherent
911.1252	0.1431265769933816	54	systole	1	A	4999.999999999997	streaming
911.4118	0.1431265769933816	54	systole	2	B	500.0	streaming
911.6977	0.1431265769933816	54	systole	3	A	4999.999999999997	streaming
912.1951	0.1431265769933816	54	systole	4	A	4999.999999999997	streaming
912.4818	0.1431265769933816	54	systole	5	B	500.0	streaming
912.7676	0.1431265769933816	54	systole	6	A	4999.999999999997	streaming
913.2651	0.1431265769933816	54	systole	7	A	4999.999999999997	streaming
913.5518	0.1431265769933816	54	systole	8	B	500.0	streaming
913.8376	0.1431265769933816	54	systole	9	A	4999.999999999997	streaming
914.3247	0.1431265769933816	54	systole	10	A	4999.999999999997	streaming
914.6114	0.1431265769933816	54	systole	11	B	500.0	streaming
914.8972	0.1431265769933816	54	systole	12	A	4999.999999999997	streaming
915.3468	0.1431265769933816	54	systole	13	A	4999.999999999997	streaming
915.6285	0.1431265769933816	54	systole	14	B	500.0	streaming
915.9093	0.1431265769933816	54	systole	15	A	4999.999999999997	streaming
916.4278	0.1431265769933816	54	systole	16	A	4999.999999999997	streaming
916.7043	0.1431265769933816	54	systole	17	B	500.0	streaming
916.9801	0.1431265769933816	54	systole	18	A	4999.999999999997	streaming
917.5275	0.1431265769933816	54	systole	19	A	4999.999999999997	streaming
917.804	0.1431265769933816	54	systole	20	B	500.0	streaming
918.0797	0.1431265769933816	54	systole	21	A	4999.999999999997	streaming
918.6974	0.1431265769933816	54	systole	22	A	4999.999999999997	streaming
918.974	0.1431265769933816	54	systole	23	B	500.0	streaming
919.2498	0.1431265769933816	54	systole	24	A	4999.999999999997	streaming
919.8674	0.1431265769933816	54	systole	25	A	4999.999999999997	streaming
920.1439	0.1431265769933816	54	systole	26	B	500.0	streaming
920.4197	0.1431265769933816	54	systole	27	A	4999.999999999997	streaming
923.9203	0.1425055288418661	55	diastole	1	A	3301.531841080714	streaming
924.2056	0.1425055288418661	55	diastole	2	B	500.0	streaming
924.4903	0.1425055288418661	55	diastole	3	A	3301.531841080714	streaming
924.9603	0.1425055288418661	55	diastole	4	A	3301.531841080714	streaming
925.2457	0.1425055288418661	55	diastole	5	B	500.0	streaming
925.5303	0.1425055288418661	55	diastole	6	A	3301.531841080714	streaming
926.0505	0.1425055288418661	55	diastole	7	A	3301.531841080714	streaming
926.3358	0.1425055288418661	55	diastole	8	B	500.0	streaming
926.6205	0.1425055288418661	55	diastole	9	A	3301.531841080714	streaming
927.1406	0.1425055288418661	55	diastole	10	A	3301.531841080714	streaming
927.4259	0.1425055288418661	55	diastole	11	B	500.0	streaming
927.7106	0.1425055288418661	55	diastole	12	A	3301.531841080714	streaming
928.1894	0.1425055288418661	55	diastole	13	A	3301.531841080714	streaming
928.4709	0.1425055288418661	55	diastole	14	B	500.0	streaming
928.7519	0.1425055288418661	55	diastole	15	A	3301.531841080714	streaming
929.2593	0.1425055288418661	55	diastole	16	A	3301.531841080714	streaming
929.5409	0.1425055288418661	55	diastole	17	B	500.0	streaming
929.8218	0.1425055288418661	55	diastole	18	A	3301.531841080714	streaming
930.3651	0.1425055288418661	55	diastole	19	A	3301.531841080714	streaming
930.6442	0.1425055288418661	55	diastole	20	B	500.0	streaming
930.9226	0.1425055288418661	55	diastole	21	A	3301.531841080714	streaming
931.5351	0.1425055288418661	55	diastole	22	A	3301.531841080714	streaming
931.8142	0.1425055288418661	55	diastole	23	B	500.0	streaming
932.0926	0.1425055288418661	55	diastole	24	A	3301.531841080714	streaming
936.1791	0.1406245574762579	56	diastole	1	A	1987.9452401467304	coherent
936.4607	0.1406245574762579	56	diastole	2	B	500.0	coherent
936.7416	0.1406245574762579	56	diastole	3	A	1987.9452401467304	coherent
937.2991	0.1406245574762579	56	diastole	4	A	1987.9452401467304	coherent
937.5806	0.1406245574762579	56	diastole	5	B	500.0	coherent
937.8616	0.1406245574762579	56	diastole	6	A	1987.9452401467304	coherent
938.4191	0.1406245574762579	56	diastole	7	A	1987.9452401467304	coherent
938.7006	0.1406245574762579	56	diastole	8	B	500.0	coherent
938.9816	0.1406245574762579	56	diastole	9	A	1987.9452401467304	coherent
939.539	0.1406245574762579	56	diastole	10	A	1987.9452401467304	coherent
939.8206	0.1406245574762579	56	diastole	11	B	500.0	coherent
940.1015	0.1406245574762579	56	diastole	12	A	1987.9452401467304	coherent
940.6761	0.1406245574762579	56	diastole	13	A	1987.9452401467304	coherent
940.9589	0.1406245574762579	56	diastole	14	B	500.0	coherent
941.2411	0.1406245574762579	56	diastole	15	A	1987.9452401467304	coherent
