onset	duration	trial_num	trial_type	tone_num	tone_type	frequency	response
51.061500000000024	0.1137448899680748	1	diastole	1	B	500	systole
52.081699999999955	0.1137448899680748	1	diastole	2	B	500	systole
53.05169999999998	0.1137448899680748	1	diastole	3	B	500	systole
54.018299999999954	0.1137448899680748	1	diastole	4	B	500	systole
54.96849999999995	0.1137448899680748	1	diastole	5	B	500	systole
55.87839999999983	0.1137448899680748	1	diastole	6	B	500	systole
56.788299999999936	0.1137448899680748	1	diastole	7	B	500	systole
57.678300000000036	0.1137448899680748	1	diastole	8	B	500	systole
58.56829999999991	0.1137448899680748	1	diastole	9	B	500	systole
59.33979999999997	0.1137448899680748	1	diastole	10	B	500	systole
66.26299999999992	0.1099953675293363	2	diastole	1	B	500	diastole
67.07269999999994	0.1099953675293363	2	diastole	2	B	500	diastole
67.79949999999985	0.1099953675293363	2	diastole	3	B	500	diastole
68.58299999999986	0.1099953675293363	2	diastole	4	B	500	diastole
69.54119999999989	0.1099953675293363	2	diastole	5	B	500	diastole
70.49609999999984	0.1099953675293363	2	diastole	6	B	500	diastole
71.3279	0.1099953675293363	2	diastole	7	B	500	diastole
72.08330000000001	0.1099953675293363	2	diastole	8	B	500	diastole
72.9257	0.1099953675293363	2	diastole	9	B	500	diastole
73.82590000000005	0.1099953675293363	2	diastole	10	B	500	diastole
74.78070000000002	0.1099953675293363	2	diastole	11	B	500	diastole
78.32209999999986	0.1073612747131846	3	systole	1	B	500	systole
79.08219999999983	0.1073612747131846	3	systole	2	B	500	systole
79.9728	0.1073612747131846	3	systole	3	B	500	systole
80.89570000000003	0.1073612747131846	3	systole	4	B	500	systole
81.76569999999992	0.1073612747131846	3	systole	5	B	500	systole
82.46589999999992	0.1073612747131846	3	systole	6	B	500	systole
83.27980000000002	0.1073612747131846	3	systole	7	B	500	systole
84.09960000000001	0.1073612747131846	3	systole	8	B	500	systole
84.97720000000004	0.1073612747131846	3	systole	9	B	500	systole
85.89390000000003	0.1073612747131846	3	systole	10	B	500	systole
86.76389999999992	0.1073612747131846	3	systole	11	B	500	systole
90.04899999999998	0.1031189641216769	4	systole	1	B	500	systole
90.9423999999999	0.1031189641216769	4	systole	2	B	500	systole
91.8125	0.1031189641216769	4	systole	3	B	500	systole
92.59669999999983	0.1031189641216769	4	systole	4	B	500	systole
93.29029999999989	0.1031189641216769	4	systole	5	B	500	systole
94.06089999999995	0.1031189641216769	4	systole	6	B	500	systole
94.94579999999996	0.1031189641216769	4	systole	7	B	500	systole
95.79579999999987	0.1031189641216769	4	systole	8	B	500	systole
96.55579999999986	0.1031189641216769	4	systole	9	B	500	systole
97.23649999999998	0.1031189641216769	4	systole	10	B	500	systole
97.96379999999999	0.1031189641216769	4	systole	11	B	500	systole
98.70389999999998	0.1031189641216769	4	systole	12	B	500	systole
106.84400000000005	0.1018947238917462	5	systole	1	B	500	diastole
107.61410000000001	0.1018947238917462	5	systole	2	B	500	diastole
108.31240000000003	0.1018947238917462	5	systole	3	B	500	diastole
109.02080000000001	0.1018947238917462	5	systole	4	B	500	diastole
109.74080000000004	0.1018947238917462	5	systole	5	B	500	diastole
110.57479999999987	0.1018947238917462	5	systole	6	B	500	diastole
111.41470000000004	0.1018947238917462	5	systole	7	B	500	diastole
112.24059999999986	0.1018947238917462	5	systole	8	B	500	diastole
113.06060000000002	0.1018947238917462	5	systole	9	B	500	diastole
113.80439999999999	0.1018947238917462	5	systole	10	B	500	diastole
114.55409999999983	0.1018947238917462	5	systole	11	B	500	diastole
115.28859999999986	0.1018947238917462	5	systole	12	B	500	diastole
116.18640000000005	0.1018947238917462	5	systole	13	B	500	diastole
138.26779999999985	0.1043569390894845	6	diastole	1	B	500	diastole
138.9876999999999	0.1043569390894845	6	diastole	2	B	500	diastole
139.6824999999999	0.1043569390894845	6	diastole	3	B	500	diastole
140.5326	0.1043569390894845	6	diastole	4	B	500	diastole
141.44920000000002	0.1043569390894845	6	diastole	5	B	500	diastole
142.37289999999985	0.1043569390894845	6	diastole	6	B	500	diastole
143.24159999999983	0.1043569390894845	6	diastole	7	B	500	diastole
144.04279999999994	0.1043569390894845	6	diastole	8	B	500	diastole
144.85289999999986	0.1043569390894845	6	diastole	9	B	500	diastole
145.58849999999984	0.1043569390894845	6	diastole	10	B	500	diastole
146.3487	0.1043569390894845	6	diastole	11	B	500	diastole
164.74810000000002	0.107528542401269	7	diastole	1	B	500	systole
165.47979999999984	0.107528542401269	7	diastole	2	B	500	systole
166.1477	0.107528542401269	7	diastole	3	B	500	systole
166.89139999999998	0.107528542401269	7	diastole	4	B	500	systole
167.78129999999987	0.107528542401269	7	diastole	5	B	500	systole
168.7129	0.107528542401269	7	diastole	6	B	500	systole
169.4629	0.107528542401269	7	diastole	7	B	500	systole
170.26299999999992	0.107528542401269	7	diastole	8	B	500	systole
171.06299999999987	0.107528542401269	7	diastole	9	B	500	systole
171.913	0.107528542401269	7	diastole	10	B	500	systole
172.82500000000005	0.107528542401269	7	diastole	11	B	500	systole
173.69529999999986	0.107528542401269	7	diastole	12	B	500	systole
179.57489999999984	0.105637204949744	8	diastole	1	B	500	systole
180.33489999999983	0.105637204949744	8	diastole	2	B	500	systole
181.1295	0.105637204949744	8	diastole	3	B	500	systole
181.96889999999985	0.105637204949744	8	diastole	4	B	500	systole
182.69889999999987	0.105637204949744	8	diastole	5	B	500	systole
183.4387999999999	0.105637204949744	8	diastole	6	B	500	systole
184.12109999999984	0.105637204949744	8	diastole	7	B	500	systole
184.98109999999997	0.105637204949744	8	diastole	8	B	500	systole
185.8210999999999	0.105637204949744	8	diastole	9	B	500	systole
186.5809999999999	0.105637204949744	8	diastole	10	B	500	systole
187.30099999999993	0.105637204949744	8	diastole	11	B	500	systole
188.03779999999983	0.105637204949744	8	diastole	12	B	500	systole
188.9079999999999	0.105637204949744	8	diastole	13	B	500	systole
193.4864	0.0987600189982913	9	systole	1	B	500	systole
194.33539999999994	0.0987600189982913	9	systole	2	B	500	systole
195.1552999999999	0.0987600189982913	9	systole	3	B	500	systole
195.94529999999986	0.0987600189982913	9	systole	4	B	500	systole
196.73519999999985	0.0987600189982913	9	systole	5	B	500	systole
197.60519999999997	0.0987600189982913	9	systole	6	B	500	systole
198.45529999999985	0.0987600189982913	9	systole	7	B	500	systole
199.2268999999999	0.0987600189982913	9	systole	8	B	500	systole
200.01679999999988	0.0987600189982913	9	systole	9	B	500	systole
200.8668	0.0987600189982913	9	systole	10	B	500	systole
201.7068999999999	0.0987600189982913	9	systole	11	B	500	systole
202.54289999999992	0.0987600189982913	9	systole	12	B	500	systole
205.16449999999986	0.1037512749317102	10	diastole	1	B	500	diastole
205.95809999999983	0.1037512749317102	10	diastole	2	B	500	diastole
206.76819999999998	0.1037512749317102	10	diastole	3	B	500	diastole
207.5782999999999	0.1037512749317102	10	diastole	4	B	500	diastole
208.42830000000004	0.1037512749317102	10	diastole	5	B	500	diastole
209.27819999999997	0.1037512749317102	10	diastole	6	B	500	diastole
210.0734	0.1037512749317102	10	diastole	7	B	500	diastole
210.84519999999998	0.1037512749317102	10	diastole	8	B	500	diastole
211.63609999999994	0.1037512749317102	10	diastole	9	B	500	diastole
212.4357	0.1037512749317102	10	diastole	10	B	500	diastole
213.32590000000005	0.1037512749317102	10	diastole	11	B	500	diastole
214.2159999999999	0.1037512749317102	10	diastole	12	B	500	diastole
216.1178	0.0999785164021886	11	systole	1	B	500	systole
216.84759999999983	0.0999785164021886	11	systole	2	B	500	systole
217.57749999999987	0.0999785164021886	11	systole	3	B	500	systole
218.33449999999993	0.0999785164021886	11	systole	4	B	500	systole
219.11459999999988	0.0999785164021886	11	systole	5	B	500	systole
220.01469999999995	0.0999785164021886	11	systole	6	B	500	systole
220.82629999999995	0.0999785164021886	11	systole	7	B	500	systole
221.57639999999992	0.0999785164021886	11	systole	8	B	500	systole
222.3762999999999	0.0999785164021886	11	systole	9	B	500	systole
223.17619999999988	0.0999785164021886	11	systole	10	B	500	systole
223.99620000000004	0.0999785164021886	11	systole	11	B	500	systole
224.80790000000002	0.0999785164021886	11	systole	12	B	500	systole
225.5679	0.0999785164021886	11	systole	13	B	500	systole
228.87639999999988	0.0974956343998201	12	diastole	1	B	500	diastole
229.58629999999994	0.0974956343998201	12	diastole	2	B	500	diastole
230.23799999999983	0.0974956343998201	12	diastole	3	B	500	diastole
230.94809999999984	0.0974956343998201	12	diastole	4	B	500	diastole
231.65809999999988	0.0974956343998201	12	diastole	5	B	500	diastole
232.3681999999999	0.0974956343998201	12	diastole	6	B	500	diastole
233.09169999999995	0.0974956343998201	12	diastole	7	B	500	diastole
233.83179999999993	0.0974956343998201	12	diastole	8	B	500	diastole
234.69010000000003	0.0974956343998201	12	diastole	9	B	500	diastole
235.54829999999993	0.0974956343998201	12	diastole	10	B	500	diastole
236.35649999999987	0.0974956343998201	12	diastole	11	B	500	diastole
237.10649999999987	0.0974956343998201	12	diastole	12	B	500	diastole
237.85649999999987	0.0974956343998201	12	diastole	13	B	500	diastole
241.3379	0.0924947747844271	13	systole	1	B	500	systole
242.07219999999984	0.0924947747844271	13	systole	2	B	500	systole
242.76070000000004	0.0924947747844271	13	systole	3	B	500	systole
243.46079999999984	0.0924947747844271	13	systole	4	B	500	systole
244.2122999999999	0.0924947747844271	13	systole	5	B	500	systole
244.99810000000002	0.0924947747844271	13	systole	6	B	500	systole
245.77549999999997	0.0924947747844271	13	systole	7	B	500	systole
246.5257999999999	0.0924947747844271	13	systole	8	B	500	systole
247.27599999999984	0.0924947747844271	13	systole	9	B	500	systole
248.02620000000002	0.0924947747844271	13	systole	10	B	500	systole
248.82619999999997	0.0924947747844271	13	systole	11	B	500	systole
249.56349999999998	0.0924947747844271	13	systole	12	B	500	systole
250.2835	0.0924947747844271	13	systole	13	B	500	systole
253.18219999999997	0.0918906739680096	14	systole	1	B	500	diastole
253.98219999999992	0.0918906739680096	14	systole	2	B	500	diastole
254.69139999999993	0.0918906739680096	14	systole	3	B	500	diastole
255.44139999999993	0.0918906739680096	14	systole	4	B	500	diastole
256.24149999999986	0.0918906739680096	14	systole	5	B	500	diastole
257.13909999999987	0.0918906739680096	14	systole	6	B	500	diastole
258.0191	0.0918906739680096	14	systole	7	B	500	diastole
258.9088999999999	0.0918906739680096	14	systole	8	B	500	diastole
259.73810000000003	0.0918906739680096	14	systole	9	B	500	diastole
260.5697	0.0918906739680096	14	systole	10	B	500	diastole
261.38559999999984	0.0918906739680096	14	systole	11	B	500	diastole
262.1957	0.0918906739680096	14	systole	12	B	500	diastole
265.1860999999999	0.1006383118219673	15	diastole	1	B	500	diastole
265.78319999999985	0.1006383118219673	15	diastole	2	B	500	diastole
266.4637	0.1006383118219673	15	diastole	3	B	500	diastole
267.05330000000004	0.1006383118219673	15	diastole	4	B	500	diastole
267.6932999999999	0.1006383118219673	15	diastole	5	B	500	diastole
268.3372999999999	0.1006383118219673	15	diastole	6	B	500	diastole
268.9973	0.1006383118219673	15	diastole	7	B	500	diastole
269.65729999999985	0.1006383118219673	15	diastole	8	B	500	diastole
270.5772999999999	0.1006383118219673	15	diastole	9	B	500	diastole
271.3772999999999	0.1006383118219673	15	diastole	10	B	500	diastole
272.2174	0.1006383118219673	15	diastole	11	B	500	diastole
272.9849999999999	0.1006383118219673	15	diastole	12	B	500	diastole
273.9013	0.1006383118219673	15	diastole	13	B	500	diastole
274.7515999999998	0.1006383118219673	15	diastole	14	B	500	diastole
280.4378999999999	0.1012298084679059	16	systole	1	B	500	systole
281.1778999999999	0.1012298084679059	16	systole	2	B	500	systole
281.9361999999999	0.1012298084679059	16	systole	3	B	500	systole
282.7060999999999	0.1012298084679059	16	systole	4	B	500	systole
283.5392999999999	0.1012298084679059	16	systole	5	B	500	systole
284.25609999999983	0.1012298084679059	16	systole	6	B	500	systole
284.99620000000004	0.1012298084679059	16	systole	7	B	500	systole
285.68730000000005	0.1012298084679059	16	systole	8	B	500	systole
286.4673	0.1012298084679059	16	systole	9	B	500	systole
287.2473	0.1012298084679059	16	systole	10	B	500	systole
288.05729999999994	0.1012298084679059	16	systole	11	B	500	systole
288.86739999999986	0.1012298084679059	16	systole	12	B	500	systole
289.62480000000005	0.1012298084679059	16	systole	13	B	500	systole
292.69730000000004	0.0968815750093199	17	systole	1	B	500	systole
293.4973	0.0968815750093199	17	systole	2	B	500	systole
294.29729999999995	0.0968815750093199	17	systole	3	B	500	systole
295.0873999999999	0.0968815750093199	17	systole	4	B	500	systole
295.7973999999999	0.0968815750093199	17	systole	5	B	500	systole
296.4973	0.0968815750093199	17	systole	6	B	500	systole
297.21990000000005	0.0968815750093199	17	systole	7	B	500	systole
297.9601	0.0968815750093199	17	systole	8	B	500	systole
298.8399999999999	0.0968815750093199	17	systole	9	B	500	systole
299.6399999999999	0.0968815750093199	17	systole	10	B	500	systole
300.38419999999996	0.0968815750093199	17	systole	11	B	500	systole
301.1024	0.0968815750093199	17	systole	12	B	500	systole
304.0520999999999	0.0911626116139814	18	diastole	1	B	500	diastole
304.69619999999986	0.0911626116139814	18	diastole	2	B	500	diastole
305.346	0.0911626116139814	18	diastole	3	B	500	diastole
306.03139999999985	0.0911626116139814	18	diastole	4	B	500	diastole
306.90139999999997	0.0911626116139814	18	diastole	5	B	500	diastole
307.6099999999999	0.0911626116139814	18	diastole	6	B	500	diastole
308.3518999999999	0.0911626116139814	18	diastole	7	B	500	diastole
309.09389999999985	0.0911626116139814	18	diastole	8	B	500	diastole
309.9167	0.0911626116139814	18	diastole	9	B	500	diastole
310.70679999999993	0.0911626116139814	18	diastole	10	B	500	diastole
311.4068	0.0911626116139814	18	diastole	11	B	500	diastole
312.13509999999997	0.0911626116139814	18	diastole	12	B	500	diastole
312.9333999999999	0.0911626116139814	18	diastole	13	B	500	diastole
315.9016999999999	0.0913992126006633	19	diastole	1	B	500	diastole
316.74170000000004	0.0913992126006633	19	diastole	2	B	500	diastole
317.6216999999999	0.0913992126006633	19	diastole	3	B	500	diastole
318.53139999999985	0.0913992126006633	19	diastole	4	B	500	diastole
319.38469999999984	0.0913992126006633	19	diastole	5	B	500	diastole
320.2047	0.0913992126006633	19	diastole	6	B	500	diastole
320.9547	0.0913992126006633	19	diastole	7	B	500	diastole
321.6498999999999	0.0913992126006633	19	diastole	8	B	500	diastole
322.3563999999999	0.0913992126006633	19	diastole	9	B	500	diastole
323.20640000000003	0.0913992126006633	19	diastole	10	B	500	diastole
324.0845999999999	0.0913992126006633	19	diastole	11	B	500	diastole
324.90459999999985	0.0913992126006633	19	diastole	12	B	500	diastole
328.2848999999999	0.0975105093093589	20	systole	1	B	500	systole
329.0247999999999	0.0975105093093589	20	systole	2	B	500	systole
329.87469999999985	0.0975105093093589	20	systole	3	B	500	systole
330.7347	0.0975105093093589	20	systole	4	B	500	systole
331.60220000000004	0.0975105093093589	20	systole	5	B	500	systole
332.4522999999999	0.0975105093093589	20	systole	6	B	500	systole
333.2222999999999	0.0975105093093589	20	systole	7	B	500	systole
334.0166999999999	0.0975105093093589	20	systole	8	B	500	systole
334.90689999999995	0.0975105093093589	20	systole	9	B	500	systole
335.8174999999999	0.0975105093093589	20	systole	10	B	500	systole
336.59719999999993	0.0975105093093589	20	systole	11	B	500	systole
337.44449999999983	0.0975105093093589	20	systole	12	B	500	systole
343.4732999999999	0.1043966938159428	21	diastole	1	B	500	diastole
344.1432	0.1043966938159428	21	diastole	2	B	500	diastole
344.85490000000004	0.1043966938159428	21	diastole	3	B	500	diastole
345.52679999999987	0.1043966938159428	21	diastole	4	B	500	diastole
346.1428999999998	0.1043966938159428	21	diastole	5	B	500	diastole
346.7925	0.1043966938159428	21	diastole	6	B	500	diastole
347.41959999999995	0.1043966938159428	21	diastole	7	B	500	diastole
348.21619999999984	0.1043966938159428	21	diastole	8	B	500	diastole
349.0462	0.1043966938159428	21	diastole	9	B	500	diastole
349.8862999999999	0.1043966938159428	21	diastole	10	B	500	diastole
350.70589999999993	0.1043966938159428	21	diastole	11	B	500	diastole
351.4260999999999	0.1043966938159428	21	diastole	12	B	500	diastole
356.01279999999997	0.0949697125470265	22	diastole	1	B	500	systole
356.8127999999999	0.0949697125470265	22	diastole	2	B	500	systole
357.6396	0.0949697125470265	22	diastole	3	B	500	systole
358.46759999999995	0.0949697125470265	22	diastole	4	B	500	systole
359.2582	0.0949697125470265	22	diastole	5	B	500	systole
359.9795999999999	0.0949697125470265	22	diastole	6	B	500	systole
360.70159999999987	0.0949697125470265	22	diastole	7	B	500	systole
361.4314999999999	0.0949697125470265	22	diastole	8	B	500	systole
362.2981	0.0949697125470265	22	diastole	9	B	500	systole
363.19190000000003	0.0949697125470265	22	diastole	10	B	500	systole
364.05060000000003	0.0949697125470265	22	diastole	11	B	500	systole
364.7721999999999	0.0949697125470265	22	diastole	12	B	500	systole
368.6713	0.0987497152527794	23	diastole	1	B	500	diastole
369.3814	0.0987497152527794	23	diastole	2	B	500	diastole
370.02829999999994	0.0987497152527794	23	diastole	3	B	500	diastole
370.70820000000003	0.0987497152527794	23	diastole	4	B	500	diastole
371.3799999999999	0.0987497152527794	23	diastole	5	B	500	diastole
372.0846999999999	0.0987497152527794	23	diastole	6	B	500	diastole
372.87649999999985	0.0987497152527794	23	diastole	7	B	500	diastole
373.5864999999999	0.0987497152527794	23	diastole	8	B	500	diastole
374.2346	0.0987497152527794	23	diastole	9	B	500	diastole
374.99789999999985	0.0987497152527794	23	diastole	10	B	500	diastole
375.8879999999999	0.0987497152527794	23	diastole	11	B	500	diastole
376.7545	0.0987497152527794	23	diastole	12	B	500	diastole
377.6044999999999	0.0987497152527794	23	diastole	13	B	500	diastole
382.3580999999999	0.0950023033656179	24	systole	1	B	500	diastole
383.06809999999996	0.0950023033656179	24	systole	2	B	500	diastole
383.82809999999995	0.0950023033656179	24	systole	3	B	500	diastole
384.6352999999999	0.0950023033656179	24	systole	4	B	500	diastole
385.42509999999993	0.0950023033656179	24	systole	5	B	500	diastole
386.13329999999996	0.0950023033656179	24	systole	6	B	500	diastole
386.8457999999998	0.0950023033656179	24	systole	7	B	500	diastole
387.7033999999999	0.0950023033656179	24	systole	8	B	500	diastole
388.58680000000004	0.0950023033656179	24	systole	9	B	500	diastole
389.44679999999994	0.0950023033656179	24	systole	10	B	500	diastole
390.30189999999993	0.0950023033656179	24	systole	11	B	500	diastole
391.1217999999999	0.0950023033656179	24	systole	12	B	500	diastole
391.92139999999995	0.0950023033656179	24	systole	13	B	500	diastole
412.1013999999998	0.0950031641987152	25	systole	1	B	500	systole
412.8113999999998	0.0950031641987152	25	systole	2	B	500	systole
413.5013000000001	0.0950031641987152	25	systole	3	B	500	systole
414.1912999999997	0.0950031641987152	25	systole	4	B	500	systole
414.874	0.0950031641987152	25	systole	5	B	500	systole
415.76379999999995	0.0950031641987152	25	systole	6	B	500	systole
416.5950999999998	0.0950031641987152	25	systole	7	B	500	systole
417.3853999999999	0.0950031641987152	25	systole	8	B	500	systole
418.17579999999975	0.0950031641987152	25	systole	9	B	500	systole
418.89419999999996	0.0950031641987152	25	systole	10	B	500	systole
419.7083	0.0950031641987152	25	systole	11	B	500	systole
420.58180000000016	0.0950031641987152	25	systole	12	B	500	systole
421.4318999999998	0.0950031641987152	25	systole	13	B	500	systole
422.2216999999998	0.0950031641987152	25	systole	14	B	500	systole
425.79960000000005	0.0993552400614135	26	diastole	1	B	500	diastole
426.4999	0.0993552400614135	26	diastole	2	B	500	diastole
427.36649999999986	0.0993552400614135	26	diastole	3	B	500	diastole
428.26639999999975	0.0993552400614135	26	diastole	4	B	500	diastole
429.1564999999998	0.0993552400614135	26	diastole	5	B	500	diastole
430.10090000000014	0.0993552400614135	26	diastole	6	B	500	diastole
431.00469999999973	0.0993552400614135	26	diastole	7	B	500	diastole
431.8522999999998	0.0993552400614135	26	diastole	8	B	500	diastole
432.7499	0.0993552400614135	26	diastole	9	B	500	diastole
433.5199	0.0993552400614135	26	diastole	10	B	500	diastole
434.2899	0.0993552400614135	26	diastole	11	B	500	diastole
437.9365	0.1036742811556905	27	diastole	1	B	500	diastole
438.58090000000016	0.1036742811556905	27	diastole	2	B	500	diastole
439.29099999999994	0.1036742811556905	27	diastole	3	B	500	diastole
440.001	0.1036742811556905	27	diastole	4	B	500	diastole
440.67989999999986	0.1036742811556905	27	diastole	5	B	500	diastole
441.50940000000014	0.1036742811556905	27	diastole	6	B	500	diastole
442.33889999999997	0.1036742811556905	27	diastole	7	B	500	diastole
443.1991999999998	0.1036742811556905	27	diastole	8	B	500	diastole
444.0595999999998	0.1036742811556905	27	diastole	9	B	500	diastole
444.8576999999998	0.1036742811556905	27	diastole	10	B	500	diastole
445.55280000000016	0.1036742811556905	27	diastole	11	B	500	diastole
446.22929999999974	0.1036742811556905	27	diastole	12	B	500	diastole
449.2663	0.0968724052654579	28	diastole	1	B	500	systole
449.97630000000004	0.0968724052654579	28	diastole	2	B	500	systole
450.68119999999976	0.0968724052654579	28	diastole	3	B	500	systole
451.4111999999998	0.0968724052654579	28	diastole	4	B	500	systole
452.2265	0.0968724052654579	28	diastole	5	B	500	systole
453.01649999999995	0.0968724052654579	28	diastole	6	B	500	systole
453.8765000000001	0.0968724052654579	28	diastole	7	B	500	systole
454.5966000000001	0.0968724052654579	28	diastole	8	B	500	systole
455.3167000000001	0.0968724052654579	28	diastole	9	B	500	systole
456.05169999999976	0.0968724052654579	28	diastole	10	B	500	systole
456.7931000000001	0.0968724052654579	28	diastole	11	B	500	systole
457.49819999999977	0.0968724052654579	28	diastole	12	B	500	systole
458.17820000000006	0.0968724052654579	28	diastole	13	B	500	systole
461.3198	0.0881291869445703	29	diastole	1	B	500	diastole
462.1998000000001	0.0881291869445703	29	diastole	2	B	500	diastole
463.0579	0.0881291869445703	29	diastole	3	B	500	diastole
463.8576999999998	0.0881291869445703	29	diastole	4	B	500	diastole
464.7209999999998	0.0881291869445703	29	diastole	5	B	500	diastole
465.55629999999996	0.0881291869445703	29	diastole	6	B	500	diastole
466.3461999999997	0.0881291869445703	29	diastole	7	B	500	diastole
467.13609999999994	0.0881291869445703	29	diastole	8	B	500	diastole
467.88609999999994	0.0881291869445703	29	diastole	9	B	500	diastole
468.63599999999974	0.0881291869445703	29	diastole	10	B	500	diastole
469.38599999999974	0.0881291869445703	29	diastole	11	B	500	diastole
473.47479999999973	0.091882906272076	30	diastole	1	B	500	systole
474.20479999999975	0.091882906272076	30	diastole	2	B	500	systole
475.1631	0.091882906272076	30	diastole	3	B	500	systole
476.1130999999998	0.091882906272076	30	diastole	4	B	500	systole
477.0615	0.091882906272076	30	diastole	5	B	500	systole
477.9831999999999	0.091882906272076	30	diastole	6	B	500	systole
478.7830999999999	0.091882906272076	30	diastole	7	B	500	systole
479.6197999999997	0.091882906272076	30	diastole	8	B	500	systole
480.4696999999999	0.091882906272076	30	diastole	9	B	500	systole
481.3196999999998	0.091882906272076	30	diastole	10	B	500	systole
482.12969999999973	0.091882906272076	30	diastole	11	B	500	systole
485.33130000000006	0.0981178062502294	31	diastole	1	B	500	diastole
485.9547	0.0981178062502294	31	diastole	2	B	500	diastole
486.6447999999998	0.0981178062502294	31	diastole	3	B	500	diastole
487.55489999999986	0.0981178062502294	31	diastole	4	B	500	diastole
488.43489999999997	0.0981178062502294	31	diastole	5	B	500	diastole
489.2715999999998	0.0981178062502294	31	diastole	6	B	500	diastole
490.16319999999973	0.0981178062502294	31	diastole	7	B	500	diastole
491.1447999999998	0.0981178062502294	31	diastole	8	B	500	diastole
492.1031999999998	0.0981178062502294	31	diastole	9	B	500	diastole
493.0031999999999	0.0981178062502294	31	diastole	10	B	500	diastole
493.9331999999997	0.0981178062502294	31	diastole	11	B	500	diastole
497.9711999999997	0.1026099325390532	32	diastole	1	B	500	diastole
498.8012000000001	0.1026099325390532	32	diastole	2	B	500	diastole
499.5510999999999	0.1026099325390532	32	diastole	3	B	500	diastole
500.24459999999976	0.1026099325390532	32	diastole	4	B	500	diastole
500.92679999999996	0.1026099325390532	32	diastole	5	B	500	diastole
501.58479999999986	0.1026099325390532	32	diastole	6	B	500	diastole
502.2731000000001	0.1026099325390532	32	diastole	7	B	500	diastole
502.93970000000013	0.1026099325390532	32	diastole	8	B	500	diastole
503.5768999999998	0.1026099325390532	32	diastole	9	B	500	diastole
504.21019999999976	0.1026099325390532	32	diastole	10	B	500	diastole
504.86069999999995	0.1026099325390532	32	diastole	11	B	500	diastole
505.5314999999998	0.1026099325390532	32	diastole	12	B	500	diastole
506.38149999999973	0.1026099325390532	32	diastole	13	B	500	diastole
509.6962000000001	0.0905761322355829	33	diastole	1	B	500	systole
510.5462	0.0905761322355829	33	diastole	2	B	500	systole
511.3983999999998	0.0905761322355829	33	diastole	3	B	500	systole
512.1780999999999	0.0905761322355829	33	diastole	4	B	500	systole
512.9577999999999	0.0905761322355829	33	diastole	5	B	500	systole
513.6980999999998	0.0905761322355829	33	diastole	6	B	500	systole
514.5645999999999	0.0905761322355829	33	diastole	7	B	500	systole
515.4147	0.0905761322355829	33	diastole	8	B	500	systole
516.2697999999998	0.0905761322355829	33	diastole	9	B	500	systole
517.0997	0.0905761322355829	33	diastole	10	B	500	systole
517.9296000000002	0.0905761322355829	33	diastole	11	B	500	systole
523.0595000000001	0.1025063937413506	34	systole	1	B	500	systole
523.8691999999999	0.1025063937413506	34	systole	2	B	500	systole
524.7095000000002	0.1025063937413506	34	systole	3	B	500	systole
525.4217999999998	0.1025063937413506	34	systole	4	B	500	systole
526.1485	0.1025063937413506	34	systole	5	B	500	systole
526.8985	0.1025063937413506	34	systole	6	B	500	systole
527.6485	0.1025063937413506	34	systole	7	B	500	systole
528.4671000000001	0.1025063937413506	34	systole	8	B	500	systole
529.2113000000002	0.1025063937413506	34	systole	9	B	500	systole
529.9113	0.1025063937413506	34	systole	10	B	500	systole
530.6296	0.1025063937413506	34	systole	11	B	500	systole
531.3994999999998	0.1025063937413506	34	systole	12	B	500	systole
532.1795	0.1025063937413506	34	systole	13	B	500	systole
532.8996	0.1025063937413506	34	systole	14	B	500	systole
536.0049000000001	0.0900078437407501	35	diastole	1	B	500	systole
536.7447999999997	0.0900078437407501	35	diastole	2	B	500	systole
537.4347	0.0900078437407501	35	diastole	3	B	500	systole
538.1049	0.0900078437407501	35	diastole	4	B	500	systole
538.7596999999998	0.0900078437407501	35	diastole	5	B	500	systole
539.4462000000001	0.0900078437407501	35	diastole	6	B	500	systole
540.1479999999999	0.0900078437407501	35	diastole	7	B	500	systole
540.9595999999999	0.0900078437407501	35	diastole	8	B	500	systole
541.7562999999998	0.0900078437407501	35	diastole	9	B	500	systole
542.5746000000001	0.0900078437407501	35	diastole	10	B	500	systole
543.4842999999998	0.0900078437407501	35	diastole	11	B	500	systole
544.3425999999997	0.0900078437407501	35	diastole	12	B	500	systole
550.0923999999998	0.0988424660172313	36	diastole	1	B	500	systole
550.8223999999998	0.0988424660172313	36	diastole	2	B	500	systole
551.4774999999997	0.0988424660172313	36	diastole	3	B	500	systole
552.1328999999998	0.0988424660172313	36	diastole	4	B	500	systole
553.0766000000001	0.0988424660172313	36	diastole	5	B	500	systole
554.0366000000001	0.0988424660172313	36	diastole	6	B	500	systole
554.8666000000001	0.0988424660172313	36	diastole	7	B	500	systole
555.7429	0.0988424660172313	36	diastole	8	B	500	systole
556.5582999999999	0.0988424660172313	36	diastole	9	B	500	systole
557.4748999999999	0.0988424660172313	36	diastole	10	B	500	systole
558.3682000000001	0.0988424660172313	36	diastole	11	B	500	systole
559.2281999999998	0.0988424660172313	36	diastole	12	B	500	systole
565.5181	0.1043718122527934	37	diastole	1	B	500	systole
566.2546999999997	0.1043718122527934	37	diastole	2	B	500	systole
567.0247000000002	0.1043718122527934	37	diastole	3	B	500	systole
567.6845999999998	0.1043718122527934	37	diastole	4	B	500	systole
568.5645999999999	0.1043718122527934	37	diastole	5	B	500	systole
569.4745	0.1043718122527934	37	diastole	6	B	500	systole
570.3562	0.1043718122527934	37	diastole	7	B	500	systole
571.1162999999999	0.1043718122527934	37	diastole	8	B	500	systole
571.8461999999997	0.1043718122527934	37	diastole	9	B	500	systole
572.6261999999999	0.1043718122527934	37	diastole	10	B	500	systole
573.4693	0.1043718122527934	37	diastole	11	B	500	systole
574.3794	0.1043718122527934	37	diastole	12	B	500	systole
578.9729999999997	0.0981274124933406	38	diastole	1	B	500	diastole
579.733	0.0981274124933406	38	diastole	2	B	500	diastole
580.4062000000001	0.0981274124933406	38	diastole	3	B	500	diastole
581.0961999999997	0.0981274124933406	38	diastole	4	B	500	diastole
581.8093000000001	0.0981274124933406	38	diastole	5	B	500	diastole
582.5613000000001	0.0981274124933406	38	diastole	6	B	500	diastole
583.3027	0.0981274124933406	38	diastole	7	B	500	diastole
584.0125999999998	0.0981274124933406	38	diastole	8	B	500	diastole
584.6577	0.0981274124933406	38	diastole	9	B	500	diastole
585.3045	0.0981274124933406	38	diastole	10	B	500	diastole
586.1744000000001	0.0981274124933406	38	diastole	11	B	500	diastole
586.9711	0.0981274124933406	38	diastole	12	B	500	diastole
587.7510999999997	0.0981274124933406	38	diastole	13	B	500	diastole
591.6706999999999	0.0906352251768112	39	systole	1	B	500	diastole
592.3806999999999	0.0906352251768112	39	systole	2	B	500	diastole
593.0246	0.0906352251768112	39	systole	3	B	500	diastole
593.6789000000001	0.0906352251768112	39	systole	4	B	500	diastole
594.3387999999998	0.0906352251768112	39	systole	5	B	500	diastole
595.0431999999998	0.0906352251768112	39	systole	6	B	500	diastole
595.9032999999997	0.0906352251768112	39	systole	7	B	500	diastole
596.6888000000001	0.0906352251768112	39	systole	8	B	500	diastole
597.4685999999999	0.0906352251768112	39	systole	9	B	500	diastole
598.2387000000001	0.0906352251768112	39	systole	10	B	500	diastole
599.1220000000001	0.0906352251768112	39	systole	11	B	500	diastole
599.9819999999997	0.0906352251768112	39	systole	12	B	500	diastole
600.8785999999998	0.0906352251768112	39	systole	13	B	500	diastole
605.0055999999997	0.1018886960227973	40	systole	1	B	500	systole
605.8153999999997	0.1018886960227973	40	systole	2	B	500	systole
606.517	0.1018886960227973	40	systole	3	B	500	systole
607.2185999999999	0.1018886960227973	40	systole	4	B	500	systole
607.9709999999998	0.1018886960227973	40	systole	5	B	500	systole
608.8126	0.1018886960227973	40	systole	6	B	500	systole
609.6541999999997	0.1018886960227973	40	systole	7	B	500	systole
610.5026999999998	0.1018886960227973	40	systole	8	B	500	systole
611.3511000000001	0.1018886960227973	40	systole	9	B	500	systole
612.1996000000001	0.1018886960227973	40	systole	10	B	500	systole
613.0247999999999	0.1018886960227973	40	systole	11	B	500	systole
613.825	0.1018886960227973	40	systole	12	B	500	systole
622.0496999999998	0.1018601396353915	41	diastole	1	B	500	systole
622.7848999999999	0.1018601396353915	41	diastole	2	B	500	systole
623.6697999999999	0.1018601396353915	41	diastole	3	B	500	systole
624.5298999999998	0.1018601396353915	41	diastole	4	B	500	systole
625.2331000000001	0.1018601396353915	41	diastole	5	B	500	systole
625.9147	0.1018601396353915	41	diastole	6	B	500	systole
626.7146999999998	0.1018601396353915	41	diastole	7	B	500	systole
627.6148999999998	0.1018601396353915	41	diastole	8	B	500	systole
628.4466999999997	0.1018601396353915	41	diastole	9	B	500	systole
629.2367000000002	0.1018601396353915	41	diastole	10	B	500	systole
629.9864999999998	0.1018601396353915	41	diastole	11	B	500	systole
630.8018	0.1018601396353915	41	diastole	12	B	500	systole
635.0361999999998	0.0962308267480693	42	diastole	1	B	500	diastole
635.7261999999998	0.0962308267480693	42	diastole	2	B	500	diastole
636.4028999999998	0.0962308267480693	42	diastole	3	B	500	diastole
637.1429	0.0962308267480693	42	diastole	4	B	500	diastole
637.8828999999998	0.0962308267480693	42	diastole	5	B	500	diastole
638.6314	0.0962308267480693	42	diastole	6	B	500	diastole
639.4214	0.0962308267480693	42	diastole	7	B	500	diastole
640.2598	0.0962308267480693	42	diastole	8	B	500	diastole
641.0833	0.0962308267480693	42	diastole	9	B	500	diastole
641.9215000000002	0.0962308267480693	42	diastole	10	B	500	diastole
642.7014000000001	0.0962308267480693	42	diastole	11	B	500	diastole
643.6119999999999	0.0962308267480693	42	diastole	12	B	500	diastole
652.2313999999999	0.1025000256486237	43	systole	1	B	500	systole
653.0912999999998	0.1025000256486237	43	systole	2	B	500	systole
653.9413999999999	0.1025000256486237	43	systole	3	B	500	systole
654.6913999999999	0.1025000256486237	43	systole	4	B	500	systole
655.4413999999999	0.1025000256486237	43	systole	5	B	500	systole
656.1913999999999	0.1025000256486237	43	systole	6	B	500	systole
656.9413999999999	0.1025000256486237	43	systole	7	B	500	systole
657.7614000000001	0.1025000256486237	43	systole	8	B	500	systole
658.5914999999998	0.1025000256486237	43	systole	9	B	500	systole
659.336	0.1025000256486237	43	systole	10	B	500	systole
660.1661999999999	0.1025000256486237	43	systole	11	B	500	systole
660.9961000000001	0.1025000256486237	43	systole	12	B	500	systole
664.8270999999997	0.0968749420717358	44	systole	1	B	500	diastole
665.5775000000001	0.0968749420717358	44	systole	2	B	500	diastole
666.3277999999998	0.0968749420717358	44	systole	3	B	500	diastole
666.9959999999999	0.0968749420717358	44	systole	4	B	500	diastole
667.6760000000002	0.0968749420717358	44	systole	5	B	500	diastole
668.4702	0.0968749420717358	44	systole	6	B	500	diastole
669.2699999999998	0.0968749420717358	44	systole	7	B	500	diastole
670.0698999999997	0.0968749420717358	44	systole	8	B	500	diastole
670.9114999999999	0.0968749420717358	44	systole	9	B	500	diastole
671.7416000000001	0.0968749420717358	44	systole	10	B	500	diastole
672.5330000000001	0.0968749420717358	44	systole	11	B	500	diastole
673.3965000000001	0.0968749420717358	44	systole	12	B	500	diastole
674.2900999999999	0.0968749420717358	44	systole	13	B	500	diastole
681.6886999999999	0.1062332707224413	45	systole	1	B	500	diastole
682.3886999999997	0.1062332707224413	45	systole	2	B	500	diastole
683.0680999999997	0.1062332707224413	45	systole	3	B	500	diastole
683.7589999999998	0.1062332707224413	45	systole	4	B	500	diastole
684.4756	0.1062332707224413	45	systole	5	B	500	diastole
685.1665	0.1062332707224413	45	systole	6	B	500	diastole
686.0264999999997	0.1062332707224413	45	systole	7	B	500	diastole
686.8864999999998	0.1062332707224413	45	systole	8	B	500	diastole
687.8064999999999	0.1062332707224413	45	systole	9	B	500	diastole
688.6364000000001	0.1062332707224413	45	systole	10	B	500	diastole
689.4664	0.1062332707224413	45	systole	11	B	500	diastole
690.2962999999997	0.1062332707224413	45	systole	12	B	500	diastole
693.7346	0.1068687124061398	46	systole	1	B	500	diastole
694.4439	0.1068687124061398	46	systole	2	B	500	diastole
695.1939	0.1068687124061398	46	systole	3	B	500	diastole
695.9439	0.1068687124061398	46	systole	4	B	500	diastole
696.6548999999998	0.1068687124061398	46	systole	5	B	500	diastole
697.3951	0.1068687124061398	46	systole	6	B	500	diastole
698.1031999999998	0.1068687124061398	46	systole	7	B	500	diastole
699.0114000000001	0.1068687124061398	46	systole	8	B	500	diastole
699.9313	0.1068687124061398	46	systole	9	B	500	diastole
700.7511999999999	0.1068687124061398	46	systole	10	B	500	diastole
701.5710999999999	0.1068687124061398	46	systole	11	B	500	diastole
702.3311000000001	0.1068687124061398	46	systole	12	B	500	diastole
703.1528000000001	0.1068687124061398	46	systole	13	B	500	diastole
713.4098000000001	0.1068783992668613	47	diastole	1	B	500	diastole
714.3596999999997	0.1068783992668613	47	diastole	2	B	500	diastole
715.1395999999997	0.1068783992668613	47	diastole	3	B	500	diastole
715.8814	0.1068783992668613	47	diastole	4	B	500	diastole
716.6314	0.1068783992668613	47	diastole	5	B	500	diastole
717.5813999999998	0.1068783992668613	47	diastole	6	B	500	diastole
718.4696000000001	0.1068783992668613	47	diastole	7	B	500	diastole
719.2695999999999	0.1068783992668613	47	diastole	8	B	500	diastole
720.0696	0.1068783992668613	47	diastole	9	B	500	diastole
720.8198	0.1068783992668613	47	diastole	10	B	500	diastole
721.6998000000001	0.1068783992668613	47	diastole	11	B	500	diastole
722.5797	0.1068783992668613	47	diastole	12	B	500	diastole
727.3682999999999	0.1000148369930684	48	diastole	1	B	500	diastole
728.1283000000001	0.1000148369930684	48	diastole	2	B	500	diastole
728.7897999999998	0.1000148369930684	48	diastole	3	B	500	diastole
729.4597999999999	0.1000148369930684	48	diastole	4	B	500	diastole
730.0899999999999	0.1000148369930684	48	diastole	5	B	500	diastole
730.7699999999998	0.1000148369930684	48	diastole	6	B	500	diastole
731.45	0.1000148369930684	48	diastole	7	B	500	diastole
732.3700999999999	0.1000148369930684	48	diastole	8	B	500	diastole
733.2499999999998	0.1000148369930684	48	diastole	9	B	500	diastole
734.1299999999999	0.1000148369930684	48	diastole	10	B	500	diastole
734.9199999999998	0.1000148369930684	48	diastole	11	B	500	diastole
735.7099999999998	0.1000148369930684	48	diastole	12	B	500	diastole
736.5249000000001	0.1000148369930684	48	diastole	13	B	500	diastole
739.8684999999998	0.1024960457580164	49	diastole	1	B	500	systole
740.6388	0.1024960457580164	49	diastole	2	B	500	systole
741.5788	0.1024960457580164	49	diastole	3	B	500	systole
742.4489000000001	0.1024960457580164	49	diastole	4	B	500	systole
743.3814	0.1024960457580164	49	diastole	5	B	500	systole
744.1915000000001	0.1024960457580164	49	diastole	6	B	500	systole
745.0013999999999	0.1024960457580164	49	diastole	7	B	500	systole
745.8113999999998	0.1024960457580164	49	diastole	8	B	500	systole
746.8048999999999	0.1024960457580164	49	diastole	9	B	500	systole
747.6249999999998	0.1024960457580164	49	diastole	10	B	500	systole
749.7706000000001	0.1087578436709009	50	systole	1	B	500	diastole
750.5707	0.1087578436709009	50	systole	2	B	500	diastole
751.3774000000001	0.1087578436709009	50	systole	3	B	500	diastole
752.2074999999998	0.1087578436709009	50	systole	4	B	500	diastole
752.9574	0.1087578436709009	50	systole	5	B	500	diastole
753.7873999999999	0.1087578436709009	50	systole	6	B	500	diastole
754.6274999999998	0.1087578436709009	50	systole	7	B	500	diastole
755.4675999999997	0.1087578436709009	50	systole	8	B	500	diastole
756.2133000000001	0.1087578436709009	50	systole	9	B	500	diastole
756.9532999999999	0.1087578436709009	50	systole	10	B	500	diastole
757.7032999999999	0.1087578436709009	50	systole	11	B	500	diastole
758.5534999999998	0.1087578436709009	50	systole	12	B	500	diastole
759.4037000000001	0.1087578436709009	50	systole	13	B	500	diastole
765.7846999999999	0.0900057136896066	51	systole	1	B	500	diastole
766.4885999999999	0.0900057136896066	51	systole	2	B	500	diastole
767.2185999999999	0.0900057136896066	51	systole	3	B	500	diastole
767.8972000000001	0.0900057136896066	51	systole	4	B	500	diastole
768.5656000000001	0.0900057136896066	51	systole	5	B	500	diastole
769.2454	0.0900057136896066	51	systole	6	B	500	diastole
769.9136999999998	0.0900057136896066	51	systole	7	B	500	diastole
770.6036999999999	0.0900057136896066	51	systole	8	B	500	diastole
771.2994999999999	0.0900057136896066	51	systole	9	B	500	diastole
771.9493999999997	0.0900057136896066	51	systole	10	B	500	diastole
772.6193999999998	0.0900057136896066	51	systole	11	B	500	diastole
773.2893999999999	0.0900057136896066	51	systole	12	B	500	diastole
773.9536999999998	0.0900057136896066	51	systole	13	B	500	diastole
774.7434999999998	0.0900057136896066	51	systole	14	B	500	diastole
778.7819999999999	0.08937321807025	52	systole	1	B	500	diastole
779.642	0.08937321807025	52	systole	2	B	500	diastole
780.4111999999998	0.08937321807025	52	systole	3	B	500	diastole
781.1015999999997	0.08937321807025	52	systole	4	B	500	diastole
781.7920000000001	0.08937321807025	52	systole	5	B	500	diastole
782.4727	0.08937321807025	52	systole	6	B	500	diastole
783.1827000000001	0.08937321807025	52	systole	7	B	500	diastole
784.0019999999997	0.08937321807025	52	systole	8	B	500	diastole
784.7920999999999	0.08937321807025	52	systole	9	B	500	diastole
785.5118	0.08937321807025	52	systole	10	B	500	diastole
786.2315000000001	0.08937321807025	52	systole	11	B	500	diastole
787.0916	0.08937321807025	52	systole	12	B	500	diastole
787.9516000000001	0.08937321807025	52	systole	13	B	500	diastole
799.2704999999999	0.1049980689422227	53	systole	1	B	500	systole
800.1105	0.1049980689422227	53	systole	2	B	500	systole
800.8704999999998	0.1049980689422227	53	systole	3	B	500	systole
801.6746999999998	0.1049980689422227	53	systole	4	B	500	systole
802.4848	0.1049980689422227	53	systole	5	B	500	systole
803.3547999999998	0.1049980689422227	53	systole	6	B	500	systole
804.1089	0.1049980689422227	53	systole	7	B	500	systole
804.8688999999997	0.1049980689422227	53	systole	8	B	500	systole
805.5788999999997	0.1049980689422227	53	systole	9	B	500	systole
806.4214	0.1049980689422227	53	systole	10	B	500	systole
807.2814000000001	0.1049980689422227	53	systole	11	B	500	systole
808.0955000000001	0.1049980689422227	53	systole	12	B	500	systole
810.6296999999997	0.0987495303270407	54	diastole	1	B	500	systole
811.3996	0.0987495303270407	54	diastole	2	B	500	systole
812.1897000000001	0.0987495303270407	54	diastole	3	B	500	systole
812.9748999999999	0.0987495303270407	54	diastole	4	B	500	systole
813.7049	0.0987495303270407	54	diastole	5	B	500	systole
814.4349	0.0987495303270407	54	diastole	6	B	500	systole
815.1000999999999	0.0987495303270407	54	diastole	7	B	500	systole
815.7555999999997	0.0987495303270407	54	diastole	8	B	500	systole
816.4502999999997	0.0987495303270407	54	diastole	9	B	500	systole
817.1703	0.0987495303270407	54	diastole	10	B	500	systole
817.8904	0.0987495303270407	54	diastole	11	B	500	systole
818.5471999999997	0.0987495303270407	54	diastole	12	B	500	systole
819.2304999999999	0.0987495303270407	54	diastole	13	B	500	systole
822.4473999999998	0.0893794944859109	55	systole	1	B	500	systole
823.2574999999999	0.0893794944859109	55	systole	2	B	500	systole
824.155	0.0893794944859109	55	systole	3	B	500	systole
825.0505	0.0893794944859109	55	systole	4	B	500	systole
825.9304	0.0893794944859109	55	systole	5	B	500	systole
826.7382999999998	0.0893794944859109	55	systole	6	B	500	systole
827.5287000000001	0.0893794944859109	55	systole	7	B	500	systole
828.2962999999997	0.0893794944859109	55	systole	8	B	500	systole
829.0863000000002	0.0893794944859109	55	systole	9	B	500	systole
829.9397000000001	0.0893794944859109	55	systole	10	B	500	systole
830.8097	0.0893794944859109	55	systole	11	B	500	systole
831.6796999999999	0.0893794944859109	55	systole	12	B	500	systole
835.0395999999998	0.0987720874836668	56	diastole	1	B	500	systole
835.8396	0.0987720874836668	56	diastole	2	B	500	systole
836.6960000000001	0.0987720874836668	56	diastole	3	B	500	systole
837.5359999999998	0.0987720874836668	56	diastole	4	B	500	systole
838.3461999999997	0.0987720874836668	56	diastole	5	B	500	systole
839.1195999999998	0.0987720874836668	56	diastole	6	B	500	systole
839.9096999999999	0.0987720874836668	56	diastole	7	B	500	systole
840.6996999999999	0.0987720874836668	56	diastole	8	B	500	systole
841.4296999999999	0.0987720874836668	56	diastole	9	B	500	systole
842.0964000000001	0.0987720874836668	56	diastole	10	B	500	systole
842.8862999999999	0.0987720874836668	56	diastole	11	B	500	systole
843.5480999999997	0.0987720874836668	56	diastole	12	B	500	systole
850.0606	0.0962493562838062	57	systole	1	B	500	systole
850.8407999999997	0.0962493562838062	57	systole	2	B	500	systole
851.6006999999997	0.0962493562838062	57	systole	3	B	500	systole
852.4107000000001	0.0962493562838062	57	systole	4	B	500	systole
853.2708	0.0962493562838062	57	systole	5	B	500	systole
854.1107	0.0962493562838062	57	systole	6	B	500	systole
854.8808999999999	0.0962493562838062	57	systole	7	B	500	systole
855.6510999999998	0.0962493562838062	57	systole	8	B	500	systole
856.4212999999997	0.0962493562838062	57	systole	9	B	500	systole
857.1613999999997	0.0962493562838062	57	systole	10	B	500	systole
857.9014999999997	0.0962493562838062	57	systole	11	B	500	systole
858.6755999999998	0.0962493562838062	57	systole	12	B	500	systole
860.9615999999999	0.0968839862034656	58	systole	1	B	500	diastole
861.7016000000001	0.0968839862034656	58	systole	2	B	500	diastole
862.4716000000001	0.0968839862034656	58	systole	3	B	500	diastole
863.2092	0.0968839862034656	58	systole	4	B	500	diastole
863.8938999999998	0.0968839862034656	58	systole	5	B	500	diastole
864.5867999999998	0.0968839862034656	58	systole	6	B	500	diastole
865.3772000000001	0.0968839862034656	58	systole	7	B	500	diastole
866.1568	0.0968839862034656	58	systole	8	B	500	diastole
866.9241	0.0968839862034656	58	systole	9	B	500	diastole
867.6845999999998	0.0968839862034656	58	systole	10	B	500	diastole
868.4451000000001	0.0968839862034656	58	systole	11	B	500	diastole
869.0977	0.0968839862034656	58	systole	12	B	500	diastole
869.7744	0.0968839862034656	58	systole	13	B	500	diastole
870.4741999999999	0.0968839862034656	58	systole	14	B	500	diastole
877.2497000000001	0.0943863423308357	59	systole	1	B	500	diastole
877.9296000000002	0.0943863423308357	59	systole	2	B	500	diastole
878.5746000000001	0.0943863423308357	59	systole	3	B	500	diastole
879.2729999999999	0.0943863423308357	59	systole	4	B	500	diastole
880.0662999999997	0.0943863423308357	59	systole	5	B	500	diastole
880.8365000000001	0.0943863423308357	59	systole	6	B	500	diastole
881.5132000000001	0.0943863423308357	59	systole	7	B	500	diastole
882.2133000000001	0.0943863423308357	59	systole	8	B	500	diastole
882.9433999999999	0.0943863423308357	59	systole	9	B	500	diastole
883.7634	0.0943863423308357	59	systole	10	B	500	diastole
884.595	0.0943863423308357	59	systole	11	B	500	diastole
885.4201	0.0943863423308357	59	systole	12	B	500	diastole
886.2099999999998	0.0943863423308357	59	systole	13	B	500	diastole
893.6580999999999	0.0962566776433959	60	diastole	1	B	500	systole
894.7081000000001	0.0962566776433959	60	diastole	2	B	500	systole
895.5797	0.0962566776433959	60	diastole	3	B	500	systole
896.345	0.0962566776433959	60	diastole	4	B	500	systole
897.0429999999999	0.0962566776433959	60	diastole	5	B	500	systole
897.9428999999998	0.0962566776433959	60	diastole	6	B	500	systole
898.8997000000002	0.0962566776433959	60	diastole	7	B	500	systole
899.9147999999998	0.0962566776433959	60	diastole	8	B	500	systole
900.8549	0.0962566776433959	60	diastole	9	B	500	systole
901.7949999999998	0.0962566776433959	60	diastole	10	B	500	systole
902.7115000000001	0.0962566776433959	60	diastole	11	B	500	systole
909.7218	0.1025390251306817	61	diastole	1	B	500	diastole
910.4048999999998	0.1025390251306817	61	diastole	2	B	500	diastole
911.1049	0.1025390251306817	61	diastole	3	B	500	diastole
911.7257999999999	0.1025390251306817	61	diastole	4	B	500	diastole
912.5157999999999	0.1025390251306817	61	diastole	5	B	500	diastole
913.3059000000001	0.1025390251306817	61	diastole	6	B	500	diastole
914.1546999999998	0.1025390251306817	61	diastole	7	B	500	diastole
914.9947999999997	0.1025390251306817	61	diastole	8	B	500	diastole
915.7346999999997	0.1025390251306817	61	diastole	9	B	500	diastole
916.4032	0.1025390251306817	61	diastole	10	B	500	diastole
917.3167000000001	0.1025390251306817	61	diastole	11	B	500	diastole
918.2468000000001	0.1025390251306817	61	diastole	12	B	500	diastole
919.0384999999999	0.1025390251306817	61	diastole	13	B	500	diastole
922.1512999999998	0.099365685658995	62	diastole	1	B	500	systole
922.963	0.099365685658995	62	diastole	2	B	500	systole
923.7746	0.099365685658995	62	diastole	3	B	500	systole
924.4846999999997	0.099365685658995	62	diastole	4	B	500	systole
925.2045999999998	0.099365685658995	62	diastole	5	B	500	systole
925.9244999999999	0.099365685658995	62	diastole	6	B	500	systole
926.6964	0.099365685658995	62	diastole	7	B	500	systole
927.4565	0.099365685658995	62	diastole	8	B	500	systole
928.1314999999997	0.099365685658995	62	diastole	9	B	500	systole
928.7762	0.099365685658995	62	diastole	10	B	500	systole
929.4293	0.099365685658995	62	diastole	11	B	500	systole
930.1492000000001	0.099365685658995	62	diastole	12	B	500	systole
931.0228	0.099365685658995	62	diastole	13	B	500	systole
931.8628999999999	0.099365685658995	62	diastole	14	B	500	systole
937.2299999999998	0.1068855028715916	63	diastole	1	B	500	diastole
937.9300000000001	0.1068855028715916	63	diastole	2	B	500	diastole
938.6299999999999	0.1068855028715916	63	diastole	3	B	500	diastole
939.2982	0.1068855028715916	63	diastole	4	B	500	diastole
940.3432	0.1068855028715916	63	diastole	5	B	500	diastole
941.3632	0.1068855028715916	63	diastole	6	B	500	diastole
942.3832999999997	0.1068855028715916	63	diastole	7	B	500	diastole
943.2164	0.1068855028715916	63	diastole	8	B	500	diastole
943.9813000000001	0.1068855028715916	63	diastole	9	B	500	diastole
944.6715999999999	0.1068855028715916	63	diastole	10	B	500	diastole
945.3495999999998	0.1068855028715916	63	diastole	11	B	500	diastole
949.5680999999997	0.0999976439634338	64	systole	1	B	500	systole
950.2580999999998	0.0999976439634338	64	systole	2	B	500	systole
950.9480000000001	0.0999976439634338	64	systole	3	B	500	systole
951.5964000000001	0.0999976439634338	64	systole	4	B	500	systole
952.2373	0.0999976439634338	64	systole	5	B	500	systole
952.8214999999998	0.0999976439634338	64	systole	6	B	500	systole
953.4815999999998	0.0999976439634338	64	systole	7	B	500	systole
954.1416000000002	0.0999976439634338	64	systole	8	B	500	systole
954.7684999999999	0.0999976439634338	64	systole	9	B	500	systole
955.6386	0.0999976439634338	64	systole	10	B	500	systole
956.5085999999999	0.0999976439634338	64	systole	11	B	500	systole
957.2385000000002	0.0999976439634338	64	systole	12	B	500	systole
957.9684999999997	0.0999976439634338	64	systole	13	B	500	systole
958.6744999999999	0.0999976439634338	64	systole	14	B	500	systole
962.4044000000001	0.0925031311926432	65	systole	1	B	500	systole
963.1218000000001	0.0925031311926432	65	systole	2	B	500	systole
963.8437999999999	0.0925031311926432	65	systole	3	B	500	systole
964.7438	0.0925031311926432	65	systole	4	B	500	systole
965.5572	0.0925031311926432	65	systole	5	B	500	systole
966.3210000000001	0.0925031311926432	65	systole	6	B	500	systole
967.0692999999999	0.0925031311926432	65	systole	7	B	500	systole
967.9547999999998	0.0925031311926432	65	systole	8	B	500	systole
968.8345000000002	0.0925031311926432	65	systole	9	B	500	systole
969.6948999999997	0.0925031311926432	65	systole	10	B	500	systole
970.5487	0.0925031311926432	65	systole	11	B	500	systole
971.3221000000001	0.0925031311926432	65	systole	12	B	500	systole
972.0820999999999	0.0925031311926432	65	systole	13	B	500	systole
975.5880999999997	0.1000063705141656	66	diastole	1	B	500	diastole
976.4880999999998	0.1000063705141656	66	diastole	2	B	500	diastole
977.4379999999999	0.1000063705141656	66	diastole	3	B	500	diastole
978.3479999999997	0.1000063705141656	66	diastole	4	B	500	diastole
979.2733999999998	0.1000063705141656	66	diastole	5	B	500	diastole
980.1735000000001	0.1000063705141656	66	diastole	6	B	500	diastole
980.9968999999999	0.1000063705141656	66	diastole	7	B	500	diastole
981.7872999999997	0.1000063705141656	66	diastole	8	B	500	diastole
982.653	0.1000063705141656	66	diastole	9	B	500	diastole
983.5118	0.1000063705141656	66	diastole	10	B	500	diastole
984.3814999999997	0.1000063705141656	66	diastole	11	B	500	diastole
987.1186	0.1055714490939863	67	systole	1	B	500	systole
987.8855000000001	0.1055714490939863	67	systole	2	B	500	systole
988.6755999999998	0.1055714490939863	67	systole	3	B	500	systole
989.4122	0.1055714490939863	67	systole	4	B	500	systole
990.1721	0.1055714490939863	67	systole	5	B	500	systole
991.0318999999997	0.1055714490939863	67	systole	6	B	500	systole
991.9095	0.1055714490939863	67	systole	7	B	500	systole
992.7627	0.1055714490939863	67	systole	8	B	500	systole
993.5925999999997	0.1055714490939863	67	systole	9	B	500	systole
994.4426000000001	0.1055714490939863	67	systole	10	B	500	systole
995.3344	0.1055714490939863	67	systole	11	B	500	systole
996.1967999999999	0.1055714490939863	67	systole	12	B	500	systole
997.0473	0.1055714490939863	67	systole	13	B	500	systole
1001.2780999999998	0.1018679702538065	68	diastole	1	B	500	diastole
1002.0080999999998	0.1018679702538065	68	diastole	2	B	500	diastole
1002.7178000000001	0.1018679702538065	68	diastole	3	B	500	diastole
1003.4012999999998	0.1018679702538065	68	diastole	4	B	500	diastole
1004.1013999999998	0.1018679702538065	68	diastole	5	B	500	diastole
1004.7744999999998	0.1018679702538065	68	diastole	6	B	500	diastole
1005.5145999999997	0.1018679702538065	68	diastole	7	B	500	diastole
1006.1917999999998	0.1018679702538065	68	diastole	8	B	500	diastole
1006.9716999999998	0.1018679702538065	68	diastole	9	B	500	diastole
1007.8317	0.1018679702538065	68	diastole	10	B	500	diastole
1008.6000999999999	0.1018679702538065	68	diastole	11	B	500	diastole
1009.3100999999999	0.1018679702538065	68	diastole	12	B	500	diastole
1011.9179999999999	0.0893512170878239	69	diastole	1	B	500	diastole
1012.6980000000001	0.0893512170878239	69	diastole	2	B	500	diastole
1013.4781	0.0893512170878239	69	diastole	3	B	500	diastole
1014.2580999999998	0.0893512170878239	69	diastole	4	B	500	diastole
1015.0997	0.0893512170878239	69	diastole	5	B	500	diastole
1015.8997000000002	0.0893512170878239	69	diastole	6	B	500	diastole
1016.7299999999998	0.0893512170878239	69	diastole	7	B	500	diastole
1017.4421	0.0893512170878239	69	diastole	8	B	500	diastole
1018.1976999999999	0.0893512170878239	69	diastole	9	B	500	diastole
1018.9372999999998	0.0893512170878239	69	diastole	10	B	500	diastole
1019.7846999999999	0.0893512170878239	69	diastole	11	B	500	diastole
1020.5651	0.0893512170878239	69	diastole	12	B	500	diastole
1022.9066	0.0924582297448068	70	systole	1	B	500	diastole
1023.5968	0.0924582297448068	70	systole	2	B	500	diastole
1024.3936999999999	0.0924582297448068	70	systole	3	B	500	diastole
1025.1337999999998	0.0924582297448068	70	systole	4	B	500	diastole
1025.8736999999999	0.0924582297448068	70	systole	5	B	500	diastole
1026.5332999999998	0.0924582297448068	70	systole	6	B	500	diastole
1027.2333	0.0924582297448068	70	systole	7	B	500	diastole
1027.9533	0.0924582297448068	70	systole	8	B	500	diastole
1028.7764	0.0924582297448068	70	systole	9	B	500	diastole
1029.5764000000001	0.0924582297448068	70	systole	10	B	500	diastole
1030.2865	0.0924582297448068	70	systole	11	B	500	diastole
1030.9390999999998	0.0924582297448068	70	systole	12	B	500	diastole
1031.6092	0.0924582297448068	70	systole	13	B	500	diastole
1032.2971	0.0924582297448068	70	systole	14	B	500	diastole
1032.9968000000001	0.0924582297448068	70	systole	15	B	500	diastole
1036.9912000000002	0.0874815649003721	71	diastole	1	B	500	diastole
1037.7778999999998	0.0874815649003721	71	diastole	2	B	500	diastole
1038.5842999999998	0.0874815649003721	71	diastole	3	B	500	diastole
1039.3742999999997	0.0874815649003721	71	diastole	4	B	500	diastole
1040.0829999999999	0.0874815649003721	71	diastole	5	B	500	diastole
1040.7832	0.0874815649003721	71	diastole	6	B	500	diastole
1041.4844999999998	0.0874815649003721	71	diastole	7	B	500	diastole
1042.1863	0.0874815649003721	71	diastole	8	B	500	diastole
1042.9428999999998	0.0874815649003721	71	diastole	9	B	500	diastole
1043.6827	0.0874815649003721	71	diastole	10	B	500	diastole
1044.3996	0.0874815649003721	71	diastole	11	B	500	diastole
1045.0874999999999	0.0874815649003721	71	diastole	12	B	500	diastole
1048.1595	0.0917725877370685	72	diastole	1	B	500	systole
1048.8895	0.0917725877370685	72	diastole	2	B	500	systole
1049.6577	0.0917725877370685	72	diastole	3	B	500	systole
1050.4178	0.0917725877370685	72	diastole	4	B	500	systole
1051.2042	0.0917725877370685	72	diastole	5	B	500	systole
1051.934	0.0917725877370685	72	diastole	6	B	500	systole
1052.6638999999998	0.0917725877370685	72	diastole	7	B	500	systole
1053.3938	0.0917725877370685	72	diastole	8	B	500	systole
1054.1038999999998	0.0917725877370685	72	diastole	9	B	500	systole
1055.0095	0.0917725877370685	72	diastole	10	B	500	systole
1055.8095999999998	0.0917725877370685	72	diastole	11	B	500	systole
1056.6096999999997	0.0917725877370685	72	diastole	12	B	500	systole
1059.6811999999998	0.0949956861441023	73	diastole	1	B	500	diastole
1060.361	0.0949956861441023	73	diastole	2	B	500	diastole
1061.0145999999997	0.0949956861441023	73	diastole	3	B	500	diastole
1061.7042	0.0949956861441023	73	diastole	4	B	500	diastole
1062.4642000000001	0.0949956861441023	73	diastole	5	B	500	diastole
1063.2241999999999	0.0949956861441023	73	diastole	6	B	500	diastole
1063.9842	0.0949956861441023	73	diastole	7	B	500	diastole
1064.7944999999997	0.0949956861441023	73	diastole	8	B	500	diastole
1065.5928000000001	0.0949956861441023	73	diastole	9	B	500	diastole
1066.4911	0.0949956861441023	73	diastole	10	B	500	diastole
1067.381	0.0949956861441023	73	diastole	11	B	500	diastole
1068.1461000000002	0.0949956861441023	73	diastole	12	B	500	diastole
1077.0968999999998	0.0987756186514161	74	systole	1	B	500	systole
1077.9336999999998	0.0987756186514161	74	systole	2	B	500	systole
1078.8037000000002	0.0987756186514161	74	systole	3	B	500	systole
1079.6548999999998	0.0987756186514161	74	systole	4	B	500	systole
1080.4950000000001	0.0987756186514161	74	systole	5	B	500	systole
1081.2250000000001	0.0987756186514161	74	systole	6	B	500	systole
1082.0510000000002	0.0987756186514161	74	systole	7	B	500	systole
1082.8709999999999	0.0987756186514161	74	systole	8	B	500	systole
1083.6753	0.0987756186514161	74	systole	9	B	500	systole
1084.4853999999998	0.0987756186514161	74	systole	10	B	500	systole
1085.2454	0.0987756186514161	74	systole	11	B	500	systole
1086.0026999999998	0.0987756186514161	74	systole	12	B	500	systole
1090.7495000000001	0.1012304603937082	75	systole	1	B	500	systole
1091.5696	0.1012304603937082	75	systole	2	B	500	systole
1092.2821000000001	0.1012304603937082	75	systole	3	B	500	systole
1093.012	0.1012304603937082	75	systole	4	B	500	systole
1093.7521	0.1012304603937082	75	systole	5	B	500	systole
1094.5476999999998	0.1012304603937082	75	systole	6	B	500	systole
1095.3778	0.1012304603937082	75	systole	7	B	500	systole
1096.0946000000001	0.1012304603937082	75	systole	8	B	500	systole
1096.8346	0.1012304603937082	75	systole	9	B	500	systole
1097.593	0.1012304603937082	75	systole	10	B	500	systole
1098.3929999999998	0.1012304603937082	75	systole	11	B	500	systole
1099.1930999999997	0.1012304603937082	75	systole	12	B	500	systole
1100.003	0.1012304603937082	75	systole	13	B	500	systole
1103.2162	0.0981303218286484	76	systole	1	B	500	systole
1103.9963	0.0981303218286484	76	systole	2	B	500	systole
1104.7762999999998	0.0981303218286484	76	systole	3	B	500	systole
1105.6418	0.0981303218286484	76	systole	4	B	500	systole
1106.4675999999997	0.0981303218286484	76	systole	5	B	500	systole
1107.2874	0.0981303218286484	76	systole	6	B	500	systole
1108.0174	0.0981303218286484	76	systole	7	B	500	systole
1108.7753	0.0981303218286484	76	systole	8	B	500	systole
1109.5449	0.0981303218286484	76	systole	9	B	500	systole
1110.3848999999998	0.0981303218286484	76	systole	10	B	500	systole
1111.2249	0.0981303218286484	76	systole	11	B	500	systole
1112.0049999999999	0.0981303218286484	76	systole	12	B	500	systole
1116.7521	0.0993786871549673	77	systole	1	B	500	systole
1117.5121000000001	0.0993786871549673	77	systole	2	B	500	systole
1118.2389999999998	0.0993786871549673	77	systole	3	B	500	systole
1118.9374	0.0993786871549673	77	systole	4	B	500	systole
1119.6474	0.0993786871549673	77	systole	5	B	500	systole
1120.3457999999998	0.0993786871549673	77	systole	6	B	500	systole
1121.0557999999999	0.0993786871549673	77	systole	7	B	500	systole
1121.7658	0.0993786871549673	77	systole	8	B	500	systole
1122.5898	0.0993786871549673	77	systole	9	B	500	systole
1123.3756999999998	0.0993786871549673	77	systole	10	B	500	systole
1124.1577999999997	0.0993786871549673	77	systole	11	B	500	systole
1125.0091999999997	0.0993786871549673	77	systole	12	B	500	systole
1125.8547999999998	0.0993786871549673	77	systole	13	B	500	systole
1129.9750000000001	0.0987599064246751	78	systole	1	B	500	diastole
1130.6793	0.0987599064246751	78	systole	2	B	500	diastole
1131.3772999999999	0.0987599064246751	78	systole	3	B	500	diastole
1132.0872000000002	0.0987599064246751	78	systole	4	B	500	diastole
1132.7332	0.0987599064246751	78	systole	5	B	500	diastole
1133.5031999999999	0.0987599064246751	78	systole	6	B	500	diastole
1134.2731	0.0987599064246751	78	systole	7	B	500	diastole
1135.0431	0.0987599064246751	78	systole	8	B	500	diastole
1135.7688999999998	0.0987599064246751	78	systole	9	B	500	diastole
1136.479	0.0987599064246751	78	systole	10	B	500	diastole
1137.1890999999998	0.0987599064246751	78	systole	11	B	500	diastole
1137.9390999999998	0.0987599064246751	78	systole	12	B	500	diastole
1138.6692	0.0987599064246751	78	systole	13	B	500	diastole
1142.2562999999998	0.0912553737289272	79	systole	1	B	500	diastole
1142.956	0.0912553737289272	79	systole	2	B	500	diastole
1143.6557999999998	0.0912553737289272	79	systole	3	B	500	diastole
1144.3857	0.0912553737289272	79	systole	4	B	500	diastole
1145.1856999999998	0.0912553737289272	79	systole	5	B	500	diastole
1145.9217999999998	0.0912553737289272	79	systole	6	B	500	diastole
1146.6519	0.0912553737289272	79	systole	7	B	500	diastole
1147.3563000000001	0.0912553737289272	79	systole	8	B	500	diastole
1148.0963	0.0912553737289272	79	systole	9	B	500	diastole
1148.9021999999998	0.0912553737289272	79	systole	10	B	500	diastole
1149.7022	0.0912553737289272	79	systole	11	B	500	diastole
1150.4779999999998	0.0912553737289272	79	systole	12	B	500	diastole
1151.2479999999998	0.0912553737289272	79	systole	13	B	500	diastole
1152.1654999999998	0.0912553737289272	79	systole	14	B	500	diastole
1154.7305	0.0962429187493398	80	systole	1	B	500	systole
1155.5505	0.0962429187493398	80	systole	2	B	500	systole
1156.3704999999998	0.0962429187493398	80	systole	3	B	500	systole
1157.2198	0.0962429187493398	80	systole	4	B	500	systole
1158.1114999999998	0.0962429187493398	80	systole	5	B	500	systole
1158.9316999999999	0.0962429187493398	80	systole	6	B	500	systole
1159.6813	0.0962429187493398	80	systole	7	B	500	systole
1160.4916999999998	0.0962429187493398	80	systole	8	B	500	systole
1161.302	0.0962429187493398	80	systole	9	B	500	systole
1162.142	0.0962429187493398	80	systole	10	B	500	systole
1162.9819999999997	0.0962429187493398	80	systole	11	B	500	systole
1163.7263	0.0962429187493398	80	systole	12	B	500	systole
1166.2310999999997	0.0987315887468867	81	diastole	1	B	500	diastole
1166.9410999999998	0.0987315887468867	81	diastole	2	B	500	diastole
1167.6928	0.0987315887468867	81	diastole	3	B	500	diastole
1168.4563	0.0987315887468867	81	diastole	4	B	500	diastole
1169.2362999999998	0.0987315887468867	81	diastole	5	B	500	diastole
1169.9397999999999	0.0987315887468867	81	diastole	6	B	500	diastole
1170.6598999999999	0.0987315887468867	81	diastole	7	B	500	diastole
1171.4565999999998	0.0987315887468867	81	diastole	8	B	500	diastole
1172.2184	0.0987315887468867	81	diastole	9	B	500	diastole
1172.9885000000002	0.0987315887468867	81	diastole	10	B	500	diastole
1173.7784	0.0987315887468867	81	diastole	11	B	500	diastole
1174.5683000000001	0.0987315887468867	81	diastole	12	B	500	diastole
1175.2984	0.0987315887468867	81	diastole	13	B	500	diastole
1178.1746999999998	0.0968741165124811	82	diastole	1	B	500	diastole
1178.7753	0.0968741165124811	82	diastole	2	B	500	diastole
1179.4257999999998	0.0968741165124811	82	diastole	3	B	500	diastole
1180.0638000000001	0.0968741165124811	82	diastole	4	B	500	diastole
1180.6618	0.0968741165124811	82	diastole	5	B	500	diastole
1181.2852999999998	0.0968741165124811	82	diastole	6	B	500	diastole
1181.9255	0.0968741165124811	82	diastole	7	B	500	diastole
1182.6653	0.0968741165124811	82	diastole	8	B	500	diastole
1183.5451999999998	0.0968741165124811	82	diastole	9	B	500	diastole
1184.4217999999998	0.0968741165124811	82	diastole	10	B	500	diastole
1185.2985999999999	0.0968741165124811	82	diastole	11	B	500	diastole
1186.1087	0.0968741165124811	82	diastole	12	B	500	diastole
1186.9354	0.0968741165124811	82	diastole	13	B	500	diastole
1190.8055000000002	0.1031211066874675	83	systole	1	B	500	diastole
1191.4622000000002	0.1031211066874675	83	systole	2	B	500	diastole
1192.1422	0.1031211066874675	83	systole	3	B	500	diastole
1192.8470999999997	0.1031211066874675	83	systole	4	B	500	diastole
1193.5871	0.1031211066874675	83	systole	5	B	500	diastole
1194.3270999999997	0.1031211066874675	83	systole	6	B	500	diastole
1195.0671	0.1031211066874675	83	systole	7	B	500	diastole
1195.8589	0.1031211066874675	83	systole	8	B	500	diastole
1196.5795999999998	0.1031211066874675	83	systole	9	B	500	diastole
1197.3295999999998	0.1031211066874675	83	systole	10	B	500	diastole
1198.1995	0.1031211066874675	83	systole	11	B	500	diastole
1199.0669999999998	0.1031211066874675	83	systole	12	B	500	diastole
1199.9170000000001	0.1031211066874675	83	systole	13	B	500	diastole
1203.4814	0.1025059578823857	84	systole	1	B	500	systole
1204.2814	0.1025059578823857	84	systole	2	B	500	systole
1205.0215	0.1025059578823857	84	systole	3	B	500	systole
1205.7616	0.1025059578823857	84	systole	4	B	500	systole
1206.508	0.1025059578823857	84	systole	5	B	500	systole
1207.2778999999998	0.1025059578823857	84	systole	6	B	500	systole
1208.0676999999998	0.1025059578823857	84	systole	7	B	500	systole
1208.8119	0.1025059578823857	84	systole	8	B	500	systole
1209.5112000000001	0.1025059578823857	84	systole	9	B	500	systole
1210.2513000000001	0.1025059578823857	84	systole	10	B	500	systole
1211.1312999999998	0.1025059578823857	84	systole	11	B	500	systole
1211.9813000000001	0.1025059578823857	84	systole	12	B	500	systole
1212.8313	0.1025059578823857	84	systole	13	B	500	systole
1215.8839	0.1006327642244286	85	systole	1	B	500	systole
1216.5539	0.1006327642244286	85	systole	2	B	500	systole
1217.1939999999997	0.1006327642244286	85	systole	3	B	500	systole
1217.7904999999998	0.1006327642244286	85	systole	4	B	500	systole
1218.2796999999998	0.1006327642244286	85	systole	5	B	500	systole
1219.0298	0.1006327642244286	85	systole	6	B	500	systole
1219.7798999999998	0.1006327642244286	85	systole	7	B	500	systole
1220.9097	0.1006327642244286	85	systole	8	B	500	systole
1222.0395999999998	0.1006327642244286	85	systole	9	B	500	systole
1222.9995999999999	0.1006327642244286	85	systole	10	B	500	systole
1223.9531	0.1006327642244286	85	systole	11	B	500	systole
1224.8830999999998	0.1006327642244286	85	systole	12	B	500	systole
1229.7213	0.1193758239969611	86	systole	1	B	500	diastole
1230.6215	0.1193758239969611	86	systole	2	B	500	diastole
1231.3758999999998	0.1193758239969611	86	systole	3	B	500	diastole
1232.1478	0.1193758239969611	86	systole	4	B	500	diastole
1232.9198	0.1193758239969611	86	systole	5	B	500	diastole
1233.7207999999998	0.1193758239969611	86	systole	6	B	500	diastole
1234.5925999999997	0.1193758239969611	86	systole	7	B	500	diastole
1235.4309	0.1193758239969611	86	systole	8	B	500	diastole
1236.2481999999998	0.1193758239969611	86	systole	9	B	500	diastole
1236.9333	0.1193758239969611	86	systole	10	B	500	diastole
1237.6604999999997	0.1193758239969611	86	systole	11	B	500	diastole
1238.4005	0.1193758239969611	86	systole	12	B	500	diastole
1243.1796000000002	0.0918660114402882	87	diastole	1	B	500	systole
1243.9831000000001	0.0918660114402882	87	diastole	2	B	500	systole
1244.7598	0.0918660114402882	87	diastole	3	B	500	systole
1245.5197999999998	0.0918660114402882	87	diastole	4	B	500	systole
1246.3565	0.0918660114402882	87	diastole	5	B	500	systole
1247.2362999999998	0.0918660114402882	87	diastole	6	B	500	systole
1248.1162000000002	0.0918660114402882	87	diastole	7	B	500	systole
1248.9563999999998	0.0918660114402882	87	diastole	8	B	500	systole
1249.7465999999997	0.0918660114402882	87	diastole	9	B	500	systole
1250.5267000000001	0.0918660114402882	87	diastole	10	B	500	systole
1251.3279999999997	0.0918660114402882	87	diastole	11	B	500	systole
1252.1377999999997	0.0918660114402882	87	diastole	12	B	500	systole
1256.2258	0.1005912167020142	88	diastole	1	B	500	systole
1256.9558	0.1005912167020142	88	diastole	2	B	500	systole
1257.7297	0.1005912167020142	88	diastole	3	B	500	systole
1258.5397	0.1005912167020142	88	diastole	4	B	500	systole
1259.3596999999997	0.1005912167020142	88	diastole	5	B	500	systole
1260.1796000000002	0.1005912167020142	88	diastole	6	B	500	systole
1260.9693999999997	0.1005912167020142	88	diastole	7	B	500	systole
1261.7094	0.1005912167020142	88	diastole	8	B	500	systole
1262.4814	0.1005912167020142	88	diastole	9	B	500	systole
1263.2812000000001	0.1005912167020142	88	diastole	10	B	500	systole
1264.0712999999998	0.1005912167020142	88	diastole	11	B	500	systole
1264.8612999999998	0.1005912167020142	88	diastole	12	B	500	systole
1268.3664999999999	0.0987515252782031	89	systole	1	B	500	diastole
1269.1164999999999	0.0987515252782031	89	systole	2	B	500	diastole
1269.8666	0.0987515252782031	89	systole	3	B	500	diastole
1270.6251999999997	0.0987515252782031	89	systole	4	B	500	diastole
1271.3992	0.0987515252782031	89	systole	5	B	500	diastole
1272.1791999999998	0.0987515252782031	89	systole	6	B	500	diastole
1272.8765999999998	0.0987515252782031	89	systole	7	B	500	diastole
1273.6045000000001	0.0987515252782031	89	systole	8	B	500	diastole
1274.3441	0.0987515252782031	89	systole	9	B	500	diastole
1275.1546	0.0987515252782031	89	systole	10	B	500	diastole
1275.9651999999999	0.0987515252782031	89	systole	11	B	500	diastole
1276.7067	0.0987515252782031	89	systole	12	B	500	diastole
1277.447	0.0987515252782031	89	systole	13	B	500	diastole
1281.1317000000001	0.0950160464271903	90	systole	1	B	500	diastole
1281.8221999999998	0.0950160464271903	90	systole	2	B	500	diastole
1282.5096	0.0950160464271903	90	systole	3	B	500	diastole
1283.2186	0.0950160464271903	90	systole	4	B	500	diastole
1283.9387	0.0950160464271903	90	systole	5	B	500	diastole
1284.6371000000001	0.0950160464271903	90	systole	6	B	500	diastole
1285.4266999999998	0.0950160464271903	90	systole	7	B	500	diastole
1286.2171	0.0950160464271903	90	systole	8	B	500	diastole
1287.0271999999998	0.0950160464271903	90	systole	9	B	500	diastole
1287.8772000000001	0.0950160464271903	90	systole	10	B	500	diastole
1288.6172	0.0950160464271903	90	systole	11	B	500	diastole
1289.3367	0.0950160464271903	90	systole	12	B	500	diastole
1290.0469	0.0950160464271903	90	systole	13	B	500	diastole
1293.3547999999998	0.0900042047724127	91	diastole	1	B	500	systole
1294.2548	0.0900042047724127	91	diastole	2	B	500	systole
1295.0348000000001	0.0900042047724127	91	diastole	3	B	500	systole
1295.8147000000001	0.0900042047724127	91	diastole	4	B	500	systole
1296.5246	0.0900042047724127	91	diastole	5	B	500	systole
1297.2344999999998	0.0900042047724127	91	diastole	6	B	500	systole
1297.9163	0.0900042047724127	91	diastole	7	B	500	systole
1298.608	0.0900042047724127	91	diastole	8	B	500	systole
1299.3079	0.0900042047724127	91	diastole	9	B	500	systole
1300.0464	0.0900042047724127	91	diastole	10	B	500	systole
1300.7196000000001	0.0900042047724127	91	diastole	11	B	500	systole
1301.4012999999998	0.0900042047724127	91	diastole	12	B	500	systole
1302.0829999999999	0.0900042047724127	91	diastole	13	B	500	systole
1305.2431	0.0818828937481157	92	systole	1	B	500	systole
1305.9131	0.0818828937481157	92	systole	2	B	500	systole
1306.6631	0.0818828937481157	92	systole	3	B	500	systole
1307.5631999999998	0.0818828937481157	92	systole	4	B	500	systole
1308.4632	0.0818828937481157	92	systole	5	B	500	systole
1309.2362999999998	0.0818828937481157	92	systole	6	B	500	systole
1309.9221999999997	0.0818828937481157	92	systole	7	B	500	systole
1310.6022	0.0818828937481157	92	systole	8	B	500	systole
1311.2721	0.0818828937481157	92	systole	9	B	500	systole
1312.0213	0.0818828937481157	92	systole	10	B	500	systole
1312.8621999999998	0.0818828937481157	92	systole	11	B	500	systole
1313.7096	0.0818828937481157	92	systole	12	B	500	systole
1314.4596	0.0818828937481157	92	systole	13	B	500	systole
1317.5588999999998	0.0943691929569467	93	systole	1	B	500	systole
1318.3088	0.0943691929569467	93	systole	2	B	500	systole
1319.0586999999998	0.0943691929569467	93	systole	3	B	500	systole
1319.8086999999998	0.0943691929569467	93	systole	4	B	500	systole
1320.6164999999999	0.0943691929569467	93	systole	5	B	500	systole
1321.4363	0.0943691929569467	93	systole	6	B	500	systole
1322.1404999999997	0.0943691929569467	93	systole	7	B	500	systole
1322.8304	0.0943691929569467	93	systole	8	B	500	systole
1323.5071	0.0943691929569467	93	systole	9	B	500	systole
1324.2070999999999	0.0943691929569467	93	systole	10	B	500	systole
1324.8994999999998	0.0943691929569467	93	systole	11	B	500	systole
1325.6094999999998	0.0943691929569467	93	systole	12	B	500	systole
1326.2764999999997	0.0943691929569467	93	systole	13	B	500	systole
1328.7533	0.0887547187739983	94	systole	1	B	500	diastole
1329.5932999999998	0.0887547187739983	94	systole	2	B	500	diastole
1330.419	0.0887547187739983	94	systole	3	B	500	diastole
1331.224	0.0887547187739983	94	systole	4	B	500	diastole
1331.9914999999999	0.0887547187739983	94	systole	5	B	500	diastole
1332.8605999999997	0.0887547187739983	94	systole	6	B	500	diastole
1333.6780999999999	0.0887547187739983	94	systole	7	B	500	diastole
1334.4282	0.0887547187739983	94	systole	8	B	500	diastole
1335.1782999999998	0.0887547187739983	94	systole	9	B	500	diastole
1335.9181999999998	0.0887547187739983	94	systole	10	B	500	diastole
1336.7465999999997	0.0887547187739983	94	systole	11	B	500	diastole
1337.5766999999998	0.0887547187739983	94	systole	12	B	500	diastole
1338.3765999999998	0.0887547187739983	94	systole	13	B	500	diastole
1341.5412	0.099241312360391	95	systole	1	B	500	systole
1342.3482000000001	0.099241312360391	95	systole	2	B	500	systole
1343.0882	0.099241312360391	95	systole	3	B	500	systole
1343.8283	0.099241312360391	95	systole	4	B	500	systole
1344.5329	0.099241312360391	95	systole	5	B	500	systole
1345.3329	0.099241312360391	95	systole	6	B	500	systole
1346.0509	0.099241312360391	95	systole	7	B	500	systole
1346.791	0.099241312360391	95	systole	8	B	500	systole
1347.5311	0.099241312360391	95	systole	9	B	500	systole
1348.2180999999998	0.099241312360391	95	systole	10	B	500	systole
1348.9179000000001	0.099241312360391	95	systole	11	B	500	systole
1349.6521999999998	0.099241312360391	95	systole	12	B	500	systole
1350.3922	0.099241312360391	95	systole	13	B	500	systole
1353.3088999999998	0.0893708110670559	96	systole	1	B	500	diastole
1354.1490000000001	0.0893708110670559	96	systole	2	B	500	diastole
1354.9891	0.0893708110670559	96	systole	3	B	500	diastole
1355.7366	0.0893708110670559	96	systole	4	B	500	diastole
1356.5024999999998	0.0893708110670559	96	systole	5	B	500	diastole
1357.2958	0.0893708110670559	96	systole	6	B	500	diastole
1358.0658999999998	0.0893708110670559	96	systole	7	B	500	diastole
1358.7976	0.0893708110670559	96	systole	8	B	500	diastole
1359.5176	0.0893708110670559	96	systole	9	B	500	diastole
1360.2259000000001	0.0893708110670559	96	systole	10	B	500	diastole
1360.9459	0.0893708110670559	96	systole	11	B	500	diastole
1361.7157	0.0893708110670559	96	systole	12	B	500	diastole
1362.4340999999997	0.0893708110670559	96	systole	13	B	500	diastole
1365.5927	0.0906143501633778	97	diastole	1	B	500	systole
1366.3927999999999	0.0906143501633778	97	diastole	2	B	500	systole
1367.2211	0.0906143501633778	97	diastole	3	B	500	systole
1368.0718	0.0906143501633778	97	diastole	4	B	500	systole
1368.9365999999998	0.0906143501633778	97	diastole	5	B	500	systole
1369.7767000000001	0.0906143501633778	97	diastole	6	B	500	systole
1370.6168	0.0906143501633778	97	diastole	7	B	500	systole
1371.5649999999998	0.0906143501633778	97	diastole	8	B	500	systole
1372.4453999999998	0.0906143501633778	97	diastole	9	B	500	systole
1373.2153	0.0906143501633778	97	diastole	10	B	500	systole
1373.9354	0.0906143501633778	97	diastole	11	B	500	systole
1376.9246	0.1006593499332666	98	diastole	1	B	500	systole
1377.6746999999998	0.1006593499332666	98	diastole	2	B	500	systole
1378.416	0.1006593499332666	98	diastole	3	B	500	systole
1378.7178000000001	0.1006593499332666	98	diastole	4	B	500	systole
1379.1447999999998	0.1006593499332666	98	diastole	5	B	500	systole
1379.7661999999998	0.1006593499332666	98	diastole	6	B	500	systole
1380.4461	0.1006593499332666	98	diastole	7	B	500	systole
1380.9945999999998	0.1006593499332666	98	diastole	8	B	500	systole
1381.6348	0.1006593499332666	98	diastole	9	B	500	systole
1382.2749000000001	0.1006593499332666	98	diastole	10	B	500	systole
1382.9363999999998	0.1006593499332666	98	diastole	11	B	500	systole
1383.6063000000001	0.1006593499332666	98	diastole	12	B	500	systole
1384.5665000000001	0.1006593499332666	98	diastole	13	B	500	systole
1385.5267000000001	0.1006593499332666	98	diastole	14	B	500	systole
1386.8187999999998	0.1006593499332666	98	diastole	15	B	500	systole
1389.2117	0.1175293126143515	99	systole	1	B	500	systole
1390.0516999999998	0.1175293126143515	99	systole	2	B	500	systole
1390.8515999999997	0.1175293126143515	99	systole	3	B	500	systole
1391.6662	0.1175293126143515	99	systole	4	B	500	systole
1392.5170999999998	0.1175293126143515	99	systole	5	B	500	systole
1393.4172	0.1175293126143515	99	systole	6	B	500	systole
1394.291	0.1175293126143515	99	systole	7	B	500	systole
1395.1708	0.1175293126143515	99	systole	8	B	500	systole
1396.0035	0.1175293126143515	99	systole	9	B	500	systole
1396.8536000000001	0.1175293126143515	99	systole	10	B	500	systole
1397.7436	0.1175293126143515	99	systole	11	B	500	systole
1398.7011	0.1175293126143515	99	systole	12	B	500	systole
1402.5395999999998	0.1118723061517812	100	diastole	1	B	500	systole
1403.3898000000002	0.1118723061517812	100	diastole	2	B	500	systole
1404.3065	0.1118723061517812	100	diastole	3	B	500	systole
1405.2245	0.1118723061517812	100	diastole	4	B	500	systole
1406.1344000000001	0.1118723061517812	100	diastole	5	B	500	systole
1406.9145	0.1118723061517812	100	diastole	6	B	500	systole
1407.6946	0.1118723061517812	100	diastole	7	B	500	systole
1408.5212	0.1118723061517812	100	diastole	8	B	500	systole
1409.3196	0.1118723061517812	100	diastole	9	B	500	systole
1410.1797	0.1118723061517812	100	diastole	10	B	500	systole
1411.0399	0.1118723061517812	100	diastole	11	B	500	systole
