onset	duration	trial_num	trial_type	tone_num	tone_type	frequency	response
81.91489999999999	0.075618912524078	1	systole	1	B	500	systole
82.53500000000008	0.075618912524078	1	systole	2	B	500	systole
83.17489999999998	0.075618912524078	1	systole	3	B	500	systole
83.81490000000008	0.075618912524078	1	systole	4	B	500	systole
84.45479999999998	0.075618912524078	1	systole	5	B	500	systole
85.14650000000006	0.075618912524078	1	systole	6	B	500	systole
85.84980000000019	0.075618912524078	1	systole	7	B	500	systole
86.53750000000014	0.075618912524078	1	systole	8	B	500	systole
87.21940000000018	0.075618912524078	1	systole	9	B	500	systole
87.86930000000007	0.075618912524078	1	systole	10	B	500	systole
88.51920000000018	0.075618912524078	1	systole	11	B	500	systole
89.14920000000006	0.075618912524078	1	systole	12	B	500	systole
89.76930000000016	0.075618912524078	1	systole	13	B	500	systole
90.38930000000005	0.075618912524078	1	systole	14	B	500	systole
90.99940000000015	0.075618912524078	1	systole	15	B	500	systole
98.50870000000009	0.0850108567683491	2	systole	1	B	500	systole
99.1386	0.0850108567683491	2	systole	2	B	500	systole
99.7469000000001	0.0850108567683491	2	systole	3	B	500	systole
100.37920000000008	0.0850108567683491	2	systole	4	B	500	systole
101.029	0.0850108567683491	2	systole	5	B	500	systole
101.67890000000011	0.0850108567683491	2	systole	6	B	500	systole
102.29169999999999	0.0850108567683491	2	systole	7	B	500	systole
102.94160000000011	0.0850108567683491	2	systole	8	B	500	systole
103.61160000000018	0.0850108567683491	2	systole	9	B	500	systole
104.27170000000001	0.0850108567683491	2	systole	10	B	500	systole
104.94170000000008	0.0850108567683491	2	systole	11	B	500	systole
105.6132	0.0850108567683491	2	systole	12	B	500	systole
106.26350000000002	0.0850108567683491	2	systole	13	B	500	systole
106.89340000000016	0.0850108567683491	2	systole	14	B	500	systole
107.52330000000006	0.0850108567683491	2	systole	15	B	500	systole
112.7668000000001	0.0781186687818262	3	diastole	1	B	500	systole
113.39660000000003	0.0781186687818262	3	diastole	2	B	500	systole
114.01690000000008	0.0781186687818262	3	diastole	3	B	500	systole
114.68340000000012	0.0781186687818262	3	diastole	4	B	500	systole
115.3701000000001	0.0781186687818262	3	diastole	5	B	500	systole
116.03840000000014	0.0781186687818262	3	diastole	6	B	500	systole
116.6985000000002	0.0781186687818262	3	diastole	7	B	500	systole
117.35860000000002	0.0781186687818262	3	diastole	8	B	500	systole
117.97880000000009	0.0781186687818262	3	diastole	9	B	500	systole
118.59890000000019	0.0781186687818262	3	diastole	10	B	500	systole
119.19240000000013	0.0781186687818262	3	diastole	11	B	500	systole
119.82230000000004	0.0781186687818262	3	diastole	12	B	500	systole
120.45209999999997	0.0781186687818262	3	diastole	13	B	500	systole
121.06940000000009	0.0781186687818262	3	diastole	14	B	500	systole
121.71730000000002	0.0781186687818262	3	diastole	15	B	500	systole
125.91150000000016	0.0829896248469594	4	diastole	1	B	500	systole
126.55140000000006	0.0829896248469594	4	diastole	2	B	500	systole
127.17140000000018	0.0829896248469594	4	diastole	3	B	500	systole
127.78179999999998	0.0829896248469594	4	diastole	4	B	500	systole
128.40520000000015	0.0829896248469594	4	diastole	5	B	500	systole
129.00160000000005	0.0829896248469594	4	diastole	6	B	500	systole
129.60460000000012	0.0829896248469594	4	diastole	7	B	500	systole
130.21720000000005	0.0829896248469594	4	diastole	8	B	500	systole
130.83760000000007	0.0829896248469594	4	diastole	9	B	500	systole
131.4775000000002	0.0829896248469594	4	diastole	10	B	500	systole
132.1273000000001	0.0829896248469594	4	diastole	11	B	500	systole
132.7953	0.0829896248469594	4	diastole	12	B	500	systole
133.45550000000003	0.0829896248469594	4	diastole	13	B	500	systole
134.12390000000005	0.0829896248469594	4	diastole	14	B	500	systole
134.7523000000001	0.0829896248469594	4	diastole	15	B	500	systole
139.8538000000001	0.0799939062562771	5	diastole	1	B	500	systole
140.48360000000002	0.0799939062562771	5	diastole	2	B	500	systole
141.07550000000015	0.0799939062562771	5	diastole	3	B	500	systole
141.67550000000006	0.0799939062562771	5	diastole	4	B	500	systole
142.28539999999998	0.0799939062562771	5	diastole	5	B	500	systole
142.94510000000014	0.0799939062562771	5	diastole	6	B	500	systole
143.63350000000014	0.0799939062562771	5	diastole	7	B	500	systole
144.3534000000002	0.0799939062562771	5	diastole	8	B	500	systole
145.07330000000002	0.0799939062562771	5	diastole	9	B	500	systole
145.79320000000007	0.0799939062562771	5	diastole	10	B	500	systole
146.51310000000012	0.0799939062562771	5	diastole	11	B	500	systole
147.23310000000015	0.0799939062562771	5	diastole	12	B	500	systole
148.01120000000014	0.0799939062562771	5	diastole	13	B	500	systole
148.7627	0.0799939062562771	5	diastole	14	B	500	systole
153.2405000000001	0.0793826157751027	6	systole	1	B	500	systole
153.85460000000012	0.0793826157751027	6	systole	2	B	500	systole
154.46860000000015	0.0793826157751027	6	systole	3	B	500	systole
155.08860000000004	0.0793826157751027	6	systole	4	B	500	systole
155.71860000000015	0.0793826157751027	6	systole	5	B	500	systole
156.3487	0.0793826157751027	6	systole	6	B	500	systole
156.99860000000012	0.0793826157751027	6	systole	7	B	500	systole
157.63440000000014	0.0793826157751027	6	systole	8	B	500	systole
158.28020000000015	0.0793826157751027	6	systole	9	B	500	systole
158.9303	0.0793826157751027	6	systole	10	B	500	systole
159.58050000000003	0.0793826157751027	6	systole	11	B	500	systole
160.2306000000001	0.0793826157751027	6	systole	12	B	500	systole
160.89210000000003	0.0793826157751027	6	systole	13	B	500	systole
161.54960000000005	0.0793826157751027	6	systole	14	B	500	systole
162.20280000000002	0.0793826157751027	6	systole	15	B	500	systole
162.85120000000006	0.0793826157751027	6	systole	16	B	500	systole
166.01200000000017	0.0805218193563632	7	systole	1	B	500	systole
166.65200000000004	0.0805218193563632	7	systole	2	B	500	systole
167.29190000000017	0.0805218193563632	7	systole	3	B	500	systole
167.9217000000001	0.0805218193563632	7	systole	4	B	500	systole
168.5462	0.0805218193563632	7	systole	5	B	500	systole
169.17630000000008	0.0805218193563632	7	systole	6	B	500	systole
169.80060000000003	0.0805218193563632	7	systole	7	B	500	systole
170.42050000000017	0.0805218193563632	7	systole	8	B	500	systole
171.05060000000003	0.0805218193563632	7	systole	9	B	500	systole
171.67039999999997	0.0805218193563632	7	systole	10	B	500	systole
172.2605000000001	0.0805218193563632	7	systole	11	B	500	systole
172.8506	0.0805218193563632	7	systole	12	B	500	systole
173.4348	0.0805218193563632	7	systole	13	B	500	systole
174.01870000000008	0.0805218193563632	7	systole	14	B	500	systole
174.5871000000002	0.0805218193563632	7	systole	15	B	500	systole
175.1494	0.0805218193563632	7	systole	16	B	500	systole
181.90150000000017	0.0856520499801263	8	diastole	1	B	500	diastole
182.58130000000006	0.0856520499801263	8	diastole	2	B	500	diastole
183.23120000000017	0.0856520499801263	8	diastole	3	B	500	diastole
183.84120000000007	0.0856520499801263	8	diastole	4	B	500	diastole
184.45119999999997	0.0856520499801263	8	diastole	5	B	500	diastole
185.06110000000012	0.0856520499801263	8	diastole	6	B	500	diastole
185.60270000000014	0.0856520499801263	8	diastole	7	B	500	diastole
186.17309999999998	0.0856520499801263	8	diastole	8	B	500	diastole
186.80460000000016	0.0856520499801263	8	diastole	9	B	500	diastole
187.4447	0.0856520499801263	8	diastole	10	B	500	diastole
188.0847000000001	0.0856520499801263	8	diastole	11	B	500	diastole
188.73469999999998	0.0856520499801263	8	diastole	12	B	500	diastole
189.42140000000018	0.0856520499801263	8	diastole	13	B	500	diastole
190.0915	0.0856520499801263	8	diastole	14	B	500	diastole
190.76150000000007	0.0856520499801263	8	diastole	15	B	500	diastole
191.41980000000012	0.0856520499801263	8	diastole	16	B	500	diastole
199.23620000000005	0.0762543283053673	9	systole	1	B	500	systole
199.89380000000006	0.0762543283053673	9	systole	2	B	500	systole
200.5340000000001	0.0762543283053673	9	systole	3	B	500	systole
201.18970000000013	0.0762543283053673	9	systole	4	B	500	systole
201.80970000000002	0.0762543283053673	9	systole	5	B	500	systole
202.42960000000016	0.0762543283053673	9	systole	6	B	500	systole
203.02819999999997	0.0762543283053673	9	systole	7	B	500	systole
203.6324000000002	0.0762543283053673	9	systole	8	B	500	systole
204.2405000000001	0.0762543283053673	9	systole	9	B	500	systole
204.86030000000005	0.0762543283053673	9	systole	10	B	500	systole
205.4485000000002	0.0762543283053673	9	systole	11	B	500	systole
206.04830000000015	0.0762543283053673	9	systole	12	B	500	systole
206.66830000000004	0.0762543283053673	9	systole	13	B	500	systole
207.30860000000007	0.0762543283053673	9	systole	14	B	500	systole
207.9683	0.0762543283053673	9	systole	15	B	500	systole
213.33339999999998	0.0818578688194975	10	systole	1	B	500	systole
213.96350000000007	0.0818578688194975	10	systole	2	B	500	systole
214.59350000000018	0.0818578688194975	10	systole	3	B	500	systole
215.2034000000001	0.0818578688194975	10	systole	4	B	500	systole
215.81330000000003	0.0818578688194975	10	systole	5	B	500	systole
216.41180000000008	0.0818578688194975	10	systole	6	B	500	systole
217.02179999999998	0.0818578688194975	10	systole	7	B	500	systole
217.59280000000012	0.0818578688194975	10	systole	8	B	500	systole
218.1929	0.0818578688194975	10	systole	9	B	500	systole
218.81270000000018	0.0818578688194975	10	systole	10	B	500	systole
219.45280000000002	0.0818578688194975	10	systole	11	B	500	systole
220.1228000000001	0.0818578688194975	10	systole	12	B	500	systole
220.78290000000015	0.0818578688194975	10	systole	13	B	500	systole
221.44280000000003	0.0818578688194975	10	systole	14	B	500	systole
222.10270000000014	0.0818578688194975	10	systole	15	B	500	systole
222.77030000000013	0.0818578688194975	10	systole	16	B	500	systole
226.56780000000003	0.0812477150175254	11	systole	1	B	500	diastole
227.15190000000007	0.0812477150175254	11	systole	2	B	500	diastole
227.7418	0.0812477150175254	11	systole	3	B	500	diastole
228.31600000000003	0.0812477150175254	11	systole	4	B	500	diastole
228.9058	0.0812477150175254	11	systole	5	B	500	diastole
229.49980000000005	0.0812477150175254	11	systole	6	B	500	diastole
230.1197000000002	0.0812477150175254	11	systole	7	B	500	diastole
230.73980000000006	0.0812477150175254	11	systole	8	B	500	diastole
231.36980000000017	0.0812477150175254	11	systole	9	B	500	diastole
232.0114000000001	0.0812477150175254	11	systole	10	B	500	diastole
232.62250000000017	0.0812477150175254	11	systole	11	B	500	diastole
233.2482	0.0812477150175254	11	systole	12	B	500	diastole
233.8483000000001	0.0812477150175254	11	systole	13	B	500	diastole
234.4484	0.0812477150175254	11	systole	14	B	500	diastole
235.03830000000016	0.0812477150175254	11	systole	15	B	500	diastole
235.61260000000016	0.0812477150175254	11	systole	16	B	500	diastole
240.0385000000001	0.073747912509134	12	diastole	1	B	500	diastole
240.6667	0.073747912509134	12	diastole	2	B	500	diastole
241.2750000000001	0.073747912509134	12	diastole	3	B	500	diastole
241.87509999999997	0.073747912509134	12	diastole	4	B	500	diastole
242.49520000000007	0.073747912509134	12	diastole	5	B	500	diastole
243.10550000000012	0.073747912509134	12	diastole	6	B	500	diastole
243.7256	0.073747912509134	12	diastole	7	B	500	diastole
244.3257000000001	0.073747912509134	12	diastole	8	B	500	diastole
244.9058	0.073747912509134	12	diastole	9	B	500	diastole
245.48590000000013	0.073747912509134	12	diastole	10	B	500	diastole
246.07590000000005	0.073747912509134	12	diastole	11	B	500	diastole
246.6658	0.073747912509134	12	diastole	12	B	500	diastole
247.29410000000007	0.073747912509134	12	diastole	13	B	500	diastole
247.9141000000002	0.073747912509134	12	diastole	14	B	500	diastole
248.55410000000006	0.073747912509134	12	diastole	15	B	500	diastole
249.1940000000002	0.073747912509134	12	diastole	16	B	500	diastole
249.88030000000003	0.073747912509134	12	diastole	17	B	500	diastole
253.16650000000004	0.0837265798181761	13	systole	1	B	500	diastole
253.75099999999998	0.0837265798181761	13	systole	2	B	500	diastole
254.3411000000001	0.0837265798181761	13	systole	3	B	500	diastole
254.89790000000016	0.0837265798181761	13	systole	4	B	500	diastole
255.48030000000017	0.0837265798181761	13	systole	5	B	500	diastole
256.0802000000001	0.0837265798181761	13	systole	6	B	500	diastole
256.68280000000004	0.0837265798181761	13	systole	7	B	500	diastole
257.30290000000014	0.0837265798181761	13	systole	8	B	500	diastole
257.97270000000003	0.0837265798181761	13	systole	9	B	500	diastole
258.6427000000001	0.0837265798181761	13	systole	10	B	500	diastole
259.3127000000002	0.0837265798181761	13	systole	11	B	500	diastole
259.9861000000001	0.0837265798181761	13	systole	12	B	500	diastole
260.6377	0.0837265798181761	13	systole	13	B	500	diastole
261.2777000000001	0.0837265798181761	13	systole	14	B	500	diastole
261.91780000000017	0.0837265798181761	13	systole	15	B	500	diastole
268.39200000000005	0.0800131626601796	14	systole	1	B	500	systole
268.9919	0.0800131626601796	14	systole	2	B	500	systole
269.587	0.0800131626601796	14	systole	3	B	500	systole
270.1870000000001	0.0800131626601796	14	systole	4	B	500	systole
270.7886000000001	0.0800131626601796	14	systole	5	B	500	systole
271.3745000000001	0.0800131626601796	14	systole	6	B	500	systole
271.95690000000013	0.0800131626601796	14	systole	7	B	500	systole
272.5567000000001	0.0800131626601796	14	systole	8	B	500	systole
273.1459	0.0800131626601796	14	systole	9	B	500	systole
273.72500000000014	0.0800131626601796	14	systole	10	B	500	systole
274.30510000000004	0.0800131626601796	14	systole	11	B	500	systole
274.895	0.0800131626601796	14	systole	12	B	500	systole
275.48670000000016	0.0800131626601796	14	systole	13	B	500	systole
276.1043000000002	0.0800131626601796	14	systole	14	B	500	systole
276.72260000000006	0.0800131626601796	14	systole	15	B	500	systole
277.3426000000002	0.0800131626601796	14	systole	16	B	500	systole
279.8985	0.0773998561780899	15	systole	1	B	500	systole
280.51840000000016	0.0773998561780899	15	systole	2	B	500	systole
281.13840000000005	0.0773998561780899	15	systole	3	B	500	systole
281.72850000000017	0.0773998561780899	15	systole	4	B	500	systole
282.31860000000006	0.0773998561780899	15	systole	5	B	500	systole
282.9086	0.0773998561780899	15	systole	6	B	500	systole
283.4986000000001	0.0773998561780899	15	systole	7	B	500	systole
284.07770000000005	0.0773998561780899	15	systole	8	B	500	systole
284.6354000000001	0.0773998561780899	15	systole	9	B	500	systole
285.2037	0.0773998561780899	15	systole	10	B	500	systole
285.8036000000002	0.0773998561780899	15	systole	11	B	500	systole
286.4037000000001	0.0773998561780899	15	systole	12	B	500	systole
287.0236	0.0773998561780899	15	systole	13	B	500	systole
287.6436000000001	0.0773998561780899	15	systole	14	B	500	systole
288.2794000000001	0.0773998561780899	15	systole	15	B	500	systole
288.91690000000017	0.0773998561780899	15	systole	16	B	500	systole
289.53690000000006	0.0773998561780899	15	systole	17	B	500	systole
292.53690000000006	0.0768738931801635	16	systole	1	B	500	systole
293.1369000000002	0.0768738931801635	16	systole	2	B	500	systole
293.7369000000001	0.0768738931801635	16	systole	3	B	500	systole
294.3311000000001	0.0768738931801635	16	systole	4	B	500	systole
294.9511	0.0768738931801635	16	systole	5	B	500	systole
295.6111000000001	0.0768738931801635	16	systole	6	B	500	systole
296.27110000000016	0.0768738931801635	16	systole	7	B	500	systole
296.93100000000004	0.0768738931801635	16	systole	8	B	500	systole
297.587	0.0768738931801635	16	systole	9	B	500	systole
298.2402000000002	0.0768738931801635	16	systole	10	B	500	systole
298.8701000000001	0.0768738931801635	16	systole	11	B	500	systole
299.4901	0.0768738931801635	16	systole	12	B	500	systole
300.1001000000001	0.0768738931801635	16	systole	13	B	500	systole
300.7002	0.0768738931801635	16	systole	14	B	500	systole
301.30010000000016	0.0768738931801635	16	systole	15	B	500	systole
304.6354000000001	0.0756285051174927	17	diastole	1	B	500	diastole
305.2638000000002	0.0756285051174927	17	diastole	2	B	500	diastole
305.9171000000001	0.0756285051174927	17	diastole	3	B	500	diastole
306.5734	0.0756285051174927	17	diastole	4	B	500	diastole
307.2248000000002	0.0756285051174927	17	diastole	5	B	500	diastole
307.87480000000005	0.0756285051174927	17	diastole	6	B	500	diastole
308.54650000000015	0.0756285051174927	17	diastole	7	B	500	diastole
309.2164	0.0756285051174927	17	diastole	8	B	500	diastole
309.8863000000001	0.0756285051174927	17	diastole	9	B	500	diastole
310.5563000000002	0.0756285051174927	17	diastole	10	B	500	diastole
311.2445	0.0756285051174927	17	diastole	11	B	500	diastole
311.9216000000001	0.0756285051174927	17	diastole	12	B	500	diastole
312.5875000000001	0.0756285051174927	17	diastole	13	B	500	diastole
313.23710000000005	0.0756285051174927	17	diastole	14	B	500	diastole
316.78840000000014	0.0775036533595994	18	diastole	1	B	500	diastole
317.4483	0.0775036533595994	18	diastole	2	B	500	diastole
318.10480000000007	0.0775036533595994	18	diastole	3	B	500	diastole
318.7814000000001	0.0775036533595994	18	diastole	4	B	500	diastole
319.4317000000001	0.0775036533595994	18	diastole	5	B	500	diastole
320.10180000000014	0.0775036533595994	18	diastole	6	B	500	diastole
320.7601000000002	0.0775036533595994	18	diastole	7	B	500	diastole
321.39020000000005	0.0775036533595994	18	diastole	8	B	500	diastole
322.0204000000001	0.0775036533595994	18	diastole	9	B	500	diastole
322.6505000000002	0.0775036533595994	18	diastole	10	B	500	diastole
323.2505000000001	0.0775036533595994	18	diastole	11	B	500	diastole
323.8221000000001	0.0775036533595994	18	diastole	12	B	500	diastole
324.4021	0.0775036533595994	18	diastole	13	B	500	diastole
324.9538	0.0775036533595994	18	diastole	14	B	500	diastole
325.5638000000001	0.0775036533595994	18	diastole	15	B	500	diastole
327.8754000000001	0.0750000125262886	19	diastole	1	B	500	diastole
328.4854	0.0750000125262886	19	diastole	2	B	500	diastole
329.10530000000017	0.0750000125262886	19	diastole	3	B	500	diastole
329.7519	0.0750000125262886	19	diastole	4	B	500	diastole
330.3818000000001	0.0750000125262886	19	diastole	5	B	500	diastole
331.0020000000002	0.0750000125262886	19	diastole	6	B	500	diastole
331.63980000000015	0.0750000125262886	19	diastole	7	B	500	diastole
332.27840000000015	0.0750000125262886	19	diastole	8	B	500	diastole
332.90840000000003	0.0750000125262886	19	diastole	9	B	500	diastole
333.5283000000002	0.0750000125262886	19	diastole	10	B	500	diastole
334.11840000000007	0.0750000125262886	19	diastole	11	B	500	diastole
334.7085000000002	0.0750000125262886	19	diastole	12	B	500	diastole
335.29840000000013	0.0750000125262886	19	diastole	13	B	500	diastole
335.8885	0.0750000125262886	19	diastole	14	B	500	diastole
336.47850000000017	0.0750000125262886	19	diastole	15	B	500	diastole
337.0984000000001	0.0750000125262886	19	diastole	16	B	500	diastole
339.4086	0.0775017406849656	20	systole	1	B	500	systole
340.0187000000001	0.0775017406849656	20	systole	2	B	500	systole
340.6087	0.0775017406849656	20	systole	3	B	500	systole
341.19870000000014	0.0775017406849656	20	systole	4	B	500	systole
341.79870000000005	0.0775017406849656	20	systole	5	B	500	systole
342.39300000000003	0.0775017406849656	20	systole	6	B	500	systole
343.01300000000015	0.0775017406849656	20	systole	7	B	500	systole
343.6428000000001	0.0775017406849656	20	systole	8	B	500	systole
344.2629000000002	0.0775017406849656	20	systole	9	B	500	systole
344.88300000000004	0.0775017406849656	20	systole	10	B	500	systole
345.51880000000006	0.0775017406849656	20	systole	11	B	500	systole
346.15880000000016	0.0775017406849656	20	systole	12	B	500	systole
346.77880000000005	0.0775017406849656	20	systole	13	B	500	systole
347.38890000000015	0.0775017406849656	20	systole	14	B	500	systole
347.9891	0.0775017406849656	20	systole	15	B	500	systole
348.5892000000001	0.0775017406849656	20	systole	16	B	500	systole
349.17920000000004	0.0775017406849656	20	systole	17	B	500	systole
351.3933000000002	0.0743830062274355	21	systole	1	B	500	systole
351.94330000000014	0.0743830062274355	21	systole	2	B	500	systole
352.49170000000004	0.0743830062274355	21	systole	3	B	500	systole
353.02880000000005	0.0743830062274355	21	systole	4	B	500	systole
353.5987	0.0743830062274355	21	systole	5	B	500	systole
354.1685	0.0743830062274355	21	systole	6	B	500	systole
354.72860000000014	0.0743830062274355	21	systole	7	B	500	systole
355.28870000000006	0.0743830062274355	21	systole	8	B	500	systole
355.8489000000002	0.0743830062274355	21	systole	9	B	500	systole
356.4187000000002	0.0743830062274355	21	systole	10	B	500	systole
356.9888000000001	0.0743830062274355	21	systole	11	B	500	systole
357.5690000000002	0.0743830062274355	21	systole	12	B	500	systole
358.1645000000001	0.0743830062274355	21	systole	13	B	500	systole
358.8003000000001	0.0743830062274355	21	systole	14	B	500	systole
359.4294	0.0743830062274355	21	systole	15	B	500	systole
360.04100000000017	0.0743830062274355	21	systole	16	B	500	systole
360.6853000000001	0.0743830062274355	21	systole	17	B	500	systole
361.3053	0.0743830062274355	21	systole	18	B	500	systole
364.08010000000013	0.0787374440114945	22	systole	1	B	500	systole
364.7101	0.0787374440114945	22	systole	2	B	500	systole
365.3402000000001	0.0787374440114945	22	systole	3	B	500	systole
365.9702	0.0787374440114945	22	systole	4	B	500	systole
366.6102000000001	0.0787374440114945	22	systole	5	B	500	systole
367.2501	0.0787374440114945	22	systole	6	B	500	systole
367.8959	0.0787374440114945	22	systole	7	B	500	systole
368.51020000000017	0.0787374440114945	22	systole	8	B	500	systole
369.1301000000001	0.0787374440114945	22	systole	9	B	500	systole
369.7401	0.0787374440114945	22	systole	10	B	500	systole
370.35000000000014	0.0787374440114945	22	systole	11	B	500	systole
370.96000000000004	0.0787374440114945	22	systole	12	B	500	systole
371.58000000000015	0.0787374440114945	22	systole	13	B	500	systole
372.2101	0.0787374440114945	22	systole	14	B	500	systole
372.8502000000001	0.0787374440114945	22	systole	15	B	500	systole
373.4902000000002	0.0787374440114945	22	systole	16	B	500	systole
377.64520000000016	0.078761656244751	23	diastole	1	B	500	diastole
378.27520000000004	0.078761656244751	23	diastole	2	B	500	diastole
378.8668	0.078761656244751	23	diastole	3	B	500	diastole
379.46680000000015	0.078761656244751	23	diastole	4	B	500	diastole
380.06680000000006	0.078761656244751	23	diastole	5	B	500	diastole
380.69510000000014	0.078761656244751	23	diastole	6	B	500	diastole
381.32550000000015	0.078761656244751	23	diastole	7	B	500	diastole
381.9556	0.078761656244751	23	diastole	8	B	500	diastole
382.58550000000014	0.078761656244751	23	diastole	9	B	500	diastole
383.1856	0.078761656244751	23	diastole	10	B	500	diastole
383.7772	0.078761656244751	23	diastole	11	B	500	diastole
384.37710000000015	0.078761656244751	23	diastole	12	B	500	diastole
384.9488000000001	0.078761656244751	23	diastole	13	B	500	diastole
385.5156000000002	0.078761656244751	23	diastole	14	B	500	diastole
386.1156000000001	0.078761656244751	23	diastole	15	B	500	diastole
386.71569999999997	0.078761656244751	23	diastole	16	B	500	diastole
391.74850000000015	0.0775063687178772	24	diastole	1	B	500	diastole
392.3384000000001	0.0775063687178772	24	diastole	2	B	500	diastole
392.90840000000003	0.0775063687178772	24	diastole	3	B	500	diastole
393.4601	0.0775063687178772	24	diastole	4	B	500	diastole
394.0201000000002	0.0775063687178772	24	diastole	5	B	500	diastole
394.57320000000004	0.0775063687178772	24	diastole	6	B	500	diastole
395.1364000000001	0.0775063687178772	24	diastole	7	B	500	diastole
395.72810000000004	0.0775063687178772	24	diastole	8	B	500	diastole
396.3281000000002	0.0775063687178772	24	diastole	9	B	500	diastole
396.9284	0.0775063687178772	24	diastole	10	B	500	diastole
397.5285000000001	0.0775063687178772	24	diastole	11	B	500	diastole
398.16830000000004	0.0775063687178772	24	diastole	12	B	500	diastole
398.81690000000003	0.0775063687178772	24	diastole	13	B	500	diastole
399.4570000000001	0.0775063687178772	24	diastole	14	B	500	diastole
400.1152000000002	0.0775063687178772	24	diastole	15	B	500	diastole
400.75480000000016	0.0775063687178772	24	diastole	16	B	500	diastole
404.1236000000001	0.0730195000069215	25	diastole	1	B	500	systole
404.6831000000002	0.0730195000069215	25	diastole	2	B	500	systole
405.24260000000004	0.0730195000069215	25	diastole	3	B	500	systole
405.7841000000001	0.0730195000069215	25	diastole	4	B	500	systole
406.32410000000027	0.0730195000069215	25	diastole	5	B	500	systole
406.8642	0.0730195000069215	25	diastole	6	B	500	systole
407.40740000000005	0.0730195000069215	25	diastole	7	B	500	systole
407.96770000000015	0.0730195000069215	25	diastole	8	B	500	systole
408.5574999999999	0.0730195000069215	25	diastole	9	B	500	systole
409.15790000000015	0.0730195000069215	25	diastole	10	B	500	systole
409.75750000000016	0.0730195000069215	25	diastole	11	B	500	systole
410.36630000000014	0.0730195000069215	25	diastole	12	B	500	systole
410.9907000000003	0.0730195000069215	25	diastole	13	B	500	systole
411.5907000000002	0.0730195000069215	25	diastole	14	B	500	systole
412.19759999999997	0.0730195000069215	25	diastole	15	B	500	systole
412.78769999999986	0.0730195000069215	25	diastole	16	B	500	systole
413.36760000000004	0.0730195000069215	25	diastole	17	B	500	systole
416.0203999999999	0.0706488125142641	26	diastole	1	B	500	diastole
416.57040000000006	0.0706488125142641	26	diastole	2	B	500	diastole
417.1307999999999	0.0706488125142641	26	diastole	3	B	500	diastole
417.7102	0.0706488125142641	26	diastole	4	B	500	diastole
418.3002999999999	0.0706488125142641	26	diastole	5	B	500	diastole
418.8905	0.0706488125142641	26	diastole	6	B	500	diastole
419.5446999999999	0.0706488125142641	26	diastole	7	B	500	diastole
420.1743999999999	0.0706488125142641	26	diastole	8	B	500	diastole
420.895	0.0706488125142641	26	diastole	9	B	500	diastole
421.5999999999999	0.0706488125142641	26	diastole	10	B	500	diastole
422.27199999999993	0.0706488125142641	26	diastole	11	B	500	diastole
422.94460000000026	0.0706488125142641	26	diastole	12	B	500	diastole
423.62969999999996	0.0706488125142641	26	diastole	13	B	500	diastole
424.2996000000003	0.0706488125142641	26	diastole	14	B	500	diastole
424.9381000000003	0.0706488125142641	26	diastole	15	B	500	diastole
425.56780000000026	0.0706488125142641	26	diastole	16	B	500	diastole
431.39490000000023	0.0727481440990232	27	diastole	1	B	500	diastole
431.9848999999999	0.0727481440990232	27	diastole	2	B	500	diastole
432.5916000000002	0.0727481440990232	27	diastole	3	B	500	diastole
433.1984000000002	0.0727481440990232	27	diastole	4	B	500	diastole
433.8184000000001	0.0727481440990232	27	diastole	5	B	500	diastole
434.4384	0.0727481440990232	27	diastole	6	B	500	diastole
435.07659999999987	0.0727481440990232	27	diastole	7	B	500	diastole
435.7066	0.0727481440990232	27	diastole	8	B	500	diastole
436.31510000000026	0.0727481440990232	27	diastole	9	B	500	diastole
436.9151999999999	0.0727481440990232	27	diastole	10	B	500	diastole
437.5151000000001	0.0727481440990232	27	diastole	11	B	500	diastole
438.11349999999993	0.0727481440990232	27	diastole	12	B	500	diastole
438.71180000000004	0.0727481440990232	27	diastole	13	B	500	diastole
439.3018000000002	0.0727481440990232	27	diastole	14	B	500	diastole
439.8919000000001	0.0727481440990232	27	diastole	15	B	500	diastole
440.4817000000003	0.0727481440990232	27	diastole	16	B	500	diastole
445.337	0.0751511381822638	28	diastole	1	B	500	diastole
445.91740000000027	0.0751511381822638	28	diastole	2	B	500	diastole
446.4978000000001	0.0751511381822638	28	diastole	3	B	500	diastole
447.0662000000002	0.0751511381822638	28	diastole	4	B	500	diastole
447.64570000000003	0.0751511381822638	28	diastole	5	B	500	diastole
448.2171000000003	0.0751511381822638	28	diastole	6	B	500	diastole
448.7986000000001	0.0751511381822638	28	diastole	7	B	500	diastole
449.3987000000002	0.0751511381822638	28	diastole	8	B	500	diastole
450.0185999999999	0.0751511381822638	28	diastole	9	B	500	diastole
450.65869999999995	0.0751511381822638	28	diastole	10	B	500	diastole
451.2987000000003	0.0751511381822638	28	diastole	11	B	500	diastole
451.94860000000017	0.0751511381822638	28	diastole	12	B	500	diastole
452.5772000000002	0.0751511381822638	28	diastole	13	B	500	diastole
453.2321999999999	0.0751511381822638	28	diastole	14	B	500	diastole
453.86889999999994	0.0751511381822638	28	diastole	15	B	500	diastole
454.48900000000003	0.0751511381822638	28	diastole	16	B	500	diastole
459.86529999999993	0.0750062437728047	29	diastole	1	B	500	systole
460.4653000000003	0.0750062437728047	29	diastole	2	B	500	systole
461.0653000000002	0.0750062437728047	29	diastole	3	B	500	systole
461.6752999999999	0.0750062437728047	29	diastole	4	B	500	systole
462.2853	0.0750062437728047	29	diastole	5	B	500	systole
462.88509999999997	0.0750062437728047	29	diastole	6	B	500	systole
463.4952000000003	0.0750062437728047	29	diastole	7	B	500	systole
464.1152000000002	0.0750062437728047	29	diastole	8	B	500	systole
464.7352000000001	0.0750062437728047	29	diastole	9	B	500	systole
465.3616999999999	0.0750062437728047	29	diastole	10	B	500	systole
465.97180000000026	0.0750062437728047	29	diastole	11	B	500	systole
466.5437000000002	0.0750062437728047	29	diastole	12	B	500	systole
467.12350000000015	0.0750062437728047	29	diastole	13	B	500	systole
467.6851999999999	0.0750062437728047	29	diastole	14	B	500	systole
468.2670000000003	0.0750062437728047	29	diastole	15	B	500	systole
468.8769000000002	0.0750062437728047	29	diastole	16	B	500	systole
473.86140000000023	0.0769686523999553	30	diastole	1	B	500	systole
474.46140000000014	0.0769686523999553	30	diastole	2	B	500	systole
475.06140000000005	0.0769686523999553	30	diastole	3	B	500	systole
475.66139999999996	0.0769686523999553	30	diastole	4	B	500	systole
476.2415000000001	0.0769686523999553	30	diastole	5	B	500	systole
476.80060000000003	0.0769686523999553	30	diastole	6	B	500	systole
477.40059999999994	0.0769686523999553	30	diastole	7	B	500	systole
477.9922999999999	0.0769686523999553	30	diastole	8	B	500	systole
478.64350000000013	0.0769686523999553	30	diastole	9	B	500	systole
479.2935000000002	0.0769686523999553	30	diastole	10	B	500	systole
479.9336000000003	0.0769686523999553	30	diastole	11	B	500	systole
480.5736999999999	0.0769686523999553	30	diastole	12	B	500	systole
481.23199999999997	0.0769686523999553	30	diastole	13	B	500	systole
481.9052999999999	0.0769686523999553	30	diastole	14	B	500	systole
482.5466000000001	0.0769686523999553	30	diastole	15	B	500	systole
486.6642999999999	0.0787307604332454	31	systole	1	B	500	diastole
487.2742000000003	0.0787307604332454	31	systole	2	B	500	diastole
487.84860000000026	0.0787307604332454	31	systole	3	B	500	diastole
488.4286000000002	0.0787307604332454	31	systole	4	B	500	diastole
489.01839999999993	0.0787307604332454	31	systole	5	B	500	diastole
489.6024000000002	0.0787307604332454	31	systole	6	B	500	diastole
490.1923999999999	0.0787307604332454	31	systole	7	B	500	diastole
490.78250000000025	0.0787307604332454	31	systole	8	B	500	diastole
491.4106999999999	0.0787307604332454	31	systole	9	B	500	diastole
492.0308	0.0787307604332454	31	systole	10	B	500	diastole
492.6707000000001	0.0787307604332454	31	systole	11	B	500	diastole
493.2908000000002	0.0787307604332454	31	systole	12	B	500	diastole
493.9267	0.0787307604332454	31	systole	13	B	500	diastole
494.5482999999999	0.0787307604332454	31	systole	14	B	500	diastole
495.15830000000005	0.0787307604332454	31	systole	15	B	500	diastole
495.7682	0.0787307604332454	31	systole	16	B	500	diastole
502.40329999999994	0.0781244124809745	32	diastole	1	B	500	diastole
503.0331000000001	0.0781244124809745	32	diastole	2	B	500	diastole
503.663	0.0781244124809745	32	diastole	3	B	500	diastole
504.2629000000002	0.0781244124809745	32	diastole	4	B	500	diastole
504.8629000000001	0.0781244124809745	32	diastole	5	B	500	diastole
505.4629	0.0781244124809745	32	diastole	6	B	500	diastole
506.0327000000002	0.0781244124809745	32	diastole	7	B	500	diastole
506.6343999999999	0.0781244124809745	32	diastole	8	B	500	diastole
507.2296000000001	0.0781244124809745	32	diastole	9	B	500	diastole
507.8496	0.0781244124809745	32	diastole	10	B	500	diastole
508.46950000000015	0.0781244124809745	32	diastole	11	B	500	diastole
509.08950000000004	0.0781244124809745	32	diastole	12	B	500	diastole
509.7265000000002	0.0781244124809745	32	diastole	13	B	500	diastole
510.35660000000007	0.0781244124809745	32	diastole	14	B	500	diastole
510.9866999999999	0.0781244124809745	32	diastole	15	B	500	diastole
514.5319	0.0774952375213615	33	diastole	1	B	500	diastole
515.1118999999999	0.0774952375213615	33	diastole	2	B	500	diastole
515.6752000000001	0.0774952375213615	33	diastole	3	B	500	diastole
516.2570000000001	0.0774952375213615	33	diastole	4	B	500	diastole
516.8471	0.0774952375213615	33	diastole	5	B	500	diastole
517.4371000000001	0.0774952375213615	33	diastole	6	B	500	diastole
518.0187000000001	0.0774952375213615	33	diastole	7	B	500	diastole
518.6087000000002	0.0774952375213615	33	diastole	8	B	500	diastole
519.1986000000002	0.0774952375213615	33	diastole	9	B	500	diastole
519.7885999999999	0.0774952375213615	33	diastole	10	B	500	diastole
520.3504000000003	0.0774952375213615	33	diastole	11	B	500	diastole
520.9250000000002	0.0774952375213615	33	diastole	12	B	500	diastole
521.4949999999999	0.0774952375213615	33	diastole	13	B	500	diastole
522.065	0.0774952375213615	33	diastole	14	B	500	diastole
522.6351	0.0774952375213615	33	diastole	15	B	500	diastole
523.2150999999999	0.0774952375213615	33	diastole	16	B	500	diastole
523.7951000000003	0.0774952375213615	33	diastole	17	B	500	diastole
527.3485000000001	0.0737455063208472	34	diastole	1	B	500	systole
527.9184	0.0737455063208472	34	diastole	2	B	500	systole
528.4883	0.0737455063208472	34	diastole	3	B	500	systole
529.0583999999999	0.0737455063208472	34	diastole	4	B	500	systole
529.6300000000001	0.0737455063208472	34	diastole	5	B	500	systole
530.2201	0.0737455063208472	34	diastole	6	B	500	systole
530.8204000000001	0.0737455063208472	34	diastole	7	B	500	systole
531.4702000000002	0.0737455063208472	34	diastole	8	B	500	systole
532.1005	0.0737455063208472	34	diastole	9	B	500	systole
532.7305000000001	0.0737455063208472	34	diastole	10	B	500	systole
533.4021000000002	0.0737455063208472	34	diastole	11	B	500	systole
534.0387000000001	0.0737455063208472	34	diastole	12	B	500	systole
534.6587	0.0737455063208472	34	diastole	13	B	500	systole
535.2786000000001	0.0737455063208472	34	diastole	14	B	500	systole
535.8985000000002	0.0737455063208472	34	diastole	15	B	500	systole
540.5227	0.0774901064578443	35	systole	1	B	500	systole
541.1168000000002	0.0774901064578443	35	systole	2	B	500	systole
541.7168000000001	0.0774901064578443	35	systole	3	B	500	systole
542.2852000000003	0.0774901064578443	35	systole	4	B	500	systole
542.8749000000003	0.0774901064578443	35	systole	5	B	500	systole
543.4646000000002	0.0774901064578443	35	systole	6	B	500	systole
544.0450000000001	0.0774901064578443	35	systole	7	B	500	systole
544.6231000000002	0.0774901064578443	35	systole	8	B	500	systole
545.2130999999999	0.0774901064578443	35	systole	9	B	500	systole
545.8132	0.0774901064578443	35	systole	10	B	500	systole
546.4133999999999	0.0774901064578443	35	systole	11	B	500	systole
547.0230999999999	0.0774901064578443	35	systole	12	B	500	systole
547.6596	0.0774901064578443	35	systole	13	B	500	systole
548.3054999999999	0.0774901064578443	35	systole	14	B	500	systole
548.9454000000001	0.0774901064578443	35	systole	15	B	500	systole
549.6368000000002	0.0774901064578443	35	systole	16	B	500	systole
553.3081999999999	0.0812370874918997	36	diastole	1	B	500	systole
553.9282000000003	0.0812370874918997	36	diastole	2	B	500	systole
554.5482000000002	0.0812370874918997	36	diastole	3	B	500	systole
555.1682000000001	0.0812370874918997	36	diastole	4	B	500	systole
555.7783	0.0812370874918997	36	diastole	5	B	500	systole
556.3899999999999	0.0812370874918997	36	diastole	6	B	500	systole
556.9650999999999	0.0812370874918997	36	diastole	7	B	500	systole
557.5482999999999	0.0812370874918997	36	diastole	8	B	500	systole
558.1482000000001	0.0812370874918997	36	diastole	9	B	500	systole
558.7201	0.0812370874918997	36	diastole	10	B	500	systole
559.2917000000002	0.0812370874918997	36	diastole	11	B	500	systole
559.8435	0.0812370874918997	36	diastole	12	B	500	systole
560.4450000000002	0.0812370874918997	36	diastole	13	B	500	systole
561.087	0.0812370874918997	36	diastole	14	B	500	systole
561.7950000000001	0.0812370874918997	36	diastole	15	B	500	systole
566.2570000000001	0.0837652880873065	37	systole	1	B	500	diastole
566.8969000000002	0.0837652880873065	37	systole	2	B	500	diastole
567.4970000000003	0.0837652880873065	37	systole	3	B	500	diastole
568.0969	0.0837652880873065	37	systole	4	B	500	diastole
568.6534000000001	0.0837652880873065	37	systole	5	B	500	diastole
569.1685000000002	0.0837652880873065	37	systole	6	B	500	diastole
569.7150999999999	0.0837652880873065	37	systole	7	B	500	diastole
570.2849000000001	0.0837652880873065	37	systole	8	B	500	diastole
570.8474000000001	0.0837652880873065	37	systole	9	B	500	diastole
571.4375	0.0837652880873065	37	systole	10	B	500	diastole
572.0574000000001	0.0837652880873065	37	systole	11	B	500	diastole
572.6775000000002	0.0837652880873065	37	systole	12	B	500	diastole
573.2975999999999	0.0837652880873065	37	systole	13	B	500	diastole
573.9078	0.0837652880873065	37	systole	14	B	500	diastole
574.5178000000001	0.0837652880873065	37	systole	15	B	500	diastole
575.1295	0.0837652880873065	37	systole	16	B	500	diastole
579.567	0.0756191812397446	38	diastole	1	B	500	diastole
580.1485000000002	0.0756191812397446	38	diastole	2	B	500	diastole
580.7383	0.0756191812397446	38	diastole	3	B	500	diastole
581.3281000000002	0.0756191812397446	38	diastole	4	B	500	diastole
581.9279999999999	0.0756191812397446	38	diastole	5	B	500	diastole
582.5084999999999	0.0756191812397446	38	diastole	6	B	500	diastole
583.1266	0.0756191812397446	38	diastole	7	B	500	diastole
583.7525	0.0756191812397446	38	diastole	8	B	500	diastole
584.3534	0.0756191812397446	38	diastole	9	B	500	diastole
584.9538000000002	0.0756191812397446	38	diastole	10	B	500	diastole
585.5543000000002	0.0756191812397446	38	diastole	11	B	500	diastole
586.1547	0.0756191812397446	38	diastole	12	B	500	diastole
586.7552000000001	0.0756191812397446	38	diastole	13	B	500	diastole
587.3555999999999	0.0756191812397446	38	diastole	14	B	500	diastole
587.8752	0.0756191812397446	38	diastole	15	B	500	diastole
588.4452000000001	0.0756191812397446	38	diastole	16	B	500	diastole
589.0152000000003	0.0756191812397446	38	diastole	17	B	500	diastole
591.7437	0.0718758312577847	39	diastole	1	B	500	diastole
592.3139000000001	0.0718758312577847	39	diastole	2	B	500	diastole
592.8760000000002	0.0718758312577847	39	diastole	3	B	500	diastole
593.4259999999999	0.0718758312577847	39	diastole	4	B	500	diastole
593.9755	0.0718758312577847	39	diastole	5	B	500	diastole
594.5255000000002	0.0718758312577847	39	diastole	6	B	500	diastole
595.0754000000002	0.0718758312577847	39	diastole	7	B	500	diastole
595.6266	0.0718758312577847	39	diastole	8	B	500	diastole
596.1683000000003	0.0718758312577847	39	diastole	9	B	500	diastole
596.7583	0.0718758312577847	39	diastole	10	B	500	diastole
597.3681999999999	0.0718758312577847	39	diastole	11	B	500	diastole
598.0065	0.0718758312577847	39	diastole	12	B	500	diastole
598.6732999999999	0.0718758312577847	39	diastole	13	B	500	diastole
599.3234000000002	0.0718758312577847	39	diastole	14	B	500	diastole
600.0237000000002	0.0718758312577847	39	diastole	15	B	500	diastole
600.7183	0.0718758312577847	39	diastole	16	B	500	diastole
601.3881999999999	0.0718758312577847	39	diastole	17	B	500	diastole
605.5034	0.0812460528686642	40	systole	1	B	500	systole
606.0718000000002	0.0812460528686642	40	systole	2	B	500	systole
606.6518000000001	0.0812460528686642	40	systole	3	B	500	systole
607.2242999999999	0.0812460528686642	40	systole	4	B	500	systole
607.9142999999999	0.0812460528686642	40	systole	5	B	500	systole
608.6058000000003	0.0812460528686642	40	systole	6	B	500	systole
609.2959000000001	0.0812460528686642	40	systole	7	B	500	systole
609.9859000000001	0.0812460528686642	40	systole	8	B	500	systole
610.6459	0.0812460528686642	40	systole	9	B	500	systole
611.3292999999999	0.0812460528686642	40	systole	10	B	500	systole
611.9893000000002	0.0812460528686642	40	systole	11	B	500	systole
612.6551	0.0812460528686642	40	systole	12	B	500	systole
613.3351000000002	0.0812460528686642	40	systole	13	B	500	systole
613.9751999999999	0.0812460528686642	40	systole	14	B	500	systole
614.6152000000002	0.0812460528686642	40	systole	15	B	500	systole
621.0637000000002	0.0743768020474817	41	systole	1	B	500	systole
621.6851999999999	0.0743768020474817	41	systole	2	B	500	systole
622.2950000000001	0.0743768020474817	41	systole	3	B	500	systole
622.9049	0.0743768020474817	41	systole	4	B	500	systole
623.5107000000003	0.0743768020474817	41	systole	5	B	500	systole
624.0950000000003	0.0743768020474817	41	systole	6	B	500	systole
624.6851000000001	0.0743768020474817	41	systole	7	B	500	systole
625.2849000000001	0.0743768020474817	41	systole	8	B	500	systole
625.8648000000003	0.0743768020474817	41	systole	9	B	500	systole
626.4290000000001	0.0743768020474817	41	systole	10	B	500	systole
626.9989	0.0743768020474817	41	systole	11	B	500	systole
627.5688	0.0743768020474817	41	systole	12	B	500	systole
628.1172000000001	0.0743768020474817	41	systole	13	B	500	systole
628.6597000000002	0.0743768020474817	41	systole	14	B	500	systole
629.2198000000003	0.0743768020474817	41	systole	15	B	500	systole
629.7797	0.0743768020474817	41	systole	16	B	500	systole
634.1615000000002	0.072483768890379	42	diastole	1	B	500	systole
634.7316000000001	0.072483768890379	42	diastole	2	B	500	systole
635.3016000000002	0.072483768890379	42	diastole	3	B	500	systole
635.8620000000001	0.072483768890379	42	diastole	4	B	500	systole
636.4320000000002	0.072483768890379	42	diastole	5	B	500	systole
637.0019000000002	0.072483768890379	42	diastole	6	B	500	systole
637.5437999999999	0.072483768890379	42	diastole	7	B	500	systole
638.0853999999999	0.072483768890379	42	diastole	8	B	500	systole
638.6273000000001	0.072483768890379	42	diastole	9	B	500	systole
639.1804999999999	0.072483768890379	42	diastole	10	B	500	systole
639.7503000000002	0.072483768890379	42	diastole	11	B	500	systole
640.3803000000003	0.072483768890379	42	diastole	12	B	500	systole
641.0681	0.072483768890379	42	diastole	13	B	500	systole
641.7381	0.072483768890379	42	diastole	14	B	500	systole
642.4649	0.072483768890379	42	diastole	15	B	500	systole
643.125	0.072483768890379	42	diastole	16	B	500	systole
646.8510999999999	0.0831344022590201	43	systole	1	B	500	diastole
647.4351999999999	0.0831344022590201	43	systole	2	B	500	diastole
648.0192999999999	0.0831344022590201	43	systole	3	B	500	diastole
648.5759000000003	0.0831344022590201	43	systole	4	B	500	diastole
649.1468	0.0831344022590201	43	systole	5	B	500	diastole
649.7470000000003	0.0831344022590201	43	systole	6	B	500	diastole
650.377	0.0831344022590201	43	systole	7	B	500	diastole
651.0071000000003	0.0831344022590201	43	systole	8	B	500	diastole
651.6372999999999	0.0831344022590201	43	systole	9	B	500	diastole
652.2676000000001	0.0831344022590201	43	systole	10	B	500	diastole
652.9333999999999	0.0831344022590201	43	systole	11	B	500	diastole
653.6006000000002	0.0831344022590201	43	systole	12	B	500	diastole
654.2502	0.0831344022590201	43	systole	13	B	500	diastole
654.944	0.0831344022590201	43	systole	14	B	500	diastole
655.6457	0.0831344022590201	43	systole	15	B	500	diastole
656.3360000000002	0.0831344022590201	43	systole	16	B	500	diastole
659.8539000000001	0.0853898396890144	44	systole	1	B	500	diastole
660.5059000000001	0.0853898396890144	44	systole	2	B	500	diastole
661.1055999999999	0.0853898396890144	44	systole	3	B	500	diastole
661.7103999999999	0.0853898396890144	44	systole	4	B	500	diastole
662.3204000000001	0.0853898396890144	44	systole	5	B	500	diastole
662.9097999999999	0.0853898396890144	44	systole	6	B	500	diastole
663.4856	0.0853898396890144	44	systole	7	B	500	diastole
664.0610000000001	0.0853898396890144	44	systole	8	B	500	diastole
664.6608999999999	0.0853898396890144	44	systole	9	B	500	diastole
665.2802000000001	0.0853898396890144	44	systole	10	B	500	diastole
665.9102000000003	0.0853898396890144	44	systole	11	B	500	diastole
666.5502000000001	0.0853898396890144	44	systole	12	B	500	diastole
667.1901000000003	0.0853898396890144	44	systole	13	B	500	diastole
667.8517999999999	0.0853898396890144	44	systole	14	B	500	diastole
668.4519	0.0853898396890144	44	systole	15	B	500	diastole
669.0518000000002	0.0853898396890144	44	systole	16	B	500	diastole
672.8000000000002	0.0744742926035542	45	diastole	1	B	500	systole
673.3699999999999	0.0744742926035542	45	diastole	2	B	500	systole
673.9286999999999	0.0744742926035542	45	diastole	3	B	500	systole
674.4874	0.0744742926035542	45	diastole	4	B	500	systole
675.0473000000002	0.0744742926035542	45	diastole	5	B	500	systole
675.5990000000002	0.0744742926035542	45	diastole	6	B	500	systole
676.1536000000001	0.0744742926035542	45	diastole	7	B	500	systole
676.7436000000002	0.0744742926035542	45	diastole	8	B	500	systole
677.3535999999999	0.0744742926035542	45	diastole	9	B	500	systole
677.9536000000003	0.0744742926035542	45	diastole	10	B	500	systole
678.5436	0.0744742926035542	45	diastole	11	B	500	systole
679.1617999999999	0.0744742926035542	45	diastole	12	B	500	systole
679.7986000000001	0.0744742926035542	45	diastole	13	B	500	systole
680.4569999999999	0.0744742926035542	45	diastole	14	B	500	systole
681.1334999999999	0.0744742926035542	45	diastole	15	B	500	systole
681.8118	0.0744742926035542	45	diastole	16	B	500	systole
687.2685999999999	0.081272268173052	46	diastole	1	B	500	systole
687.8885	0.081272268173052	46	diastole	2	B	500	systole
688.5084000000002	0.081272268173052	46	diastole	3	B	500	systole
689.1284	0.081272268173052	46	diastole	4	B	500	systole
689.7484	0.081272268173052	46	diastole	5	B	500	systole
690.3435	0.081272268173052	46	diastole	6	B	500	systole
690.9835000000003	0.081272268173052	46	diastole	7	B	500	systole
691.5869000000002	0.081272268173052	46	diastole	8	B	500	systole
692.1988000000001	0.081272268173052	46	diastole	9	B	500	systole
692.8488000000002	0.081272268173052	46	diastole	10	B	500	systole
693.4988000000003	0.081272268173052	46	diastole	11	B	500	systole
694.1671000000001	0.081272268173052	46	diastole	12	B	500	systole
694.8270000000002	0.081272268173052	46	diastole	13	B	500	systole
695.5335	0.081272268173052	46	diastole	14	B	500	systole
696.1902	0.081272268173052	46	diastole	15	B	500	systole
698.9018000000001	0.080629899923224	47	systole	1	B	500	systole
699.4718000000003	0.080629899923224	47	systole	2	B	500	systole
700.0142000000001	0.080629899923224	47	systole	3	B	500	systole
700.5291000000002	0.080629899923224	47	systole	4	B	500	systole
701.0657000000001	0.080629899923224	47	systole	5	B	500	systole
701.6759000000002	0.080629899923224	47	systole	6	B	500	systole
702.2861000000003	0.080629899923224	47	systole	7	B	500	systole
702.9360000000001	0.080629899923224	47	systole	8	B	500	systole
703.5761000000002	0.080629899923224	47	systole	9	B	500	systole
704.2162000000003	0.080629899923224	47	systole	10	B	500	systole
704.8838000000001	0.080629899923224	47	systole	11	B	500	systole
705.5337	0.080629899923224	47	systole	12	B	500	systole
706.2260000000001	0.080629899923224	47	systole	13	B	500	systole
706.8261000000002	0.080629899923224	47	systole	14	B	500	systole
707.4261000000001	0.080629899923224	47	systole	15	B	500	systole
708.0262000000002	0.080629899923224	47	systole	16	B	500	systole
708.6262000000002	0.080629899923224	47	systole	17	B	500	systole
711.3459000000003	0.0731145125755574	48	systole	1	B	500	systole
711.9104000000002	0.0731145125755574	48	systole	2	B	500	systole
712.4700000000003	0.0731145125755574	48	systole	3	B	500	systole
713.0297	0.0731145125755574	48	systole	4	B	500	systole
713.6197000000002	0.0731145125755574	48	systole	5	B	500	systole
714.2217	0.0731145125755574	48	systole	6	B	500	systole
714.8798000000002	0.0731145125755574	48	systole	7	B	500	systole
715.5716000000002	0.0731145125755574	48	systole	8	B	500	systole
716.2601	0.0731145125755574	48	systole	9	B	500	systole
716.9300000000003	0.0731145125755574	48	systole	10	B	500	systole
717.6181000000001	0.0731145125755574	48	systole	11	B	500	systole
718.2774	0.0731145125755574	48	systole	12	B	500	systole
718.9348	0.0731145125755574	48	systole	13	B	500	systole
719.5744	0.0731145125755574	48	systole	14	B	500	systole
720.1943999999999	0.0731145125755574	48	systole	15	B	500	systole
720.8045000000002	0.0731145125755574	48	systole	16	B	500	systole
723.085	0.0768773597665131	49	systole	1	B	500	diastole
723.6280999999999	0.0768773597665131	49	systole	2	B	500	diastole
724.1884	0.0768773597665131	49	systole	3	B	500	diastole
724.7622999999999	0.0768773597665131	49	systole	4	B	500	diastole
725.3523	0.0768773597665131	49	systole	5	B	500	diastole
725.9321	0.0768773597665131	49	systole	6	B	500	diastole
726.5221000000001	0.0768773597665131	49	systole	7	B	500	diastole
727.1121000000003	0.0768773597665131	49	systole	8	B	500	diastole
727.7181	0.0768773597665131	49	systole	9	B	500	diastole
728.3339000000001	0.0768773597665131	49	systole	10	B	500	diastole
728.9339	0.0768773597665131	49	systole	11	B	500	diastole
729.5340000000001	0.0768773597665131	49	systole	12	B	500	diastole
730.1239	0.0768773597665131	49	systole	13	B	500	diastole
730.7039	0.0768773597665131	49	systole	14	B	500	diastole
731.2838000000002	0.0768773597665131	49	systole	15	B	500	diastole
731.8738000000003	0.0768773597665131	49	systole	16	B	500	diastole
732.4639000000002	0.0768773597665131	49	systole	17	B	500	diastole
733.0798	0.0768773597665131	49	systole	18	B	500	diastole
736.8267000000001	0.0762433625059202	50	systole	1	B	500	systole
737.4267	0.0762433625059202	50	systole	2	B	500	systole
738.0068000000001	0.0762433625059202	50	systole	3	B	500	systole
738.5768000000003	0.0762433625059202	50	systole	4	B	500	systole
739.1510000000003	0.0762433625059202	50	systole	5	B	500	systole
739.7309	0.0762433625059202	50	systole	6	B	500	systole
740.3393000000001	0.0762433625059202	50	systole	7	B	500	systole
740.9693000000002	0.0762433625059202	50	systole	8	B	500	systole
741.5992999999999	0.0762433625059202	50	systole	9	B	500	systole
742.2292000000002	0.0762433625059202	50	systole	10	B	500	systole
742.8591000000001	0.0762433625059202	50	systole	11	B	500	systole
743.489	0.0762433625059202	50	systole	12	B	500	systole
744.1381000000001	0.0762433625059202	50	systole	13	B	500	systole
744.7737999999999	0.0762433625059202	50	systole	14	B	500	systole
745.4095000000002	0.0762433625059202	50	systole	15	B	500	systole
746.0296000000003	0.0762433625059202	50	systole	16	B	500	systole
746.6496999999999	0.0762433625059202	50	systole	17	B	500	systole
749.3184000000001	0.0775064725603442	51	diastole	1	B	500	systole
749.9001000000003	0.0775064725603442	51	diastole	2	B	500	systole
750.4901	0.0775064725603442	51	diastole	3	B	500	systole
751.0801000000001	0.0775064725603442	51	diastole	4	B	500	systole
751.6451000000002	0.0775064725603442	51	diastole	5	B	500	systole
752.2751000000003	0.0775064725603442	51	diastole	6	B	500	systole
752.9050000000002	0.0775064725603442	51	diastole	7	B	500	systole
753.5451000000003	0.0775064725603442	51	diastole	8	B	500	systole
754.1750999999999	0.0775064725603442	51	diastole	9	B	500	systole
754.8435	0.0775064725603442	51	diastole	10	B	500	systole
755.5484000000001	0.0775064725603442	51	diastole	11	B	500	systole
756.2350999999999	0.0775064725603442	51	diastole	12	B	500	systole
756.9386	0.0775064725603442	51	diastole	13	B	500	systole
757.5787	0.0775064725603442	51	diastole	14	B	500	systole
758.2188000000001	0.0775064725603442	51	diastole	15	B	500	systole
758.8487	0.0775064725603442	51	diastole	16	B	500	systole
762.2619	0.0743824456585571	52	diastole	1	B	500	diastole
762.8418999999999	0.0743824456585571	52	diastole	2	B	500	diastole
763.422	0.0743824456585571	52	diastole	3	B	500	diastole
764.0219999999999	0.0743824456585571	52	diastole	4	B	500	diastole
764.6619000000001	0.0743824456585571	52	diastole	5	B	500	diastole
765.3418999999999	0.0743824456585571	52	diastole	6	B	500	diastole
766.0217000000002	0.0743824456585571	52	diastole	7	B	500	diastole
766.7383	0.0743824456585571	52	diastole	8	B	500	diastole
767.3884000000003	0.0743824456585571	52	diastole	9	B	500	diastole
768.0999000000002	0.0743824456585571	52	diastole	10	B	500	diastole
768.7685000000001	0.0743824456585571	52	diastole	11	B	500	diastole
769.4286000000002	0.0743824456585571	52	diastole	12	B	500	diastole
770.0887000000002	0.0743824456585571	52	diastole	13	B	500	diastole
770.7170000000001	0.0743824456585571	52	diastole	14	B	500	diastole
771.3270000000002	0.0743824456585571	52	diastole	15	B	500	diastole
777.7084	0.0774874258495401	53	systole	1	B	500	systole
778.3182999999999	0.0774874258495401	53	systole	2	B	500	systole
778.9083	0.0774874258495401	53	systole	3	B	500	systole
779.4983000000002	0.0774874258495401	53	systole	4	B	500	systole
780.0726	0.0774874258495401	53	systole	5	B	500	systole
780.6509000000001	0.0774874258495401	53	systole	6	B	500	systole
781.2319000000002	0.0774874258495401	53	systole	7	B	500	systole
781.8236000000002	0.0774874258495401	53	systole	8	B	500	systole
782.3960999999999	0.0774874258495401	53	systole	9	B	500	systole
782.9952000000003	0.0774874258495401	53	systole	10	B	500	systole
783.5951	0.0774874258495401	53	systole	11	B	500	systole
784.185	0.0774874258495401	53	systole	12	B	500	systole
784.7651000000001	0.0774874258495401	53	systole	13	B	500	systole
785.3450000000003	0.0774874258495401	53	systole	14	B	500	systole
785.9249	0.0774874258495401	53	systole	15	B	500	systole
786.5248000000001	0.0774874258495401	53	systole	16	B	500	systole
787.1150000000002	0.0774874258495401	53	systole	17	B	500	systole
795.7485000000001	0.078125687490683	54	diastole	1	B	500	systole
796.3501999999999	0.078125687490683	54	diastole	2	B	500	systole
796.9585000000002	0.078125687490683	54	diastole	3	B	500	systole
797.5684999999999	0.078125687490683	54	diastole	4	B	500	systole
798.1785	0.078125687490683	54	diastole	5	B	500	systole
798.7885000000001	0.078125687490683	54	diastole	6	B	500	systole
799.3985000000002	0.078125687490683	54	diastole	7	B	500	systole
800.0286000000001	0.078125687490683	54	diastole	8	B	500	systole
800.6484	0.078125687490683	54	diastole	9	B	500	systole
801.2402000000002	0.078125687490683	54	diastole	10	B	500	systole
801.8403000000003	0.078125687490683	54	diastole	11	B	500	systole
802.4403000000002	0.078125687490683	54	diastole	12	B	500	systole
803.0320999999999	0.078125687490683	54	diastole	13	B	500	systole
803.6321000000003	0.078125687490683	54	diastole	14	B	500	systole
804.2137000000002	0.078125687490683	54	diastole	15	B	500	systole
804.8036999999999	0.078125687490683	54	diastole	16	B	500	systole
807.9933000000001	0.0737436437630094	55	systole	1	B	500	systole
808.5832	0.0737436437630094	55	systole	2	B	500	systole
809.1731	0.0737436437630094	55	systole	3	B	500	systole
809.7275	0.0737436437630094	55	systole	4	B	500	systole
810.2916	0.0737436437630094	55	systole	5	B	500	systole
810.8417	0.0737436437630094	55	systole	6	B	500	systole
811.3859000000002	0.0737436437630094	55	systole	7	B	500	systole
811.94	0.0737436437630094	55	systole	8	B	500	systole
812.4999000000003	0.0737436437630094	55	systole	9	B	500	systole
813.0641	0.0737436437630094	55	systole	10	B	500	systole
813.6082000000001	0.0737436437630094	55	systole	11	B	500	systole
814.1581000000001	0.0737436437630094	55	systole	12	B	500	systole
814.7024000000001	0.0737436437630094	55	systole	13	B	500	systole
815.2466	0.0737436437630094	55	systole	14	B	500	systole
815.7966999999999	0.0737436437630094	55	systole	15	B	500	systole
816.3466000000003	0.0737436437630094	55	systole	16	B	500	systole
816.8966	0.0737436437630094	55	systole	17	B	500	systole
817.4665	0.0737436437630094	55	systole	18	B	500	systole
819.8360000000002	0.0712519814260304	56	systole	1	B	500	diastole
820.4160999999999	0.0712519814260304	56	systole	2	B	500	diastole
820.9962	0.0712519814260304	56	systole	3	B	500	diastole
821.5720000000001	0.0712519814260304	56	systole	4	B	500	diastole
822.1420000000003	0.0712519814260304	56	systole	5	B	500	diastole
822.7121000000002	0.0712519814260304	56	systole	6	B	500	diastole
823.3121000000001	0.0712519814260304	56	systole	7	B	500	diastole
823.9123	0.0712519814260304	56	systole	8	B	500	diastole
824.5124000000001	0.0712519814260304	56	systole	9	B	500	diastole
825.1682000000001	0.0712519814260304	56	systole	10	B	500	diastole
825.8555000000001	0.0712519814260304	56	systole	11	B	500	diastole
826.5549000000001	0.0712519814260304	56	systole	12	B	500	diastole
827.2249000000002	0.0712519814260304	56	systole	13	B	500	diastole
827.9041000000002	0.0712519814260304	56	systole	14	B	500	diastole
828.5541000000003	0.0712519814260304	56	systole	15	B	500	diastole
829.1841	0.0712519814260304	56	systole	16	B	500	diastole
835.4368	0.0837563439272344	57	systole	1	B	500	systole
836.0868	0.0837563439272344	57	systole	2	B	500	systole
836.7366999999999	0.0837563439272344	57	systole	3	B	500	systole
837.3567000000003	0.0837563439272344	57	systole	4	B	500	systole
837.951	0.0837563439272344	57	systole	5	B	500	systole
838.5218	0.0837563439272344	57	systole	6	B	500	systole
839.1217000000001	0.0837563439272344	57	systole	7	B	500	systole
839.7042000000001	0.0837563439272344	57	systole	8	B	500	systole
840.2766000000001	0.0837563439272344	57	systole	9	B	500	systole
840.8665000000001	0.0837563439272344	57	systole	10	B	500	systole
841.4565000000002	0.0837563439272344	57	systole	11	B	500	systole
842.0448000000001	0.0837563439272344	57	systole	12	B	500	systole
842.6749	0.0837563439272344	57	systole	13	B	500	systole
843.3348000000001	0.0837563439272344	57	systole	14	B	500	systole
844.0048999999999	0.0837563439272344	57	systole	15	B	500	systole
844.7148000000002	0.0837563439272344	57	systole	16	B	500	systole
845.4124000000002	0.0837563439272344	57	systole	17	B	500	systole
849.8364000000001	0.0806101624912116	58	systole	1	B	500	diastole
850.4182000000001	0.0806101624912116	58	systole	2	B	500	diastole
851.0176999999999	0.0806101624912116	58	systole	3	B	500	diastole
851.6480999999999	0.0806101624912116	58	systole	4	B	500	diastole
852.2982999999999	0.0806101624912116	58	systole	5	B	500	diastole
852.9486000000002	0.0806101624912116	58	systole	6	B	500	diastole
853.5619999999999	0.0806101624912116	58	systole	7	B	500	diastole
854.1817000000001	0.0806101624912116	58	systole	8	B	500	diastole
854.8013000000001	0.0806101624912116	58	systole	9	B	500	diastole
855.4073000000003	0.0806101624912116	58	systole	10	B	500	diastole
855.9874	0.0806101624912116	58	systole	11	B	500	diastole
856.5675000000001	0.0806101624912116	58	systole	12	B	500	diastole
857.1575000000003	0.0806101624912116	58	systole	13	B	500	diastole
857.7147	0.0806101624912116	58	systole	14	B	500	diastole
858.2948999999999	0.0806101624912116	58	systole	15	B	500	diastole
858.8591000000001	0.0806101624912116	58	systole	16	B	500	diastole
859.4072000000001	0.0806101624912116	58	systole	17	B	500	diastole
863.5451000000003	0.0725405225821305	59	systole	1	B	500	systole
864.1351	0.0725405225821305	59	systole	2	B	500	systole
864.7135000000003	0.0725405225821305	59	systole	3	B	500	systole
865.3137999999999	0.0725405225821305	59	systole	4	B	500	systole
865.9016999999999	0.0725405225821305	59	systole	5	B	500	systole
866.4837000000002	0.0725405225821305	59	systole	6	B	500	systole
867.0736999999999	0.0725405225821305	59	systole	7	B	500	systole
867.6637000000001	0.0725405225821305	59	systole	8	B	500	systole
868.2538	0.0725405225821305	59	systole	9	B	500	systole
868.8180000000002	0.0725405225821305	59	systole	10	B	500	systole
869.3879000000002	0.0725405225821305	59	systole	11	B	500	systole
869.9578000000001	0.0725405225821305	59	systole	12	B	500	systole
870.5138999999999	0.0725405225821305	59	systole	13	B	500	systole
871.1078000000002	0.0725405225821305	59	systole	14	B	500	systole
871.7294999999999	0.0725405225821305	59	systole	15	B	500	systole
872.4214999999999	0.0725405225821305	59	systole	16	B	500	systole
873.1444999999999	0.0725405225821305	59	systole	17	B	500	systole
876.8654000000001	0.0857343366660643	60	systole	1	B	500	systole
877.4654	0.0857343366660643	60	systole	2	B	500	systole
878.0654	0.0857343366660643	60	systole	3	B	500	systole
878.6653999999999	0.0857343366660643	60	systole	4	B	500	systole
879.2653	0.0857343366660643	60	systole	5	B	500	systole
879.8310000000001	0.0857343366660643	60	systole	6	B	500	systole
880.4001000000003	0.0857343366660643	60	systole	7	B	500	systole
881.0185999999999	0.0857343366660643	60	systole	8	B	500	systole
881.6786000000002	0.0857343366660643	60	systole	9	B	500	systole
882.3387000000002	0.0857343366660643	60	systole	10	B	500	systole
882.9886000000001	0.0857343366660643	60	systole	11	B	500	systole
883.6145000000001	0.0857343366660643	60	systole	12	B	500	systole
884.2343000000001	0.0857343366660643	60	systole	13	B	500	systole
884.8542000000002	0.0857343366660643	60	systole	14	B	500	systole
885.4542999999999	0.0857343366660643	60	systole	15	B	500	systole
886.0643	0.0857343366660643	60	systole	16	B	500	systole
890.4684000000002	0.0774942581483628	61	systole	1	B	500	systole
891.1082999999999	0.0774942581483628	61	systole	2	B	500	systole
891.7662	0.0774942581483628	61	systole	3	B	500	systole
892.4321	0.0774942581483628	61	systole	4	B	500	systole
893.0921000000003	0.0774942581483628	61	systole	5	B	500	systole
893.7527	0.0774942581483628	61	systole	6	B	500	systole
894.3824	0.0774942581483628	61	systole	7	B	500	systole
895.0122000000001	0.0774942581483628	61	systole	8	B	500	systole
895.6421	0.0774942581483628	61	systole	9	B	500	systole
896.2719999999999	0.0774942581483628	61	systole	10	B	500	systole
896.8861000000002	0.0774942581483628	61	systole	11	B	500	systole
897.5061000000001	0.0774942581483628	61	systole	12	B	500	systole
898.1111000000001	0.0774942581483628	61	systole	13	B	500	systole
898.7155000000002	0.0774942581483628	61	systole	14	B	500	systole
899.3197	0.0774942581483628	61	systole	15	B	500	systole
905.808	0.0774731562414672	62	diastole	1	B	500	diastole
906.4079000000002	0.0774731562414672	62	diastole	2	B	500	diastole
907.0077000000001	0.0774731562414672	62	diastole	3	B	500	diastole
907.5981000000002	0.0774731562414672	62	diastole	4	B	500	diastole
908.1799000000001	0.0774731562414672	62	diastole	5	B	500	diastole
908.8380999999999	0.0774731562414672	62	diastole	6	B	500	diastole
909.4883	0.0774731562414672	62	diastole	7	B	500	diastole
910.1583	0.0774731562414672	62	diastole	8	B	500	diastole
910.8283000000001	0.0774731562414672	62	diastole	9	B	500	diastole
911.5131000000001	0.0774731562414672	62	diastole	10	B	500	diastole
912.1878000000002	0.0774731562414672	62	diastole	11	B	500	diastole
912.8179	0.0774731562414672	62	diastole	12	B	500	diastole
913.4481000000001	0.0774731562414672	62	diastole	13	B	500	diastole
914.0781999999999	0.0774731562414672	62	diastole	14	B	500	diastole
914.7083000000002	0.0774731562414672	62	diastole	15	B	500	diastole
917.7850000000003	0.0749990124895703	63	systole	1	B	500	systole
918.3490999999999	0.0749990124895703	63	systole	2	B	500	systole
918.9191000000001	0.0749990124895703	63	systole	3	B	500	systole
919.4891000000002	0.0749990124895703	63	systole	4	B	500	systole
920.0891000000001	0.0749990124895703	63	systole	5	B	500	systole
920.6990000000001	0.0749990124895703	63	systole	6	B	500	systole
921.3191000000002	0.0749990124895703	63	systole	7	B	500	systole
921.9551999999999	0.0749990124895703	63	systole	8	B	500	systole
922.5554000000002	0.0749990124895703	63	systole	9	B	500	systole
923.1555000000003	0.0749990124895703	63	systole	10	B	500	systole
923.7453	0.0749990124895703	63	systole	11	B	500	systole
924.3154	0.0749990124895703	63	systole	12	B	500	systole
924.8953000000001	0.0749990124895703	63	systole	13	B	500	systole
925.4554000000003	0.0749990124895703	63	systole	14	B	500	systole
926.0093999999999	0.0749990124895703	63	systole	15	B	500	systole
926.5376999999999	0.0749990124895703	63	systole	16	B	500	systole
927.0646000000002	0.0749990124895703	63	systole	17	B	500	systole
929.8069	0.0687585389823652	64	systole	1	B	500	systole
930.3670000000002	0.0687585389823652	64	systole	2	B	500	systole
930.9429	0.0687585389823652	64	systole	3	B	500	systole
931.5343000000003	0.0687585389823652	64	systole	4	B	500	systole
932.1118000000001	0.0687585389823652	64	systole	5	B	500	systole
932.6902	0.0687585389823652	64	systole	6	B	500	systole
933.2683999999999	0.0687585389823652	64	systole	7	B	500	systole
933.8382999999999	0.0687585389823652	64	systole	8	B	500	systole
934.4082000000003	0.0687585389823652	64	systole	9	B	500	systole
934.9483	0.0687585389823652	64	systole	10	B	500	systole
935.4883	0.0687585389823652	64	systole	11	B	500	systole
936.0283	0.0687585389823652	64	systole	12	B	500	systole
936.5624000000003	0.0687585389823652	64	systole	13	B	500	systole
937.1168000000002	0.0687585389823652	64	systole	14	B	500	systole
937.6967	0.0687585389823652	64	systole	15	B	500	systole
938.2966999999999	0.0687585389823652	64	systole	16	B	500	systole
938.9123	0.0687585389823652	64	systole	17	B	500	systole
942.2550000000001	0.0749974602949805	65	diastole	1	B	500	systole
942.8551000000002	0.0749974602949805	65	diastole	2	B	500	systole
943.4551999999999	0.0749974602949805	65	diastole	3	B	500	systole
944.0451000000003	0.0749974602949805	65	diastole	4	B	500	systole
944.6251000000002	0.0749974602949805	65	diastole	5	B	500	systole
945.1868	0.0749974602949805	65	diastole	6	B	500	systole
945.7485999999999	0.0749974602949805	65	diastole	7	B	500	systole
946.3002000000001	0.0749974602949805	65	diastole	8	B	500	systole
946.8600999999999	0.0749974602949805	65	diastole	9	B	500	systole
947.4201000000003	0.0749974602949805	65	diastole	10	B	500	systole
947.9536000000003	0.0749974602949805	65	diastole	11	B	500	systole
948.5052000000001	0.0749974602949805	65	diastole	12	B	500	systole
949.0750000000003	0.0749974602949805	65	diastole	13	B	500	systole
949.6849000000002	0.0749974602949805	65	diastole	14	B	500	systole
950.3149000000003	0.0749974602949805	65	diastole	15	B	500	systole
950.9549999999999	0.0749974602949805	65	diastole	16	B	500	systole
951.5950000000003	0.0749974602949805	65	diastole	17	B	500	systole
958.1622000000002	0.0800178624049294	66	diastole	1	B	500	systole
958.7822000000001	0.0800178624049294	66	diastole	2	B	500	systole
959.3836999999999	0.0800178624049294	66	diastole	3	B	500	systole
959.9936000000002	0.0800178624049294	66	diastole	4	B	500	systole
960.6118999999999	0.0800178624049294	66	diastole	5	B	500	systole
961.2536	0.0800178624049294	66	diastole	6	B	500	systole
961.9551999999999	0.0800178624049294	66	diastole	7	B	500	systole
962.6567	0.0800178624049294	66	diastole	8	B	500	systole
963.3453	0.0800178624049294	66	diastole	9	B	500	systole
964.0317	0.0800178624049294	66	diastole	10	B	500	systole
964.6918000000001	0.0800178624049294	66	diastole	11	B	500	systole
965.3668000000002	0.0800178624049294	66	diastole	12	B	500	systole
966.0068999999999	0.0800178624049294	66	diastole	13	B	500	systole
966.6469000000002	0.0800178624049294	66	diastole	14	B	500	systole
967.2564000000002	0.0800178624049294	66	diastole	15	B	500	systole
970.1822000000002	0.0749708687653765	67	systole	1	B	500	systole
970.7321999999999	0.0749708687653765	67	systole	2	B	500	systole
971.2524000000003	0.0749708687653765	67	systole	3	B	500	systole
971.8020000000001	0.0749708687653765	67	systole	4	B	500	systole
972.3516	0.0749708687653765	67	systole	5	B	500	systole
972.9315999999999	0.0749708687653765	67	systole	6	B	500	systole
973.5612000000001	0.0749708687653765	67	systole	7	B	500	systole
974.2212	0.0749708687653765	67	systole	8	B	500	systole
974.8812000000003	0.0749708687653765	67	systole	9	B	500	systole
975.5319	0.0749708687653765	67	systole	10	B	500	systole
976.2512999999999	0.0749708687653765	67	systole	11	B	500	systole
976.913	0.0749708687653765	67	systole	12	B	500	systole
977.5880000000002	0.0749708687653765	67	systole	13	B	500	systole
978.2181	0.0749708687653765	67	systole	14	B	500	systole
978.8481000000002	0.0749708687653765	67	systole	15	B	500	systole
979.4782	0.0749708687653765	67	systole	16	B	500	systole
982.1071000000002	0.0786530561745166	68	diastole	1	B	500	systole
982.6671000000001	0.0786530561745166	68	diastole	2	B	500	systole
983.1606000000002	0.0786530561745166	68	diastole	3	B	500	systole
983.732	0.0786530561745166	68	diastole	4	B	500	systole
984.3218999999999	0.0786530561745166	68	diastole	5	B	500	systole
984.9117999999999	0.0786530561745166	68	diastole	6	B	500	systole
985.4736000000003	0.0786530561745166	68	diastole	7	B	500	systole
986.0535	0.0786530561745166	68	diastole	8	B	500	systole
986.6334999999999	0.0786530561745166	68	diastole	9	B	500	systole
987.2135000000003	0.0786530561745166	68	diastole	10	B	500	systole
987.7935000000002	0.0786530561745166	68	diastole	11	B	500	systole
988.3836000000001	0.0786530561745166	68	diastole	12	B	500	systole
988.9738000000002	0.0786530561745166	68	diastole	13	B	500	systole
989.5639000000001	0.0786530561745166	68	diastole	14	B	500	systole
990.1420000000003	0.0786530561745166	68	diastole	15	B	500	systole
990.7117000000003	0.0786530561745166	68	diastole	16	B	500	systole
991.2814000000003	0.0786530561745166	68	diastole	17	B	500	systole
994.0066000000002	0.0712235312385018	69	diastole	1	B	500	systole
994.5565999999999	0.0712235312385018	69	diastole	2	B	500	systole
995.0902000000001	0.0712235312385018	69	diastole	3	B	500	systole
995.6403	0.0712235312385018	69	diastole	4	B	500	systole
996.2103000000002	0.0712235312385018	69	diastole	5	B	500	systole
996.8002999999999	0.0712235312385018	69	diastole	6	B	500	systole
997.4002	0.0712235312385018	69	diastole	7	B	500	systole
998.0487000000003	0.0712235312385018	69	diastole	8	B	500	systole
998.6887999999999	0.0712235312385018	69	diastole	9	B	500	systole
999.3289	0.0712235312385018	69	diastole	10	B	500	systole
1000.0673999999999	0.0712235312385018	69	diastole	11	B	500	systole
1000.7760000000003	0.0712235312385018	69	diastole	12	B	500	systole
1001.4259999999999	0.0712235312385018	69	diastole	13	B	500	systole
1002.1087000000002	0.0712235312385018	69	diastole	14	B	500	systole
1002.7589000000003	0.0712235312385018	69	diastole	15	B	500	systole
1003.4088999999999	0.0712235312385018	69	diastole	16	B	500	systole
1006.9817000000003	0.0775072988180909	70	diastole	1	B	500	diastole
1007.5817000000002	0.0775072988180909	70	diastole	2	B	500	diastole
1008.1831000000002	0.0775072988180909	70	diastole	3	B	500	diastole
1008.7930000000001	0.0775072988180909	70	diastole	4	B	500	diastole
1009.433	0.0775072988180909	70	diastole	5	B	500	diastole
1010.0630000000001	0.0775072988180909	70	diastole	6	B	500	diastole
1010.7130000000002	0.0775072988180909	70	diastole	7	B	500	diastole
1011.3630000000003	0.0775072988180909	70	diastole	8	B	500	diastole
1012.0280000000002	0.0775072988180909	70	diastole	9	B	500	diastole
1012.6543999999999	0.0775072988180909	70	diastole	10	B	500	diastole
1013.2640000000001	0.0775072988180909	70	diastole	11	B	500	diastole
1013.8540000000003	0.0775072988180909	70	diastole	12	B	500	diastole
1014.4439000000002	0.0775072988180909	70	diastole	13	B	500	diastole
1015.0340000000001	0.0775072988180909	70	diastole	14	B	500	diastole
1015.6169	0.0775072988180909	70	diastole	15	B	500	diastole
1019.5149999999999	0.0749932873004581	71	systole	1	B	500	systole
1020.1051000000002	0.0749932873004581	71	systole	2	B	500	systole
1020.6952000000001	0.0749932873004581	71	systole	3	B	500	systole
1021.3109	0.0749932873004581	71	systole	4	B	500	systole
1021.9011	0.0749932873004581	71	systole	5	B	500	systole
1022.4911999999999	0.0749932873004581	71	systole	6	B	500	systole
1023.0813000000003	0.0749932873004581	71	systole	7	B	500	systole
1023.6653999999999	0.0749932873004581	71	systole	8	B	500	systole
1024.2651	0.0749932873004581	71	systole	9	B	500	systole
1024.8651	0.0749932873004581	71	systole	10	B	500	systole
1025.4650000000001	0.0749932873004581	71	systole	11	B	500	systole
1026.0755	0.0749932873004581	71	systole	12	B	500	systole
1026.6857	0.0749932873004581	71	systole	13	B	500	systole
1027.3016000000002	0.0749932873004581	71	systole	14	B	500	systole
1027.8557	0.0749932873004581	71	systole	15	B	500	systole
1028.4055000000003	0.0749932873004581	71	systole	16	B	500	systole
1031.7166000000002	0.0743735686992295	72	diastole	1	B	500	systole
1032.3365	0.0743735686992295	72	diastole	2	B	500	systole
1032.9566	0.0743735686992295	72	diastole	3	B	500	systole
1033.6151	0.0743735686992295	72	diastole	4	B	500	systole
1034.3163	0.0743735686992295	72	diastole	5	B	500	systole
1034.9843	0.0743735686992295	72	diastole	6	B	500	systole
1035.6531	0.0743735686992295	72	diastole	7	B	500	systole
1036.3270000000002	0.0743735686992295	72	diastole	8	B	500	systole
1036.9472	0.0743735686992295	72	diastole	9	B	500	systole
1037.5673000000002	0.0743735686992295	72	diastole	10	B	500	systole
1038.1873	0.0743735686992295	72	diastole	11	B	500	systole
1038.8182000000002	0.0743735686992295	72	diastole	12	B	500	systole
1039.4659000000001	0.0743735686992295	72	diastole	13	B	500	systole
1040.1058000000003	0.0743735686992295	72	diastole	14	B	500	systole
1040.7020000000002	0.0743735686992295	72	diastole	15	B	500	systole
1043.6516000000001	0.0774762086803093	73	diastole	1	B	500	diastole
1044.2516	0.0774762086803093	73	diastole	2	B	500	diastole
1044.8253	0.0774762086803093	73	diastole	3	B	500	diastole
1045.4151000000002	0.0774762086803093	73	diastole	4	B	500	diastole
1046.0151	0.0774762086803093	73	diastole	5	B	500	diastole
1046.625	0.0774762086803093	73	diastole	6	B	500	diastole
1047.2352	0.0774762086803093	73	diastole	7	B	500	diastole
1047.8454000000002	0.0774762086803093	73	diastole	8	B	500	diastole
1048.4954000000002	0.0774762086803093	73	diastole	9	B	500	diastole
1049.1237	0.0774762086803093	73	diastole	10	B	500	diastole
1049.7439	0.0774762086803093	73	diastole	11	B	500	diastole
1050.3823000000002	0.0774762086803093	73	diastole	12	B	500	diastole
1051.0104999999999	0.0774762086803093	73	diastole	13	B	500	diastole
1051.6206000000002	0.0774762086803093	73	diastole	14	B	500	diastole
1052.2206	0.0774762086803093	73	diastole	15	B	500	diastole
1052.8207000000002	0.0774762086803093	73	diastole	16	B	500	diastole
1056.2469	0.0699968686967622	74	systole	1	B	500	systole
1056.7885999999999	0.0699968686967622	74	systole	2	B	500	systole
1057.3303	0.0699968686967622	74	systole	3	B	500	systole
1057.8719	0.0699968686967622	74	systole	4	B	500	systole
1058.4198999999999	0.0699968686967622	74	systole	5	B	500	systole
1058.9596000000001	0.0699968686967622	74	systole	6	B	500	systole
1059.5095999999999	0.0699968686967622	74	systole	7	B	500	systole
1060.0598	0.0699968686967622	74	systole	8	B	500	systole
1060.6116000000002	0.0699968686967622	74	systole	9	B	500	systole
1061.1914000000002	0.0699968686967622	74	systole	10	B	500	systole
1061.7710000000002	0.0699968686967622	74	systole	11	B	500	systole
1062.4827	0.0699968686967622	74	systole	12	B	500	systole
1063.1932000000002	0.0699968686967622	74	systole	13	B	500	systole
1063.8979	0.0699968686967622	74	systole	14	B	500	systole
1064.6171	0.0699968686967622	74	systole	15	B	500	systole
1065.2667000000001	0.0699968686967622	74	systole	16	B	500	systole
1067.9035	0.0819101249799132	75	systole	1	B	500	systole
1068.4629	0.0819101249799132	75	systole	2	B	500	systole
1069.0229	0.0819101249799132	75	systole	3	B	500	systole
1069.5498000000002	0.0819101249799132	75	systole	4	B	500	systole
1070.0751	0.0819101249799132	75	systole	5	B	500	systole
1070.6018	0.0819101249799132	75	systole	6	B	500	systole
1071.1243	0.0819101249799132	75	systole	7	B	500	systole
1071.6643	0.0819101249799132	75	systole	8	B	500	systole
1072.1984000000002	0.0819101249799132	75	systole	9	B	500	systole
1072.7327	0.0819101249799132	75	systole	10	B	500	systole
1073.2768	0.0819101249799132	75	systole	11	B	500	systole
1073.8468000000003	0.0819101249799132	75	systole	12	B	500	systole
1074.4169000000002	0.0819101249799132	75	systole	13	B	500	systole
1074.9969	0.0819101249799132	75	systole	14	B	500	systole
1075.5826000000002	0.0819101249799132	75	systole	15	B	500	systole
1076.1626999999999	0.0819101249799132	75	systole	16	B	500	systole
1076.7503000000002	0.0819101249799132	75	systole	17	B	500	systole
1077.3201	0.0819101249799132	75	systole	18	B	500	systole
1080.7552	0.0681357937282882	76	diastole	1	B	500	diastole
1081.2752	0.0681357937282882	76	diastole	2	B	500	diastole
1081.815	0.0681357937282882	76	diastole	3	B	500	diastole
1082.3549000000003	0.0681357937282882	76	diastole	4	B	500	diastole
1082.8948	0.0681357937282882	76	diastole	5	B	500	diastole
1083.4648000000002	0.0681357937282882	76	diastole	6	B	500	diastole
1084.0950000000003	0.0681357937282882	76	diastole	7	B	500	diastole
1084.7449000000001	0.0681357937282882	76	diastole	8	B	500	diastole
1085.3850000000002	0.0681357937282882	76	diastole	9	B	500	diastole
1086.0699	0.0681357937282882	76	diastole	10	B	500	diastole
1086.8151000000003	0.0681357937282882	76	diastole	11	B	500	diastole
1087.5335	0.0681357937282882	76	diastole	12	B	500	diastole
1088.2198000000003	0.0681357937282882	76	diastole	13	B	500	diastole
1088.85	0.0681357937282882	76	diastole	14	B	500	diastole
1089.4801000000002	0.0681357937282882	76	diastole	15	B	500	diastole
1092.6568000000002	0.0787372258200775	77	diastole	1	B	500	diastole
1093.2367	0.0787372258200775	77	diastole	2	B	500	diastole
1093.7802000000001	0.0787372258200775	77	diastole	3	B	500	diastole
1094.2867999999999	0.0787372258200775	77	diastole	4	B	500	diastole
1094.8002000000001	0.0787372258200775	77	diastole	5	B	500	diastole
1095.3304000000003	0.0787372258200775	77	diastole	6	B	500	diastole
1095.8605000000002	0.0787372258200775	77	diastole	7	B	500	diastole
1096.3854000000001	0.0787372258200775	77	diastole	8	B	500	diastole
1096.9603000000002	0.0787372258200775	77	diastole	9	B	500	diastole
1097.5602	0.0787372258200775	77	diastole	10	B	500	diastole
1098.1803	0.0787372258200775	77	diastole	11	B	500	diastole
1098.8102	0.0787372258200775	77	diastole	12	B	500	diastole
1099.4401000000003	0.0787372258200775	77	diastole	13	B	500	diastole
1100.2116	0.0787372258200775	77	diastole	14	B	500	diastole
1100.8916	0.0787372258200775	77	diastole	15	B	500	diastole
1101.5715	0.0787372258200775	77	diastole	16	B	500	diastole
1105.8917999999999	0.0768765060056466	78	diastole	1	B	500	diastole
1106.5117	0.0768765060056466	78	diastole	2	B	500	diastole
1107.1917000000003	0.0768765060056466	78	diastole	3	B	500	diastole
1107.8718	0.0768765060056466	78	diastole	4	B	500	diastole
1108.5318000000002	0.0768765060056466	78	diastole	5	B	500	diastole
1109.1819	0.0768765060056466	78	diastole	6	B	500	diastole
1109.8935000000001	0.0768765060056466	78	diastole	7	B	500	diastole
1110.5635000000002	0.0768765060056466	78	diastole	8	B	500	diastole
1111.2268	0.0768765060056466	78	diastole	9	B	500	diastole
1111.8468000000003	0.0768765060056466	78	diastole	10	B	500	diastole
1112.4668000000001	0.0768765060056466	78	diastole	11	B	500	diastole
1113.0868	0.0768765060056466	78	diastole	12	B	500	diastole
1113.6969	0.0768765060056466	78	diastole	13	B	500	diastole
1114.3069	0.0768765060056466	78	diastole	14	B	500	diastole
1114.917	0.0768765060056466	78	diastole	15	B	500	diastole
1117.591	0.0756290499994065	79	systole	1	B	500	diastole
1118.2269000000001	0.0756290499994065	79	systole	2	B	500	diastole
1118.8587000000002	0.0756290499994065	79	systole	3	B	500	diastole
1119.4787000000001	0.0756290499994065	79	systole	4	B	500	diastole
1120.1012	0.0756290499994065	79	systole	5	B	500	diastole
1120.7095	0.0756290499994065	79	systole	6	B	500	diastole
1121.3196000000003	0.0756290499994065	79	systole	7	B	500	diastole
1121.9296	0.0756290499994065	79	systole	8	B	500	diastole
1122.5853000000002	0.0756290499994065	79	systole	9	B	500	diastole
1123.1994	0.0756290499994065	79	systole	10	B	500	diastole
1123.8086000000003	0.0756290499994065	79	systole	11	B	500	diastole
1124.4285	0.0756290499994065	79	systole	12	B	500	diastole
1125.0484000000001	0.0756290499994065	79	systole	13	B	500	diastole
1125.6527	0.0756290499994065	79	systole	14	B	500	diastole
1126.2628	0.0756290499994065	79	systole	15	B	500	diastole
1126.8928	0.0756290499994065	79	systole	16	B	500	diastole
1130.435	0.0787405562587082	80	diastole	1	B	500	diastole
1131.0349	0.0787405562587082	80	diastole	2	B	500	diastole
1131.625	0.0787405562587082	80	diastole	3	B	500	diastole
1132.2151	0.0787405562587082	80	diastole	4	B	500	diastole
1132.8052000000002	0.0787405562587082	80	diastole	5	B	500	diastole
1133.3707	0.0787405562587082	80	diastole	6	B	500	diastole
1133.9527000000003	0.0787405562587082	80	diastole	7	B	500	diastole
1134.5242000000003	0.0787405562587082	80	diastole	8	B	500	diastole
1135.089	0.0787405562587082	80	diastole	9	B	500	diastole
1135.7611000000002	0.0787405562587082	80	diastole	10	B	500	diastole
1136.4331000000002	0.0787405562587082	80	diastole	11	B	500	diastole
1137.0731	0.0787405562587082	80	diastole	12	B	500	diastole
1137.7132000000001	0.0787405562587082	80	diastole	13	B	500	diastole
1138.3783000000003	0.0787405562587082	80	diastole	14	B	500	diastole
1139.0598	0.0787405562587082	80	diastole	15	B	500	diastole
1139.7098	0.0787405562587082	80	diastole	16	B	500	diastole
1144.3765000000003	0.0770980190718546	81	systole	1	B	500	systole
1144.9981000000002	0.0770980190718546	81	systole	2	B	500	systole
1145.5914000000002	0.0770980190718546	81	systole	3	B	500	systole
1146.1914000000002	0.0770980190718546	81	systole	4	B	500	systole
1146.7705	0.0770980190718546	81	systole	5	B	500	systole
1147.3694	0.0770980190718546	81	systole	6	B	500	systole
1147.9547000000002	0.0770980190718546	81	systole	7	B	500	systole
1148.5447	0.0770980190718546	81	systole	8	B	500	systole
1149.1289000000002	0.0770980190718546	81	systole	9	B	500	systole
1149.7287000000001	0.0770980190718546	81	systole	10	B	500	systole
1150.3286000000003	0.0770980190718546	81	systole	11	B	500	systole
1150.9429	0.0770980190718546	81	systole	12	B	500	systole
1151.5628000000002	0.0770980190718546	81	systole	13	B	500	systole
1152.1928000000003	0.0770980190718546	81	systole	14	B	500	systole
1152.8486000000003	0.0770980190718546	81	systole	15	B	500	systole
1153.4986	0.0770980190718546	81	systole	16	B	500	systole
1158.5919	0.0762531374930404	82	diastole	1	B	500	diastole
1159.1619	0.0762531374930404	82	diastole	2	B	500	diastole
1159.7336	0.0762531374930404	82	diastole	3	B	500	diastole
1160.3136	0.0762531374930404	82	diastole	4	B	500	diastole
1160.8935999999999	0.0762531374930404	82	diastole	5	B	500	diastole
1161.467	0.0762531374930404	82	diastole	6	B	500	diastole
1162.087	0.0762531374930404	82	diastole	7	B	500	diastole
1162.7667999999999	0.0762531374930404	82	diastole	8	B	500	diastole
1163.4367000000002	0.0762531374930404	82	diastole	9	B	500	diastole
1164.1138	0.0762531374930404	82	diastole	10	B	500	diastole
1164.7743	0.0762531374930404	82	diastole	11	B	500	diastole
1165.5022	0.0762531374930404	82	diastole	12	B	500	diastole
1166.1957000000002	0.0762531374930404	82	diastole	13	B	500	diastole
1166.8361	0.0762531374930404	82	diastole	14	B	500	diastole
1167.4760999999999	0.0762531374930404	82	diastole	15	B	500	diastole
1174.4377	0.0800022792245727	83	systole	1	B	500	systole
1175.0675	0.0800022792245727	83	systole	2	B	500	systole
1175.6675	0.0800022792245727	83	systole	3	B	500	systole
1176.2572	0.0800022792245727	83	systole	4	B	500	systole
1176.8473	0.0800022792245727	83	systole	5	B	500	systole
1177.4216999999999	0.0800022792245727	83	systole	6	B	500	systole
1177.9724	0.0800022792245727	83	systole	7	B	500	systole
1178.5524	0.0800022792245727	83	systole	8	B	500	systole
1179.1350000000002	0.0800022792245727	83	systole	9	B	500	systole
1179.7350000000001	0.0800022792245727	83	systole	10	B	500	systole
1180.3753000000002	0.0800022792245727	83	systole	11	B	500	systole
1181.0053000000003	0.0800022792245727	83	systole	12	B	500	systole
1181.6727	0.0800022792245727	83	systole	13	B	500	systole
1182.3227000000002	0.0800022792245727	83	systole	14	B	500	systole
1182.9803000000002	0.0800022792245727	83	systole	15	B	500	systole
1183.5903000000003	0.0800022792245727	83	systole	16	B	500	systole
1184.1903000000002	0.0800022792245727	83	systole	17	B	500	systole
1187.1453000000001	0.0756240642804186	84	systole	1	B	500	systole
1187.7454000000002	0.0756240642804186	84	systole	2	B	500	systole
1188.397	0.0756240642804186	84	systole	3	B	500	systole
1189.0453000000002	0.0756240642804186	84	systole	4	B	500	systole
1189.6936	0.0756240642804186	84	systole	5	B	500	systole
1190.3111	0.0756240642804186	84	systole	6	B	500	systole
1190.9242	0.0756240642804186	84	systole	7	B	500	systole
1191.5326	0.0756240642804186	84	systole	8	B	500	systole
1192.1704	0.0756240642804186	84	systole	9	B	500	systole
1192.8005000000003	0.0756240642804186	84	systole	10	B	500	systole
1193.4254	0.0756240642804186	84	systole	11	B	500	systole
1194.0454	0.0756240642804186	84	systole	12	B	500	systole
1194.6653999999999	0.0756240642804186	84	systole	13	B	500	systole
1195.2854000000002	0.0756240642804186	84	systole	14	B	500	systole
1195.9052000000001	0.0756240642804186	84	systole	15	B	500	systole
1198.5817000000002	0.0768736062454991	85	diastole	1	B	500	diastole
1199.2217	0.0768736062454991	85	diastole	2	B	500	diastole
1199.8617	0.0768736062454991	85	diastole	3	B	500	diastole
1200.5119	0.0768736062454991	85	diastole	4	B	500	diastole
1201.2019	0.0768736062454991	85	diastole	5	B	500	diastole
1201.8919	0.0768736062454991	85	diastole	6	B	500	diastole
1202.6170000000002	0.0768736062454991	85	diastole	7	B	500	diastole
1203.3636999999999	0.0768736062454991	85	diastole	8	B	500	diastole
1204.0436	0.0768736062454991	85	diastole	9	B	500	diastole
1204.6737000000003	0.0768736062454991	85	diastole	10	B	500	diastole
1205.3037	0.0768736062454991	85	diastole	11	B	500	diastole
1205.9338000000002	0.0768736062454991	85	diastole	12	B	500	diastole
1206.5639	0.0768736062454991	85	diastole	13	B	500	diastole
1207.1838000000002	0.0768736062454991	85	diastole	14	B	500	diastole
1207.8036000000002	0.0768736062454991	85	diastole	15	B	500	diastole
1211.9134	0.0762412937183398	86	diastole	1	B	500	systole
1212.5134000000003	0.0762412937183398	86	diastole	2	B	500	systole
1213.1416	0.0762412937183398	86	diastole	3	B	500	systole
1213.8116	0.0762412937183398	86	diastole	4	B	500	systole
1214.4814999999999	0.0762412937183398	86	diastole	5	B	500	systole
1215.1218	0.0762412937183398	86	diastole	6	B	500	systole
1215.77	0.0762412937183398	86	diastole	7	B	500	systole
1216.3983000000003	0.0762412937183398	86	diastole	8	B	500	systole
1217.0082000000002	0.0762412937183398	86	diastole	9	B	500	systole
1217.618	0.0762412937183398	86	diastole	10	B	500	systole
1218.2381	0.0762412937183398	86	diastole	11	B	500	systole
1218.8582000000001	0.0762412937183398	86	diastole	12	B	500	systole
1219.4581000000003	0.0762412937183398	86	diastole	13	B	500	systole
1220.0381000000002	0.0762412937183398	86	diastole	14	B	500	systole
1220.5999000000002	0.0762412937183398	86	diastole	15	B	500	systole
1223.9511000000002	0.0750034968659747	87	systole	1	B	500	diastole
1224.5611	0.0750034968659747	87	systole	2	B	500	diastole
1225.1769	0.0750034968659747	87	systole	3	B	500	diastole
1225.7769000000003	0.0750034968659747	87	systole	4	B	500	diastole
1226.3769000000002	0.0750034968659747	87	systole	5	B	500	diastole
1226.9769000000001	0.0750034968659747	87	systole	6	B	500	diastole
1227.5768000000003	0.0750034968659747	87	systole	7	B	500	diastole
1228.1309	0.0750034968659747	87	systole	8	B	500	diastole
1228.6754	0.0750034968659747	87	systole	9	B	500	diastole
1229.2256000000002	0.0750034968659747	87	systole	10	B	500	diastole
1229.7751000000003	0.0750034968659747	87	systole	11	B	500	diastole
1230.3236000000002	0.0750034968659747	87	systole	12	B	500	diastole
1230.8962000000001	0.0750034968659747	87	systole	13	B	500	diastole
1231.4862000000003	0.0750034968659747	87	systole	14	B	500	diastole
1232.0863	0.0750034968659747	87	systole	15	B	500	diastole
1232.7060999999999	0.0750034968659747	87	systole	16	B	500	diastole
1236.3852000000002	0.0750048063055146	88	systole	1	B	500	systole
1236.9652	0.0750048063055146	88	systole	2	B	500	systole
1237.5451000000003	0.0750048063055146	88	systole	3	B	500	systole
1238.1094000000003	0.0750048063055146	88	systole	4	B	500	systole
1238.6795000000002	0.0750048063055146	88	systole	5	B	500	systole
1239.2537000000002	0.0750048063055146	88	systole	6	B	500	systole
1239.8536	0.0750048063055146	88	systole	7	B	500	systole
1240.4535	0.0750048063055146	88	systole	8	B	500	systole
1241.0217000000002	0.0750048063055146	88	systole	9	B	500	systole
1241.6016	0.0750048063055146	88	systole	10	B	500	systole
1242.1716000000001	0.0750048063055146	88	systole	11	B	500	systole
1242.7716	0.0750048063055146	88	systole	12	B	500	systole
1243.3817	0.0750048063055146	88	systole	13	B	500	systole
1244.0116000000003	0.0750048063055146	88	systole	14	B	500	systole
1244.6832	0.0750048063055146	88	systole	15	B	500	systole
1245.3508000000002	0.0750048063055146	88	systole	16	B	500	systole
1246.0007	0.0750048063055146	88	systole	17	B	500	systole
1249.4166	0.0781106299546081	89	diastole	1	B	500	diastole
1249.9802	0.0781106299546081	89	diastole	2	B	500	diastole
1250.5421000000001	0.0781106299546081	89	diastole	3	B	500	diastole
1251.1220000000003	0.0781106299546081	89	diastole	4	B	500	diastole
1251.7035	0.0781106299546081	89	diastole	5	B	500	diastole
1252.2935000000002	0.0781106299546081	89	diastole	6	B	500	diastole
1252.8569000000002	0.0781106299546081	89	diastole	7	B	500	diastole
1253.4203000000002	0.0781106299546081	89	diastole	8	B	500	diastole
1254.0102000000002	0.0781106299546081	89	diastole	9	B	500	diastole
1254.5819999999999	0.0781106299546081	89	diastole	10	B	500	diastole
1255.1724	0.0781106299546081	89	diastole	11	B	500	diastole
1255.7627000000002	0.0781106299546081	89	diastole	12	B	500	diastole
1256.3625000000002	0.0781106299546081	89	diastole	13	B	500	diastole
1256.9808000000003	0.0781106299546081	89	diastole	14	B	500	diastole
1257.6190000000001	0.0781106299546081	89	diastole	15	B	500	diastole
1258.2277	0.0781106299546081	89	diastole	16	B	500	diastole
1261.3064	0.0731221945607103	90	systole	1	B	500	systole
1261.8961	0.0731221945607103	90	systole	2	B	500	systole
1262.4857000000002	0.0731221945607103	90	systole	3	B	500	systole
1263.0756999999999	0.0731221945607103	90	systole	4	B	500	systole
1263.6657	0.0731221945607103	90	systole	5	B	500	systole
1264.2658000000001	0.0731221945607103	90	systole	6	B	500	systole
1264.8659000000002	0.0731221945607103	90	systole	7	B	500	systole
1265.4868999999999	0.0731221945607103	90	systole	8	B	500	systole
1266.1130000000003	0.0731221945607103	90	systole	9	B	500	systole
1266.7330000000002	0.0731221945607103	90	systole	10	B	500	systole
1267.359	0.0731221945607103	90	systole	11	B	500	systole
1267.9488999999999	0.0731221945607103	90	systole	12	B	500	systole
1268.5389	0.0731221945607103	90	systole	13	B	500	systole
1269.1189	0.0731221945607103	90	systole	14	B	500	systole
1269.6784000000002	0.0731221945607103	90	systole	15	B	500	systole
1270.2185	0.0731221945607103	90	systole	16	B	500	systole
1270.7467000000001	0.0731221945607103	90	systole	17	B	500	systole
1274.7619	0.0724954378383699	91	systole	1	B	500	systole
1275.3621000000003	0.0724954378383699	91	systole	2	B	500	systole
1275.9777	0.0724954378383699	91	systole	3	B	500	systole
1276.5876000000003	0.0724954378383699	91	systole	4	B	500	systole
1277.2191000000003	0.0724954378383699	91	systole	5	B	500	systole
1277.835	0.0724954378383699	91	systole	6	B	500	systole
1278.4409	0.0724954378383699	91	systole	7	B	500	systole
1279.0567	0.0724954378383699	91	systole	8	B	500	systole
1279.6467000000002	0.0724954378383699	91	systole	9	B	500	systole
1280.2367	0.0724954378383699	91	systole	10	B	500	systole
1280.8267	0.0724954378383699	91	systole	11	B	500	systole
1281.4207999999999	0.0724954378383699	91	systole	12	B	500	systole
1282.0309000000002	0.0724954378383699	91	systole	13	B	500	systole
1282.641	0.0724954378383699	91	systole	14	B	500	systole
1283.2709	0.0724954378383699	91	systole	15	B	500	systole
1283.891	0.0724954378383699	91	systole	16	B	500	systole
1286.6417999999999	0.0762519840209279	92	diastole	1	B	500	systole
1287.2317000000003	0.0762519840209279	92	diastole	2	B	500	systole
1287.8217	0.0762519840209279	92	diastole	3	B	500	systole
1288.4116	0.0762519840209279	92	diastole	4	B	500	systole
1289.0031	0.0762519840209279	92	diastole	5	B	500	systole
1289.6031000000003	0.0762519840209279	92	diastole	6	B	500	systole
1290.1947	0.0762519840209279	92	diastole	7	B	500	systole
1290.8047000000001	0.0762519840209279	92	diastole	8	B	500	systole
1291.4247	0.0762519840209279	92	diastole	9	B	500	systole
1292.0248000000001	0.0762519840209279	92	diastole	10	B	500	systole
1292.6149	0.0762519840209279	92	diastole	11	B	500	systole
1293.2051000000001	0.0762519840209279	92	diastole	12	B	500	systole
1293.7651	0.0762519840209279	92	diastole	13	B	500	systole
1294.3250000000003	0.0762519840209279	92	diastole	14	B	500	systole
1294.8566	0.0762519840209279	92	diastole	15	B	500	systole
1295.3720000000003	0.0762519840209279	92	diastole	16	B	500	systole
1295.9039000000002	0.0762519840209279	92	diastole	17	B	500	systole
1299.0103	0.0663931386952754	93	diastole	1	B	500	systole
1299.5803	0.0663931386952754	93	diastole	2	B	500	systole
1300.1703000000002	0.0663931386952754	93	diastole	3	B	500	systole
1300.7804	0.0663931386952754	93	diastole	4	B	500	systole
1301.4381000000003	0.0663931386952754	93	diastole	5	B	500	systole
1302.0818	0.0663931386952754	93	diastole	6	B	500	systole
1302.692	0.0663931386952754	93	diastole	7	B	500	systole
1303.3403000000003	0.0663931386952754	93	diastole	8	B	500	systole
1303.9834	0.0663931386952754	93	diastole	9	B	500	systole
1304.5734000000002	0.0663931386952754	93	diastole	10	B	500	systole
1305.1435000000001	0.0663931386952754	93	diastole	11	B	500	systole
1305.7136	0.0663931386952754	93	diastole	12	B	500	systole
1306.2836000000002	0.0663931386952754	93	diastole	13	B	500	systole
1306.8470000000002	0.0663931386952754	93	diastole	14	B	500	systole
1307.4270000000001	0.0663931386952754	93	diastole	15	B	500	systole
1308.1508	0.0663931386952754	93	diastole	16	B	500	systole
1311.172	0.0799947187479119	94	diastole	1	B	500	systole
1311.8321	0.0799947187479119	94	diastole	2	B	500	systole
1312.4921	0.0799947187479119	94	diastole	3	B	500	systole
1313.1437	0.0799947187479119	94	diastole	4	B	500	systole
1313.7953000000002	0.0799947187479119	94	diastole	5	B	500	systole
1314.4238	0.0799947187479119	94	diastole	6	B	500	systole
1315.0523000000003	0.0799947187479119	94	diastole	7	B	500	systole
1315.6524	0.0799947187479119	94	diastole	8	B	500	systole
1316.2385	0.0799947187479119	94	diastole	9	B	500	systole
1316.806	0.0799947187479119	94	diastole	10	B	500	systole
1317.4463	0.0799947187479119	94	diastole	11	B	500	systole
1318.0859	0.0799947187479119	94	diastole	12	B	500	systole
1318.716	0.0799947187479119	94	diastole	13	B	500	systole
1319.3461000000002	0.0799947187479119	94	diastole	14	B	500	systole
1319.9778000000001	0.0799947187479119	94	diastole	15	B	500	systole
1323.4261000000001	0.0799788899894338	95	systole	1	B	500	systole
1324.0103	0.0799788899894338	95	systole	2	B	500	systole
1324.6044000000002	0.0799788899894338	95	systole	3	B	500	systole
1325.2044	0.0799788899894338	95	systole	4	B	500	systole
1325.8383	0.0799788899894338	95	systole	5	B	500	systole
1326.4683	0.0799788899894338	95	systole	6	B	500	systole
1327.0983	0.0799788899894338	95	systole	7	B	500	systole
1327.7184000000002	0.0799788899894338	95	systole	8	B	500	systole
1328.3226	0.0799788899894338	95	systole	9	B	500	systole
1328.9126999999999	0.0799788899894338	95	systole	10	B	500	systole
1329.5028000000002	0.0799788899894338	95	systole	11	B	500	systole
1330.1127000000001	0.0799788899894338	95	systole	12	B	500	systole
1330.6928000000003	0.0799788899894338	95	systole	13	B	500	systole
1331.3027000000002	0.0799788899894338	95	systole	14	B	500	systole
1331.9126999999999	0.0799788899894338	95	systole	15	B	500	systole
1332.5427	0.0799788899894338	95	systole	16	B	500	systole
1335.2716	0.075619823357556	96	diastole	1	B	500	diastole
1335.8817	0.075619823357556	96	diastole	2	B	500	diastole
1336.4918000000002	0.075619823357556	96	diastole	3	B	500	diastole
1337.1019000000001	0.075619823357556	96	diastole	4	B	500	diastole
1337.7018000000003	0.075619823357556	96	diastole	5	B	500	diastole
1338.2735000000002	0.075619823357556	96	diastole	6	B	500	diastole
1338.8451	0.075619823357556	96	diastole	7	B	500	diastole
1339.4250000000002	0.075619823357556	96	diastole	8	B	500	diastole
1339.9852	0.075619823357556	96	diastole	9	B	500	diastole
1340.5284000000001	0.075619823357556	96	diastole	10	B	500	diastole
1341.0618	0.075619823357556	96	diastole	11	B	500	diastole
1341.6118999999999	0.075619823357556	96	diastole	12	B	500	diastole
1342.1621	0.075619823357556	96	diastole	13	B	500	diastole
1342.7074000000002	0.075619823357556	96	diastole	14	B	500	diastole
1343.2775000000001	0.075619823357556	96	diastole	15	B	500	diastole
1343.8675000000003	0.075619823357556	96	diastole	16	B	500	diastole
1344.4675000000002	0.075619823357556	96	diastole	17	B	500	diastole
1348.3501	0.0768670359975658	97	diastole	1	B	500	diastole
1348.9500000000003	0.0768670359975658	97	diastole	2	B	500	diastole
1349.5500000000002	0.0768670359975658	97	diastole	3	B	500	diastole
1350.1498000000001	0.0768670359975658	97	diastole	4	B	500	diastole
1350.7517000000003	0.0768670359975658	97	diastole	5	B	500	diastole
1351.3636000000001	0.0768670359975658	97	diastole	6	B	500	diastole
1352.0030000000002	0.0768670359975658	97	diastole	7	B	500	diastole
1352.6425	0.0768670359975658	97	diastole	8	B	500	diastole
1353.2828	0.0768670359975658	97	diastole	9	B	500	diastole
1353.9144000000001	0.0768670359975658	97	diastole	10	B	500	diastole
1354.5444000000002	0.0768670359975658	97	diastole	11	B	500	diastole
1355.1444999999999	0.0768670359975658	97	diastole	12	B	500	diastole
1355.7546000000002	0.0768670359975658	97	diastole	13	B	500	diastole
1356.3447	0.0768670359975658	97	diastole	14	B	500	diastole
1356.9442	0.0768670359975658	97	diastole	15	B	500	diastole
1360.7337000000002	0.0737794624874368	98	systole	1	B	500	systole
1361.3536	0.0737794624874368	98	systole	2	B	500	systole
1361.9586	0.0737794624874368	98	systole	3	B	500	systole
1362.5587	0.0737794624874368	98	systole	4	B	500	systole
1363.1743000000001	0.0737794624874368	98	systole	5	B	500	systole
1363.7911	0.0737794624874368	98	systole	6	B	500	systole
1364.4011	0.0737794624874368	98	systole	7	B	500	systole
1365.0269000000003	0.0737794624874368	98	systole	8	B	500	systole
1365.6269000000002	0.0737794624874368	98	systole	9	B	500	systole
1366.2268	0.0737794624874368	98	systole	10	B	500	systole
1366.8268000000003	0.0737794624874368	98	systole	11	B	500	systole
1367.4069	0.0737794624874368	98	systole	12	B	500	systole
1367.9868999999999	0.0737794624874368	98	systole	13	B	500	systole
1368.5668	0.0737794624874368	98	systole	14	B	500	systole
1369.1309999999999	0.0737794624874368	98	systole	15	B	500	systole
1369.701	0.0737794624874368	98	systole	16	B	500	systole
1372.4749000000002	0.0737591188808437	99	diastole	1	B	500	diastole
1373.0849000000003	0.0737591188808437	99	diastole	2	B	500	diastole
1373.6930000000002	0.0737591188808437	99	diastole	3	B	500	diastole
1374.2829000000002	0.0737591188808437	99	diastole	4	B	500	diastole
1374.8728	0.0737591188808437	99	diastole	5	B	500	diastole
1375.4529000000002	0.0737591188808437	99	diastole	6	B	500	diastole
1376.0129000000002	0.0737591188808437	99	diastole	7	B	500	diastole
1376.5665	0.0737591188808437	99	diastole	8	B	500	diastole
1377.0898000000002	0.0737591188808437	99	diastole	9	B	500	diastole
1377.6231000000002	0.0737591188808437	99	diastole	10	B	500	diastole
1378.1846	0.0737591188808437	99	diastole	11	B	500	diastole
1378.7545	0.0737591188808437	99	diastole	12	B	500	diastole
1379.3845000000001	0.0737591188808437	99	diastole	13	B	500	diastole
1380.0145000000002	0.0737591188808437	99	diastole	14	B	500	diastole
1380.6444999999999	0.0737591188808437	99	diastole	15	B	500	diastole
1381.2746000000002	0.0737591188808437	99	diastole	16	B	500	diastole
1381.9147000000003	0.0737591188808437	99	diastole	17	B	500	diastole
1384.812	0.0800085124792531	100	systole	1	B	500	systole
1385.382	0.0800085124792531	100	systole	2	B	500	systole
1385.9293000000002	0.0800085124792531	100	systole	3	B	500	systole
