onset	duration	trial_num	trial_type	tone_num	tone_type	frequency	response
213.3393	0.0787386188167147	1	systole	1	A	1578.5670027440333	coherent
213.4969	0.0787386188167147	1	systole	2	B	500.0	coherent
213.6542	0.0787386188167147	1	systole	3	A	1578.5670027440333	coherent
213.9309	0.0787386188167147	1	systole	4	A	1578.5670027440333	coherent
214.0885	0.0787386188167147	1	systole	5	B	500.0	coherent
214.2458	0.0787386188167147	1	systole	6	A	1578.5670027440333	coherent
214.5209	0.0787386188167147	1	systole	7	A	1578.5670027440333	coherent
214.6785	0.0787386188167147	1	systole	8	B	500.0	coherent
214.8358	0.0787386188167147	1	systole	9	A	1578.5670027440333	coherent
215.1109	0.0787386188167147	1	systole	10	A	1578.5670027440333	coherent
215.2685	0.0787386188167147	1	systole	11	B	500.0	coherent
215.4258	0.0787386188167147	1	systole	12	A	1578.5670027440333	coherent
215.716	0.0787386188167147	1	systole	13	A	1578.5670027440333	coherent
215.8724	0.0787386188167147	1	systole	14	B	500.0	coherent
216.0285	0.0787386188167147	1	systole	15	A	1578.5670027440333	coherent
216.3068	0.0787386188167147	1	systole	16	A	1578.5670027440333	coherent
216.4607	0.0787386188167147	1	systole	17	B	500.0	coherent
216.6142	0.0787386188167147	1	systole	18	A	1578.5670027440333	coherent
216.9068	0.0787386188167147	1	systole	19	A	1578.5670027440333	coherent
217.0607	0.0787386188167147	1	systole	20	B	500.0	coherent
217.2143	0.0787386188167147	1	systole	21	A	1578.5670027440333	coherent
217.4834	0.0787386188167147	1	systole	22	A	1578.5670027440333	coherent
217.6336	0.0787386188167147	1	systole	23	B	500.0	coherent
217.7834	0.0787386188167147	1	systole	24	A	1578.5670027440333	coherent
218.0735	0.0787386188167147	1	systole	25	A	1578.5670027440333	coherent
218.2237	0.0787386188167147	1	systole	26	B	500.0	coherent
218.3735	0.0787386188167147	1	systole	27	A	1578.5670027440333	coherent
218.6636	0.0787386188167147	1	systole	28	A	1578.5670027440333	coherent
218.8138	0.0787386188167147	1	systole	29	B	500.0	coherent
218.9636	0.0787386188167147	1	systole	30	A	1578.5670027440333	coherent
219.2637	0.0787386188167147	1	systole	31	A	1578.5670027440333	coherent
219.4138	0.0787386188167147	1	systole	32	B	500.0	coherent
219.5637	0.0787386188167147	1	systole	33	A	1578.5670027440333	coherent
219.8637	0.0787386188167147	1	systole	34	A	1578.5670027440333	coherent
220.0139	0.0787386188167147	1	systole	35	B	500.0	coherent
220.1637	0.0787386188167147	1	systole	36	A	1578.5670027440333	coherent
220.4537	0.0787386188167147	1	systole	37	A	1578.5670027440333	coherent
220.6038	0.0787386188167147	1	systole	38	B	500.0	coherent
220.7537	0.0787386188167147	1	systole	39	A	1578.5670027440333	coherent
221.0436	0.0787386188167147	1	systole	40	A	1578.5670027440333	coherent
221.1938	0.0787386188167147	1	systole	41	B	500.0	coherent
221.3436	0.0787386188167147	1	systole	42	A	1578.5670027440333	coherent
221.6336	0.0787386188167147	1	systole	43	A	1578.5670027440333	coherent
221.7838	0.0787386188167147	1	systole	44	B	500.0	coherent
221.9336	0.0787386188167147	1	systole	45	A	1578.5670027440333	coherent
222.2236	0.0787386188167147	1	systole	46	A	1578.5670027440333	coherent
222.3737	0.0787386188167147	1	systole	47	B	500.0	coherent
222.5236	0.0787386188167147	1	systole	48	A	1578.5670027440333	coherent
222.8135	0.0787386188167147	1	systole	49	A	1578.5670027440333	coherent
222.9637	0.0787386188167147	1	systole	50	B	500.0	coherent
223.1136	0.0787386188167147	1	systole	51	A	1578.5670027440333	coherent
242.1895	0.0712505972478538	2	diastole	1	A	1578.5670027440333	streaming
242.3321	0.0712505972478538	2	diastole	2	B	500.0	streaming
242.4745	0.0712505972478538	2	diastole	3	A	1578.5670027440333	streaming
242.7315	0.0712505972478538	2	diastole	4	A	1578.5670027440333	streaming
242.8741	0.0712505972478538	2	diastole	5	B	500.0	streaming
243.0165	0.0712505972478538	2	diastole	6	A	1578.5670027440333	streaming
243.2734	0.0712505972478538	2	diastole	7	A	1578.5670027440333	streaming
243.4161	0.0712505972478538	2	diastole	8	B	500.0	streaming
243.5584	0.0712505972478538	2	diastole	9	A	1578.5670027440333	streaming
243.7836	0.0712505972478538	2	diastole	10	A	1578.5670027440333	streaming
243.9227	0.0712505972478538	2	diastole	11	B	500.0	streaming
244.0616	0.0712505972478538	2	diastole	12	A	1578.5670027440333	streaming
244.294	0.0712505972478538	2	diastole	13	A	1578.5670027440333	streaming
244.4314	0.0712505972478538	2	diastole	14	B	500.0	streaming
244.5685	0.0712505972478538	2	diastole	15	A	1578.5670027440333	streaming
244.818	0.0712505972478538	2	diastole	16	A	1578.5670027440333	streaming
244.9544	0.0712505972478538	2	diastole	17	B	500.0	streaming
245.0905	0.0712505972478538	2	diastole	18	A	1578.5670027440333	streaming
245.3409	0.0712505972478538	2	diastole	19	A	1578.5670027440333	streaming
245.476	0.0712505972478538	2	diastole	20	B	500.0	streaming
245.6109	0.0712505972478538	2	diastole	21	A	1578.5670027440333	streaming
245.8909	0.0712505972478538	2	diastole	22	A	1578.5670027440333	streaming
246.0261	0.0712505972478538	2	diastole	23	B	500.0	streaming
246.1609	0.0712505972478538	2	diastole	24	A	1578.5670027440333	streaming
246.4409	0.0712505972478538	2	diastole	25	A	1578.5670027440333	streaming
246.5761	0.0712505972478538	2	diastole	26	B	500.0	streaming
246.7109	0.0712505972478538	2	diastole	27	A	1578.5670027440333	streaming
247.001	0.0712505972478538	2	diastole	28	A	1578.5670027440333	streaming
247.1362	0.0712505972478538	2	diastole	29	B	500.0	streaming
247.271	0.0712505972478538	2	diastole	30	A	1578.5670027440333	streaming
247.561	0.0712505972478538	2	diastole	31	A	1578.5670027440333	streaming
247.6962	0.0712505972478538	2	diastole	32	B	500.0	streaming
247.831	0.0712505972478538	2	diastole	33	A	1578.5670027440333	streaming
248.1311	0.0712505972478538	2	diastole	34	A	1578.5670027440333	streaming
248.2662	0.0712505972478538	2	diastole	35	B	500.0	streaming
248.4011	0.0712505972478538	2	diastole	36	A	1578.5670027440333	streaming
248.7011	0.0712505972478538	2	diastole	37	A	1578.5670027440333	streaming
248.8362	0.0712505972478538	2	diastole	38	B	500.0	streaming
248.9711	0.0712505972478538	2	diastole	39	A	1578.5670027440333	streaming
249.2764	0.0712505972478538	2	diastole	40	A	1578.5670027440333	streaming
249.4126	0.0712505972478538	2	diastole	41	B	500.0	streaming
249.5484	0.0712505972478538	2	diastole	42	A	1578.5670027440333	streaming
249.8963	0.0712505972478538	2	diastole	43	A	1578.5670027440333	streaming
250.0376	0.0712505972478538	2	diastole	44	B	500.0	streaming
250.1787	0.0712505972478538	2	diastole	45	A	1578.5670027440333	streaming
250.4866	0.0712505972478538	2	diastole	46	A	1578.5670027440333	streaming
250.628	0.0712505972478538	2	diastole	47	B	500.0	streaming
250.7691	0.0712505972478538	2	diastole	48	A	1578.5670027440333	streaming
251.077	0.0712505972478538	2	diastole	49	A	1578.5670027440333	streaming
251.2184	0.0712505972478538	2	diastole	50	B	500.0	streaming
251.3595	0.0712505972478538	2	diastole	51	A	1578.5670027440333	streaming
251.6737	0.0712505972478538	2	diastole	52	A	1578.5670027440333	streaming
251.8163	0.0712505972478538	2	diastole	53	B	500.0	streaming
251.9586	0.0712505972478538	2	diastole	54	A	1578.5670027440333	streaming
262.158	0.0706381741911172	3	diastole	1	A	1169.7126981694591	streaming
262.3003	0.0706381741911172	3	diastole	2	B	500.0	streaming
262.443	0.0706381741911172	3	diastole	3	A	1169.7126981694591	streaming
262.7478	0.0706381741911172	3	diastole	4	A	1169.7126981694591	streaming
262.8902	0.0706381741911172	3	diastole	5	B	500.0	streaming
263.0328	0.0706381741911172	3	diastole	6	A	1169.7126981694591	streaming
263.3376	0.0706381741911172	3	diastole	7	A	1169.7126981694591	streaming
263.48	0.0706381741911172	3	diastole	8	B	500.0	streaming
263.6226	0.0706381741911172	3	diastole	9	A	1169.7126981694591	streaming
263.9077	0.0706381741911172	3	diastole	10	A	1169.7126981694591	streaming
264.0501	0.0706381741911172	3	diastole	11	B	500.0	streaming
264.1927	0.0706381741911172	3	diastole	12	A	1169.7126981694591	streaming
264.4677	0.0706381741911172	3	diastole	13	A	1169.7126981694591	streaming
264.61	0.0706381741911172	3	diastole	14	B	500.0	streaming
264.7527	0.0706381741911172	3	diastole	15	A	1169.7126981694591	streaming
265.0276	0.0706381741911172	3	diastole	16	A	1169.7126981694591	streaming
265.17	0.0706381741911172	3	diastole	17	B	500.0	streaming
265.3126	0.0706381741911172	3	diastole	18	A	1169.7126981694591	streaming
265.5708	0.0706381741911172	3	diastole	19	A	1169.7126981694591	streaming
265.7119	0.0706381741911172	3	diastole	20	B	500.0	streaming
265.8533	0.0706381741911172	3	diastole	21	A	1169.7126981694591	streaming
266.1408	0.0706381741911172	3	diastole	22	A	1169.7126981694591	streaming
266.2819	0.0706381741911172	3	diastole	23	B	500.0	streaming
266.4233	0.0706381741911172	3	diastole	24	A	1169.7126981694591	streaming
266.711	0.0706381741911172	3	diastole	25	A	1169.7126981694591	streaming
266.8521	0.0706381741911172	3	diastole	26	B	500.0	streaming
266.9935	0.0706381741911172	3	diastole	27	A	1169.7126981694591	streaming
267.271	0.0706381741911172	3	diastole	28	A	1169.7126981694591	streaming
267.4121	0.0706381741911172	3	diastole	29	B	500.0	streaming
267.5535	0.0706381741911172	3	diastole	30	A	1169.7126981694591	streaming
267.8235	0.0706381741911172	3	diastole	31	A	1169.7126981694591	streaming
267.9634	0.0706381741911172	3	diastole	32	B	500.0	streaming
268.1035	0.0706381741911172	3	diastole	33	A	1169.7126981694591	streaming
268.3832	0.0706381741911172	3	diastole	34	A	1169.7126981694591	streaming
268.523	0.0706381741911172	3	diastole	35	B	500.0	streaming
268.6632	0.0706381741911172	3	diastole	36	A	1169.7126981694591	streaming
268.9435	0.0706381741911172	3	diastole	37	A	1169.7126981694591	streaming
269.0834	0.0706381741911172	3	diastole	38	B	500.0	streaming
269.2235	0.0706381741911172	3	diastole	39	A	1169.7126981694591	streaming
269.5035	0.0706381741911172	3	diastole	40	A	1169.7126981694591	streaming
269.6434	0.0706381741911172	3	diastole	41	B	500.0	streaming
269.7835	0.0706381741911172	3	diastole	42	A	1169.7126981694591	streaming
270.0636	0.0706381741911172	3	diastole	43	A	1169.7126981694591	streaming
270.2034	0.0706381741911172	3	diastole	44	B	500.0	streaming
270.3436	0.0706381741911172	3	diastole	45	A	1169.7126981694591	streaming
270.6441	0.0706381741911172	3	diastole	46	A	1169.7126981694591	streaming
270.7839	0.0706381741911172	3	diastole	47	B	500.0	streaming
270.9241	0.0706381741911172	3	diastole	48	A	1169.7126981694591	streaming
271.2239	0.0706381741911172	3	diastole	49	A	1169.7126981694591	streaming
271.3638	0.0706381741911172	3	diastole	50	B	500.0	streaming
271.504	0.0706381741911172	3	diastole	51	A	1169.7126981694591	streaming
271.8009	0.0706381741911172	3	diastole	52	A	1169.7126981694591	streaming
271.942	0.0706381741911172	3	diastole	53	B	500.0	streaming
272.0835	0.0706381741911172	3	diastole	54	A	1169.7126981694591	streaming
275.4138	0.0706385520752519	4	systole	1	A	2180.0224995339627	streaming
275.5539	0.0706385520752519	4	systole	2	B	500.0	streaming
275.6939	0.0706385520752519	4	systole	3	A	2180.0224995339627	streaming
275.9738	0.0706385520752519	4	systole	4	A	2180.0224995339627	streaming
276.1139	0.0706385520752519	4	systole	5	B	500.0	streaming
276.2539	0.0706385520752519	4	systole	6	A	2180.0224995339627	streaming
276.5336	0.0706385520752519	4	systole	7	A	2180.0224995339627	streaming
276.6736	0.0706385520752519	4	systole	8	B	500.0	streaming
276.8137	0.0706385520752519	4	systole	9	A	2180.0224995339627	streaming
277.1036	0.0706385520752519	4	systole	10	A	2180.0224995339627	streaming
277.2436	0.0706385520752519	4	systole	11	B	500.0	streaming
277.3836	0.0706385520752519	4	systole	12	A	2180.0224995339627	streaming
277.6736	0.0706385520752519	4	systole	13	A	2180.0224995339627	streaming
277.8136	0.0706385520752519	4	systole	14	B	500.0	streaming
277.9537	0.0706385520752519	4	systole	15	A	2180.0224995339627	streaming
278.2337	0.0706385520752519	4	systole	16	A	2180.0224995339627	streaming
278.3737	0.0706385520752519	4	systole	17	B	500.0	streaming
278.5137	0.0706385520752519	4	systole	18	A	2180.0224995339627	streaming
278.7936	0.0706385520752519	4	systole	19	A	2180.0224995339627	streaming
278.9336	0.0706385520752519	4	systole	20	B	500.0	streaming
279.0736	0.0706385520752519	4	systole	21	A	2180.0224995339627	streaming
279.3638	0.0706385520752519	4	systole	22	A	2180.0224995339627	streaming
279.5038	0.0706385520752519	4	systole	23	B	500.0	streaming
279.6438	0.0706385520752519	4	systole	24	A	2180.0224995339627	streaming
279.9339	0.0706385520752519	4	systole	25	A	2180.0224995339627	streaming
280.0739	0.0706385520752519	4	systole	26	B	500.0	streaming
280.2139	0.0706385520752519	4	systole	27	A	2180.0224995339627	streaming
280.5285	0.0706385520752519	4	systole	28	A	2180.0224995339627	streaming
280.6697	0.0706385520752519	4	systole	29	B	500.0	streaming
280.811	0.0706385520752519	4	systole	30	A	2180.0224995339627	streaming
281.103	0.0706385520752519	4	systole	31	A	2180.0224995339627	streaming
281.2455	0.0706385520752519	4	systole	32	B	500.0	streaming
281.388	0.0706385520752519	4	systole	33	A	2180.0224995339627	streaming
281.6628	0.0706385520752519	4	systole	34	A	2180.0224995339627	streaming
281.8053	0.0706385520752519	4	systole	35	B	500.0	streaming
281.9478	0.0706385520752519	4	systole	36	A	2180.0224995339627	streaming
282.2226	0.0706385520752519	4	systole	37	A	2180.0224995339627	streaming
282.3651	0.0706385520752519	4	systole	38	B	500.0	streaming
282.5076	0.0706385520752519	4	systole	39	A	2180.0224995339627	streaming
282.7925	0.0706385520752519	4	systole	40	A	2180.0224995339627	streaming
282.935	0.0706385520752519	4	systole	41	B	500.0	streaming
283.0775	0.0706385520752519	4	systole	42	A	2180.0224995339627	streaming
283.3726	0.0706385520752519	4	systole	43	A	2180.0224995339627	streaming
283.5151	0.0706385520752519	4	systole	44	B	500.0	streaming
283.6576	0.0706385520752519	4	systole	45	A	2180.0224995339627	streaming
283.9726	0.0706385520752519	4	systole	46	A	2180.0224995339627	streaming
284.1151	0.0706385520752519	4	systole	47	B	500.0	streaming
284.2576	0.0706385520752519	4	systole	48	A	2180.0224995339627	streaming
284.5726	0.0706385520752519	4	systole	49	A	2180.0224995339627	streaming
284.7151	0.0706385520752519	4	systole	50	B	500.0	streaming
284.8576	0.0706385520752519	4	systole	51	A	2180.0224995339627	streaming
285.1672	0.0706385520752519	4	systole	52	A	2180.0224995339627	streaming
285.311	0.0706385520752519	4	systole	53	B	500.0	streaming
285.4547	0.0706385520752519	4	systole	54	A	2180.0224995339627	streaming
290.4622	0.0725049095344729	5	systole	1	A	1253.4921645871675	coherent
290.6072	0.0725049095344729	5	systole	2	B	500.0	coherent
290.7523	0.0725049095344729	5	systole	3	A	1253.4921645871675	coherent
291.0323	0.0725049095344729	5	systole	4	A	1253.4921645871675	coherent
291.1772	0.0725049095344729	5	systole	5	B	500.0	coherent
291.3223	0.0725049095344729	5	systole	6	A	1253.4921645871675	coherent
291.6019	0.0725049095344729	5	systole	7	A	1253.4921645871675	coherent
291.7468	0.0725049095344729	5	systole	8	B	500.0	coherent
291.8919	0.0725049095344729	5	systole	9	A	1253.4921645871675	coherent
292.1766	0.0725049095344729	5	systole	10	A	1253.4921645871675	coherent
292.3228	0.0725049095344729	5	systole	11	B	500.0	coherent
292.4692	0.0725049095344729	5	systole	12	A	1253.4921645871675	coherent
292.7466	0.0725049095344729	5	systole	13	A	1253.4921645871675	coherent
292.8928	0.0725049095344729	5	systole	14	B	500.0	coherent
293.0392	0.0725049095344729	5	systole	15	A	1253.4921645871675	coherent
293.3075	0.0725049095344729	5	systole	16	A	1253.4921645871675	coherent
293.4512	0.0725049095344729	5	systole	17	B	500.0	coherent
293.5952	0.0725049095344729	5	systole	18	A	1253.4921645871675	coherent
293.8624	0.0725049095344729	5	systole	19	A	1253.4921645871675	coherent
294.0048	0.0725049095344729	5	systole	20	B	500.0	coherent
294.1474	0.0725049095344729	5	systole	21	A	1253.4921645871675	coherent
294.4124	0.0725049095344729	5	systole	22	A	1253.4921645871675	coherent
294.5549	0.0725049095344729	5	systole	23	B	500.0	coherent
294.6974	0.0725049095344729	5	systole	24	A	1253.4921645871675	coherent
294.9625	0.0725049095344729	5	systole	25	A	1253.4921645871675	coherent
295.1049	0.0725049095344729	5	systole	26	B	500.0	coherent
295.2475	0.0725049095344729	5	systole	27	A	1253.4921645871675	coherent
295.5325	0.0725049095344729	5	systole	28	A	1253.4921645871675	coherent
295.6749	0.0725049095344729	5	systole	29	B	500.0	coherent
295.8175	0.0725049095344729	5	systole	30	A	1253.4921645871675	coherent
296.0925	0.0725049095344729	5	systole	31	A	1253.4921645871675	coherent
296.235	0.0725049095344729	5	systole	32	B	500.0	coherent
296.3775	0.0725049095344729	5	systole	33	A	1253.4921645871675	coherent
296.6625	0.0725049095344729	5	systole	34	A	1253.4921645871675	coherent
296.8049	0.0725049095344729	5	systole	35	B	500.0	coherent
296.9475	0.0725049095344729	5	systole	36	A	1253.4921645871675	coherent
297.2225	0.0725049095344729	5	systole	37	A	1253.4921645871675	coherent
297.3649	0.0725049095344729	5	systole	38	B	500.0	coherent
297.5075	0.0725049095344729	5	systole	39	A	1253.4921645871675	coherent
297.7825	0.0725049095344729	5	systole	40	A	1253.4921645871675	coherent
297.9249	0.0725049095344729	5	systole	41	B	500.0	coherent
298.0675	0.0725049095344729	5	systole	42	A	1253.4921645871675	coherent
298.4125	0.0725049095344729	5	systole	43	A	1253.4921645871675	coherent
298.5549	0.0725049095344729	5	systole	44	B	500.0	coherent
298.6975	0.0725049095344729	5	systole	45	A	1253.4921645871675	coherent
299.0325	0.0725049095344729	5	systole	46	A	1253.4921645871675	coherent
299.1749	0.0725049095344729	5	systole	47	B	500.0	coherent
299.3175	0.0725049095344729	5	systole	48	A	1253.4921645871675	coherent
299.6525	0.0725049095344729	5	systole	49	A	1253.4921645871675	coherent
299.7949	0.0725049095344729	5	systole	50	B	500.0	coherent
299.9375	0.0725049095344729	5	systole	51	A	1253.4921645871675	coherent
304.4502	0.0749991625198163	6	systole	1	A	2621.646269519023	streaming
304.6003	0.0749991625198163	6	systole	2	B	500.0	streaming
304.7501	0.0749991625198163	6	systole	3	A	2621.646269519023	streaming
305.0202	0.0749991625198163	6	systole	4	A	2621.646269519023	streaming
305.1703	0.0749991625198163	6	systole	5	B	500.0	streaming
305.3201	0.0749991625198163	6	systole	6	A	2621.646269519023	streaming
305.5755	0.0749991625198163	6	systole	7	A	2621.646269519023	streaming
305.7245	0.0749991625198163	6	systole	8	B	500.0	streaming
305.873	0.0749991625198163	6	systole	9	A	2621.646269519023	streaming
306.1355	0.0749991625198163	6	systole	10	A	2621.646269519023	streaming
306.2844	0.0749991625198163	6	systole	11	B	500.0	streaming
306.433	0.0749991625198163	6	systole	12	A	2621.646269519023	streaming
306.6954	0.0749991625198163	6	systole	13	A	2621.646269519023	streaming
306.8443	0.0749991625198163	6	systole	14	B	500.0	streaming
306.9929	0.0749991625198163	6	systole	15	A	2621.646269519023	streaming
307.2325	0.0749991625198163	6	systole	16	A	2621.646269519023	streaming
307.3752	0.0749991625198163	6	systole	17	B	500.0	streaming
307.5175	0.0749991625198163	6	systole	18	A	2621.646269519023	streaming
307.7825	0.0749991625198163	6	systole	19	A	2621.646269519023	streaming
307.9252	0.0749991625198163	6	systole	20	B	500.0	streaming
308.0675	0.0749991625198163	6	systole	21	A	2621.646269519023	streaming
308.3179	0.0749991625198163	6	systole	22	A	2621.646269519023	streaming
308.4594	0.0749991625198163	6	systole	23	B	500.0	streaming
308.6004	0.0749991625198163	6	systole	24	A	2621.646269519023	streaming
308.858	0.0749991625198163	6	systole	25	A	2621.646269519023	streaming
308.9994	0.0749991625198163	6	systole	26	B	500.0	streaming
309.1405	0.0749991625198163	6	systole	27	A	2621.646269519023	streaming
309.4035	0.0749991625198163	6	systole	28	A	2621.646269519023	streaming
309.5437	0.0749991625198163	6	systole	29	B	500.0	streaming
309.6835	0.0749991625198163	6	systole	30	A	2621.646269519023	streaming
309.9834	0.0749991625198163	6	systole	31	A	2621.646269519023	streaming
310.1236	0.0749991625198163	6	systole	32	B	500.0	streaming
310.2634	0.0749991625198163	6	systole	33	A	2621.646269519023	streaming
310.5634	0.0749991625198163	6	systole	34	A	2621.646269519023	streaming
310.7036	0.0749991625198163	6	systole	35	B	500.0	streaming
310.8434	0.0749991625198163	6	systole	36	A	2621.646269519023	streaming
311.1335	0.0749991625198163	6	systole	37	A	2621.646269519023	streaming
311.2736	0.0749991625198163	6	systole	38	B	500.0	streaming
311.4135	0.0749991625198163	6	systole	39	A	2621.646269519023	streaming
311.7035	0.0749991625198163	6	systole	40	A	2621.646269519023	streaming
311.8436	0.0749991625198163	6	systole	41	B	500.0	streaming
311.9835	0.0749991625198163	6	systole	42	A	2621.646269519023	streaming
312.2734	0.0749991625198163	6	systole	43	A	2621.646269519023	streaming
312.4136	0.0749991625198163	6	systole	44	B	500.0	streaming
312.5535	0.0749991625198163	6	systole	45	A	2621.646269519023	streaming
312.845	0.0749991625198163	6	systole	46	A	2621.646269519023	streaming
312.9852	0.0749991625198163	6	systole	47	B	500.0	streaming
313.125	0.0749991625198163	6	systole	48	A	2621.646269519023	streaming
313.438	0.0749991625198163	6	systole	49	A	2621.646269519023	streaming
313.5795	0.0749991625198163	6	systole	50	B	500.0	streaming
313.7205	0.0749991625198163	6	systole	51	A	2621.646269519023	streaming
316.2222	0.0719753001467324	7	diastole	1	A	1282.731510155574	streaming
316.3672	0.0719753001467324	7	diastole	2	B	500.0	streaming
316.5122	0.0719753001467324	7	diastole	3	A	1282.731510155574	streaming
316.8074	0.0719753001467324	7	diastole	4	A	1282.731510155574	streaming
316.9534	0.0719753001467324	7	diastole	5	B	500.0	streaming
317.0994	0.0719753001467324	7	diastole	6	A	1282.731510155574	streaming
317.387	0.0719753001467324	7	diastole	7	A	1282.731510155574	streaming
317.533	0.0719753001467324	7	diastole	8	B	500.0	streaming
317.679	0.0719753001467324	7	diastole	9	A	1282.731510155574	streaming
317.9666	0.0719753001467324	7	diastole	10	A	1282.731510155574	streaming
318.1125	0.0719753001467324	7	diastole	11	B	500.0	streaming
318.2586	0.0719753001467324	7	diastole	12	A	1282.731510155574	streaming
318.5268	0.0719753001467324	7	diastole	13	A	1282.731510155574	streaming
318.6729	0.0719753001467324	7	diastole	14	B	500.0	streaming
318.819	0.0719753001467324	7	diastole	15	A	1282.731510155574	streaming
319.0865	0.0719753001467324	7	diastole	16	A	1282.731510155574	streaming
319.2325	0.0719753001467324	7	diastole	17	B	500.0	streaming
319.3787	0.0719753001467324	7	diastole	18	A	1282.731510155574	streaming
319.6565	0.0719753001467324	7	diastole	19	A	1282.731510155574	streaming
319.8026	0.0719753001467324	7	diastole	20	B	500.0	streaming
319.9487	0.0719753001467324	7	diastole	21	A	1282.731510155574	streaming
320.2169	0.0719753001467324	7	diastole	22	A	1282.731510155574	streaming
320.3629	0.0719753001467324	7	diastole	23	B	500.0	streaming
320.5091	0.0719753001467324	7	diastole	24	A	1282.731510155574	streaming
320.7702	0.0719753001467324	7	diastole	25	A	1282.731510155574	streaming
320.9151	0.0719753001467324	7	diastole	26	B	500.0	streaming
321.0602	0.0719753001467324	7	diastole	27	A	1282.731510155574	streaming
321.2992	0.0719753001467324	7	diastole	28	A	1282.731510155574	streaming
321.4405	0.0719753001467324	7	diastole	29	B	500.0	streaming
321.5818	0.0719753001467324	7	diastole	30	A	1282.731510155574	streaming
321.8414	0.0719753001467324	7	diastole	31	A	1282.731510155574	streaming
321.9812	0.0719753001467324	7	diastole	32	B	500.0	streaming
322.1212	0.0719753001467324	7	diastole	33	A	1282.731510155574	streaming
322.3914	0.0719753001467324	7	diastole	34	A	1282.731510155574	streaming
322.5313	0.0719753001467324	7	diastole	35	B	500.0	streaming
322.6712	0.0719753001467324	7	diastole	36	A	1282.731510155574	streaming
322.9345	0.0719753001467324	7	diastole	37	A	1282.731510155574	streaming
323.0732	0.0719753001467324	7	diastole	38	B	500.0	streaming
323.2119	0.0719753001467324	7	diastole	39	A	1282.731510155574	streaming
323.4778	0.0719753001467324	7	diastole	40	A	1282.731510155574	streaming
323.6153	0.0719753001467324	7	diastole	41	B	500.0	streaming
323.7528	0.0719753001467324	7	diastole	42	A	1282.731510155574	streaming
324.0278	0.0719753001467324	7	diastole	43	A	1282.731510155574	streaming
324.1653	0.0719753001467324	7	diastole	44	B	500.0	streaming
324.3029	0.0719753001467324	7	diastole	45	A	1282.731510155574	streaming
324.5779	0.0719753001467324	7	diastole	46	A	1282.731510155574	streaming
324.7154	0.0719753001467324	7	diastole	47	B	500.0	streaming
324.8529	0.0719753001467324	7	diastole	48	A	1282.731510155574	streaming
325.128	0.0719753001467324	7	diastole	49	A	1282.731510155574	streaming
325.2654	0.0719753001467324	7	diastole	50	B	500.0	streaming
325.403	0.0719753001467324	7	diastole	51	A	1282.731510155574	streaming
325.6579	0.0719753001467324	7	diastole	52	A	1282.731510155574	streaming
325.7954	0.0719753001467324	7	diastole	53	B	500.0	streaming
325.9329	0.0719753001467324	7	diastole	54	A	1282.731510155574	streaming
328.2884	0.0687569685396738	8	systole	1	A	1196.9977780158051	streaming
328.4294	0.0687569685396738	8	systole	2	B	500.0	streaming
328.5708	0.0687569685396738	8	systole	3	A	1196.9977780158051	streaming
328.8675	0.0687569685396738	8	systole	4	A	1196.9977780158051	streaming
329.011	0.0687569685396738	8	systole	5	B	500.0	streaming
329.1549	0.0687569685396738	8	systole	6	A	1196.9977780158051	streaming
329.4374	0.0687569685396738	8	systole	7	A	1196.9977780158051	streaming
329.581	0.0687569685396738	8	systole	8	B	500.0	streaming
329.7249	0.0687569685396738	8	systole	9	A	1196.9977780158051	streaming
330.0075	0.0687569685396738	8	systole	10	A	1196.9977780158051	streaming
330.1511	0.0687569685396738	8	systole	11	B	500.0	streaming
330.2949	0.0687569685396738	8	systole	12	A	1196.9977780158051	streaming
330.5675	0.0687569685396738	8	systole	13	A	1196.9977780158051	streaming
330.7111	0.0687569685396738	8	systole	14	B	500.0	streaming
330.8549	0.0687569685396738	8	systole	15	A	1196.9977780158051	streaming
331.1398	0.0687569685396738	8	systole	16	A	1196.9977780158051	streaming
331.2835	0.0687569685396738	8	systole	17	B	500.0	streaming
331.4276	0.0687569685396738	8	systole	18	A	1196.9977780158051	streaming
331.6936	0.0687569685396738	8	systole	19	A	1196.9977780158051	streaming
331.8362	0.0687569685396738	8	systole	20	B	500.0	streaming
331.979	0.0687569685396738	8	systole	21	A	1196.9977780158051	streaming
332.243	0.0687569685396738	8	systole	22	A	1196.9977780158051	streaming
332.3854	0.0687569685396738	8	systole	23	B	500.0	streaming
332.528	0.0687569685396738	8	systole	24	A	1196.9977780158051	streaming
332.7931	0.0687569685396738	8	systole	25	A	1196.9977780158051	streaming
332.9355	0.0687569685396738	8	systole	26	B	500.0	streaming
333.0781	0.0687569685396738	8	systole	27	A	1196.9977780158051	streaming
333.3331	0.0687569685396738	8	systole	28	A	1196.9977780158051	streaming
333.4754	0.0687569685396738	8	systole	29	B	500.0	streaming
333.6181	0.0687569685396738	8	systole	30	A	1196.9977780158051	streaming
333.8731	0.0687569685396738	8	systole	31	A	1196.9977780158051	streaming
334.0154	0.0687569685396738	8	systole	32	B	500.0	streaming
334.1581	0.0687569685396738	8	systole	33	A	1196.9977780158051	streaming
334.4385	0.0687569685396738	8	systole	34	A	1196.9977780158051	streaming
334.5796	0.0687569685396738	8	systole	35	B	500.0	streaming
334.7209	0.0687569685396738	8	systole	36	A	1196.9977780158051	streaming
335.0286	0.0687569685396738	8	systole	37	A	1196.9977780158051	streaming
335.1697	0.0687569685396738	8	systole	38	B	500.0	streaming
335.3111	0.0687569685396738	8	systole	39	A	1196.9977780158051	streaming
335.6187	0.0687569685396738	8	systole	40	A	1196.9977780158051	streaming
335.7598	0.0687569685396738	8	systole	41	B	500.0	streaming
335.9012	0.0687569685396738	8	systole	42	A	1196.9977780158051	streaming
336.2133	0.0687569685396738	8	systole	43	A	1196.9977780158051	streaming
336.3556	0.0687569685396738	8	systole	44	B	500.0	streaming
336.4983	0.0687569685396738	8	systole	45	A	1196.9977780158051	streaming
336.7834	0.0687569685396738	8	systole	46	A	1196.9977780158051	streaming
336.9257	0.0687569685396738	8	systole	47	B	500.0	streaming
337.0684	0.0687569685396738	8	systole	48	A	1196.9977780158051	streaming
337.3535	0.0687569685396738	8	systole	49	A	1196.9977780158051	streaming
337.4958	0.0687569685396738	8	systole	50	B	500.0	streaming
337.6385	0.0687569685396738	8	systole	51	A	1196.9977780158051	streaming
339.8355	0.0731268084491603	9	systole	1	A	754.7629107028698	coherent
339.9586	0.0731268084491603	9	systole	2	B	500.0	coherent
340.1058	0.0731268084491603	9	systole	3	A	754.7629107028698	coherent
340.4209	0.0731268084491603	9	systole	4	A	754.7629107028698	coherent
340.5687	0.0731268084491603	9	systole	5	B	500.0	coherent
340.7159	0.0731268084491603	9	systole	6	A	754.7629107028698	coherent
340.9963	0.0731268084491603	9	systole	7	A	754.7629107028698	coherent
341.1428	0.0731268084491603	9	systole	8	B	500.0	coherent
341.2888	0.0731268084491603	9	systole	9	A	754.7629107028698	coherent
341.5764	0.0731268084491603	9	systole	10	A	754.7629107028698	coherent
341.7229	0.0731268084491603	9	systole	11	B	500.0	coherent
341.8689	0.0731268084491603	9	systole	12	A	754.7629107028698	coherent
342.1519	0.0731268084491603	9	systole	13	A	754.7629107028698	coherent
342.2972	0.0731268084491603	9	systole	14	B	500.0	coherent
342.4419	0.0731268084491603	9	systole	15	A	754.7629107028698	coherent
342.7319	0.0731268084491603	9	systole	16	A	754.7629107028698	coherent
342.8772	0.0731268084491603	9	systole	17	B	500.0	coherent
343.0219	0.0731268084491603	9	systole	18	A	754.7629107028698	coherent
343.3265	0.0731268084491603	9	systole	19	A	754.7629107028698	coherent
343.473	0.0731268084491603	9	systole	20	B	500.0	coherent
343.619	0.0731268084491603	9	systole	21	A	754.7629107028698	coherent
343.8964	0.0731268084491603	9	systole	22	A	754.7629107028698	coherent
344.043	0.0731268084491603	9	systole	23	B	500.0	coherent
344.189	0.0731268084491603	9	systole	24	A	754.7629107028698	coherent
344.4664	0.0731268084491603	9	systole	25	A	754.7629107028698	coherent
344.613	0.0731268084491603	9	systole	26	B	500.0	coherent
344.7589	0.0731268084491603	9	systole	27	A	754.7629107028698	coherent
345.0364	0.0731268084491603	9	systole	28	A	754.7629107028698	coherent
345.1829	0.0731268084491603	9	systole	29	B	500.0	coherent
345.3289	0.0731268084491603	9	systole	30	A	754.7629107028698	coherent
345.5918	0.0731268084491603	9	systole	31	A	754.7629107028698	coherent
345.7371	0.0731268084491603	9	systole	32	B	500.0	coherent
345.8819	0.0731268084491603	9	systole	33	A	754.7629107028698	coherent
346.1518	0.0731268084491603	9	systole	34	A	754.7629107028698	coherent
346.2971	0.0731268084491603	9	systole	35	B	500.0	coherent
346.4419	0.0731268084491603	9	systole	36	A	754.7629107028698	coherent
346.7072	0.0731268084491603	9	systole	37	A	754.7629107028698	coherent
346.8513	0.0731268084491603	9	systole	38	B	500.0	coherent
346.9947	0.0731268084491603	9	systole	39	A	754.7629107028698	coherent
347.2626	0.0731268084491603	9	systole	40	A	754.7629107028698	coherent
347.4054	0.0731268084491603	9	systole	41	B	500.0	coherent
347.5476	0.0731268084491603	9	systole	42	A	754.7629107028698	coherent
347.8326	0.0731268084491603	9	systole	43	A	754.7629107028698	coherent
347.9754	0.0731268084491603	9	systole	44	B	500.0	coherent
348.1176	0.0731268084491603	9	systole	45	A	754.7629107028698	coherent
348.3881	0.0731268084491603	9	systole	46	A	754.7629107028698	coherent
348.5296	0.0731268084491603	9	systole	47	B	500.0	coherent
348.6706	0.0731268084491603	9	systole	48	A	754.7629107028698	coherent
348.958	0.0731268084491603	9	systole	49	A	754.7629107028698	coherent
349.0996	0.0731268084491603	9	systole	50	B	500.0	coherent
349.2405	0.0731268084491603	9	systole	51	A	754.7629107028698	coherent
349.5135	0.0731268084491603	9	systole	52	A	754.7629107028698	coherent
349.6538	0.0731268084491603	9	systole	53	B	500.0	coherent
349.7935	0.0731268084491603	9	systole	54	A	754.7629107028698	coherent
352.0474	0.0706242937594652	10	diastole	1	A	846.9957848672357	streaming
352.1902	0.0706242937594652	10	diastole	2	B	500.0	streaming
352.3324	0.0706242937594652	10	diastole	3	A	846.9957848672357	streaming
352.6173	0.0706242937594652	10	diastole	4	A	846.9957848672357	streaming
352.7601	0.0706242937594652	10	diastole	5	B	500.0	streaming
352.9022	0.0706242937594652	10	diastole	6	A	846.9957848672357	streaming
353.1872	0.0706242937594652	10	diastole	7	A	846.9957848672357	streaming
353.33	0.0706242937594652	10	diastole	8	B	500.0	streaming
353.4722	0.0706242937594652	10	diastole	9	A	846.9957848672357	streaming
353.7673	0.0706242937594652	10	diastole	10	A	846.9957848672357	streaming
353.9101	0.0706242937594652	10	diastole	11	B	500.0	streaming
354.0523	0.0706242937594652	10	diastole	12	A	846.9957848672357	streaming
354.3473	0.0706242937594652	10	diastole	13	A	846.9957848672357	streaming
354.4901	0.0706242937594652	10	diastole	14	B	500.0	streaming
354.6323	0.0706242937594652	10	diastole	15	A	846.9957848672357	streaming
354.9274	0.0706242937594652	10	diastole	16	A	846.9957848672357	streaming
355.0702	0.0706242937594652	10	diastole	17	B	500.0	streaming
355.2124	0.0706242937594652	10	diastole	18	A	846.9957848672357	streaming
355.5145	0.0706242937594652	10	diastole	19	A	846.9957848672357	streaming
355.6586	0.0706242937594652	10	diastole	20	B	500.0	streaming
355.802	0.0706242937594652	10	diastole	21	A	846.9957848672357	streaming
356.0945	0.0706242937594652	10	diastole	22	A	846.9957848672357	streaming
356.2386	0.0706242937594652	10	diastole	23	B	500.0	streaming
356.382	0.0706242937594652	10	diastole	24	A	846.9957848672357	streaming
356.6645	0.0706242937594652	10	diastole	25	A	846.9957848672357	streaming
356.8085	0.0706242937594652	10	diastole	26	B	500.0	streaming
356.952	0.0706242937594652	10	diastole	27	A	846.9957848672357	streaming
357.2345	0.0706242937594652	10	diastole	28	A	846.9957848672357	streaming
357.3785	0.0706242937594652	10	diastole	29	B	500.0	streaming
357.522	0.0706242937594652	10	diastole	30	A	846.9957848672357	streaming
357.8045	0.0706242937594652	10	diastole	31	A	846.9957848672357	streaming
357.9486	0.0706242937594652	10	diastole	32	B	500.0	streaming
358.092	0.0706242937594652	10	diastole	33	A	846.9957848672357	streaming
358.3745	0.0706242937594652	10	diastole	34	A	846.9957848672357	streaming
358.5186	0.0706242937594652	10	diastole	35	B	500.0	streaming
358.662	0.0706242937594652	10	diastole	36	A	846.9957848672357	streaming
358.9445	0.0706242937594652	10	diastole	37	A	846.9957848672357	streaming
359.0886	0.0706242937594652	10	diastole	38	B	500.0	streaming
359.232	0.0706242937594652	10	diastole	39	A	846.9957848672357	streaming
359.4975	0.0706242937594652	10	diastole	40	A	846.9957848672357	streaming
359.6403	0.0706242937594652	10	diastole	41	B	500.0	streaming
359.7825	0.0706242937594652	10	diastole	42	A	846.9957848672357	streaming
360.0473	0.0706242937594652	10	diastole	43	A	846.9957848672357	streaming
360.1902	0.0706242937594652	10	diastole	44	B	500.0	streaming
360.3323	0.0706242937594652	10	diastole	45	A	846.9957848672357	streaming
360.5804	0.0706242937594652	10	diastole	46	A	846.9957848672357	streaming
360.722	0.0706242937594652	10	diastole	47	B	500.0	streaming
360.8629	0.0706242937594652	10	diastole	48	A	846.9957848672357	streaming
361.1431	0.0706242937594652	10	diastole	49	A	846.9957848672357	streaming
361.2834	0.0706242937594652	10	diastole	50	B	500.0	streaming
361.4231	0.0706242937594652	10	diastole	51	A	846.9957848672357	streaming
363.7916	0.0706283874460496	11	systole	1	A	3010.640720484466	streaming
363.9368	0.0706283874460496	11	systole	2	B	500.0	streaming
364.0815	0.0706283874460496	11	systole	3	A	3010.640720484466	streaming
364.3816	0.0706283874460496	11	systole	4	A	3010.640720484466	streaming
364.5269	0.0706283874460496	11	systole	5	B	500.0	streaming
364.6716	0.0706283874460496	11	systole	6	A	3010.640720484466	streaming
364.9717	0.0706283874460496	11	systole	7	A	3010.640720484466	streaming
365.1169	0.0706283874460496	11	systole	8	B	500.0	streaming
365.2616	0.0706283874460496	11	systole	9	A	3010.640720484466	streaming
365.5464	0.0706283874460496	11	systole	10	A	3010.640720484466	streaming
365.6929	0.0706283874460496	11	systole	11	B	500.0	streaming
365.8389	0.0706283874460496	11	systole	12	A	3010.640720484466	streaming
366.1064	0.0706283874460496	11	systole	13	A	3010.640720484466	streaming
366.2529	0.0706283874460496	11	systole	14	B	500.0	streaming
366.3989	0.0706283874460496	11	systole	15	A	3010.640720484466	streaming
366.6664	0.0706283874460496	11	systole	16	A	3010.640720484466	streaming
366.8129	0.0706283874460496	11	systole	17	B	500.0	streaming
366.9589	0.0706283874460496	11	systole	18	A	3010.640720484466	streaming
367.2164	0.0706283874460496	11	systole	19	A	3010.640720484466	streaming
367.3629	0.0706283874460496	11	systole	20	B	500.0	streaming
367.5089	0.0706283874460496	11	systole	21	A	3010.640720484466	streaming
367.7664	0.0706283874460496	11	systole	22	A	3010.640720484466	streaming
367.9129	0.0706283874460496	11	systole	23	B	500.0	streaming
368.0589	0.0706283874460496	11	systole	24	A	3010.640720484466	streaming
368.3164	0.0706283874460496	11	systole	25	A	3010.640720484466	streaming
368.4629	0.0706283874460496	11	systole	26	B	500.0	streaming
368.6089	0.0706283874460496	11	systole	27	A	3010.640720484466	streaming
368.8618	0.0706283874460496	11	systole	28	A	3010.640720484466	streaming
369.007	0.0706283874460496	11	systole	29	B	500.0	streaming
369.1518	0.0706283874460496	11	systole	30	A	3010.640720484466	streaming
369.4172	0.0706283874460496	11	systole	31	A	3010.640720484466	streaming
369.5613	0.0706283874460496	11	systole	32	B	500.0	streaming
369.7047	0.0706283874460496	11	systole	33	A	3010.640720484466	streaming
369.9581	0.0706283874460496	11	systole	34	A	3010.640720484466	streaming
370.0996	0.0706283874460496	11	systole	35	B	500.0	streaming
370.2406	0.0706283874460496	11	systole	36	A	3010.640720484466	streaming
370.4889	0.0706283874460496	11	systole	37	A	3010.640720484466	streaming
370.6279	0.0706283874460496	11	systole	38	B	500.0	streaming
370.7664	0.0706283874460496	11	systole	39	A	3010.640720484466	streaming
371.0243	0.0706283874460496	11	systole	40	A	3010.640720484466	streaming
371.1621	0.0706283874460496	11	systole	41	B	500.0	streaming
371.2993	0.0706283874460496	11	systole	42	A	3010.640720484466	streaming
371.5643	0.0706283874460496	11	systole	43	A	3010.640720484466	streaming
371.7021	0.0706283874460496	11	systole	44	B	500.0	streaming
371.8393	0.0706283874460496	11	systole	45	A	3010.640720484466	streaming
372.1043	0.0706283874460496	11	systole	46	A	3010.640720484466	streaming
372.2421	0.0706283874460496	11	systole	47	B	500.0	streaming
372.3793	0.0706283874460496	11	systole	48	A	3010.640720484466	streaming
372.6443	0.0706283874460496	11	systole	49	A	3010.640720484466	streaming
372.7821	0.0706283874460496	11	systole	50	B	500.0	streaming
372.9193	0.0706283874460496	11	systole	51	A	3010.640720484466	streaming
374.8751	0.0706298241857439	12	diastole	1	A	1042.3378445677552	streaming
375.0186	0.0706298241857439	12	diastole	2	B	500.0	streaming
375.1626	0.0706298241857439	12	diastole	3	A	1042.3378445677552	streaming
375.4551	0.0706298241857439	12	diastole	4	A	1042.3378445677552	streaming
375.5985	0.0706298241857439	12	diastole	5	B	500.0	streaming
375.7426	0.0706298241857439	12	diastole	6	A	1042.3378445677552	streaming
376.0351	0.0706298241857439	12	diastole	7	A	1042.3378445677552	streaming
376.1785	0.0706298241857439	12	diastole	8	B	500.0	streaming
376.3226	0.0706298241857439	12	diastole	9	A	1042.3378445677552	streaming
376.6051	0.0706298241857439	12	diastole	10	A	1042.3378445677552	streaming
376.7485	0.0706298241857439	12	diastole	11	B	500.0	streaming
376.8926	0.0706298241857439	12	diastole	12	A	1042.3378445677552	streaming
377.1651	0.0706298241857439	12	diastole	13	A	1042.3378445677552	streaming
377.3085	0.0706298241857439	12	diastole	14	B	500.0	streaming
377.4526	0.0706298241857439	12	diastole	15	A	1042.3378445677552	streaming
377.725	0.0706298241857439	12	diastole	16	A	1042.3378445677552	streaming
377.8685	0.0706298241857439	12	diastole	17	B	500.0	streaming
378.0125	0.0706298241857439	12	diastole	18	A	1042.3378445677552	streaming
378.285	0.0706298241857439	12	diastole	19	A	1042.3378445677552	streaming
378.4284	0.0706298241857439	12	diastole	20	B	500.0	streaming
378.5725	0.0706298241857439	12	diastole	21	A	1042.3378445677552	streaming
378.8449	0.0706298241857439	12	diastole	22	A	1042.3378445677552	streaming
378.9883	0.0706298241857439	12	diastole	23	B	500.0	streaming
379.1324	0.0706298241857439	12	diastole	24	A	1042.3378445677552	streaming
379.387	0.0706298241857439	12	diastole	25	A	1042.3378445677552	streaming
379.5269	0.0706298241857439	12	diastole	26	B	500.0	streaming
379.6675	0.0706298241857439	12	diastole	27	A	1042.3378445677552	streaming
379.9554	0.0706298241857439	12	diastole	28	A	1042.3378445677552	streaming
380.0953	0.0706298241857439	12	diastole	29	B	500.0	streaming
380.2359	0.0706298241857439	12	diastole	30	A	1042.3378445677552	streaming
380.525	0.0706298241857439	12	diastole	31	A	1042.3378445677552	streaming
380.6649	0.0706298241857439	12	diastole	32	B	500.0	streaming
380.8055	0.0706298241857439	12	diastole	33	A	1042.3378445677552	streaming
381.1052	0.0706298241857439	12	diastole	34	A	1042.3378445677552	streaming
381.2451	0.0706298241857439	12	diastole	35	B	500.0	streaming
381.3857	0.0706298241857439	12	diastole	36	A	1042.3378445677552	streaming
381.6851	0.0706298241857439	12	diastole	37	A	1042.3378445677552	streaming
381.825	0.0706298241857439	12	diastole	38	B	500.0	streaming
381.9656	0.0706298241857439	12	diastole	39	A	1042.3378445677552	streaming
382.261	0.0706298241857439	12	diastole	40	A	1042.3378445677552	streaming
382.402	0.0706298241857439	12	diastole	41	B	500.0	streaming
382.5436	0.0706298241857439	12	diastole	42	A	1042.3378445677552	streaming
382.8365	0.0706298241857439	12	diastole	43	A	1042.3378445677552	streaming
382.9784	0.0706298241857439	12	diastole	44	B	500.0	streaming
383.121	0.0706298241857439	12	diastole	45	A	1042.3378445677552	streaming
383.3965	0.0706298241857439	12	diastole	46	A	1042.3378445677552	streaming
383.5384	0.0706298241857439	12	diastole	47	B	500.0	streaming
383.681	0.0706298241857439	12	diastole	48	A	1042.3378445677552	streaming
383.9565	0.0706298241857439	12	diastole	49	A	1042.3378445677552	streaming
384.0984	0.0706298241857439	12	diastole	50	B	500.0	streaming
384.241	0.0706298241857439	12	diastole	51	A	1042.3378445677552	streaming
384.5066	0.0706298241857439	12	diastole	52	A	1042.3378445677552	streaming
384.6485	0.0706298241857439	12	diastole	53	B	500.0	streaming
384.7911	0.0706298241857439	12	diastole	54	A	1042.3378445677552	streaming
386.458	0.0706282625324092	13	systole	1	A	737.5583956554606	coherent
386.5995	0.0706282625324092	13	systole	2	B	500.0	coherent
386.7405	0.0706282625324092	13	systole	3	A	737.5583956554606	coherent
387.068	0.0706282625324092	13	systole	4	A	737.5583956554606	coherent
387.2095	0.0706282625324092	13	systole	5	B	500.0	coherent
387.3505	0.0706282625324092	13	systole	6	A	737.5583956554606	coherent
387.678	0.0706282625324092	13	systole	7	A	737.5583956554606	coherent
387.8196	0.0706282625324092	13	systole	8	B	500.0	coherent
387.9605	0.0706282625324092	13	systole	9	A	737.5583956554606	coherent
388.2872	0.0706282625324092	13	systole	10	A	737.5583956554606	coherent
388.4312	0.0706282625324092	13	systole	11	B	500.0	coherent
388.5747	0.0706282625324092	13	systole	12	A	737.5583956554606	coherent
388.8872	0.0706282625324092	13	systole	13	A	737.5583956554606	coherent
389.0313	0.0706282625324092	13	systole	14	B	500.0	coherent
389.1748	0.0706282625324092	13	systole	15	A	737.5583956554606	coherent
389.4873	0.0706282625324092	13	systole	16	A	737.5583956554606	coherent
389.6313	0.0706282625324092	13	systole	17	B	500.0	coherent
389.7748	0.0706282625324092	13	systole	18	A	737.5583956554606	coherent
390.084	0.0706282625324092	13	systole	19	A	737.5583956554606	coherent
390.2303	0.0706282625324092	13	systole	20	B	500.0	coherent
390.3761	0.0706282625324092	13	systole	21	A	737.5583956554606	coherent
390.6724	0.0706282625324092	13	systole	22	A	737.5583956554606	coherent
390.8187	0.0706282625324092	13	systole	23	B	500.0	coherent
390.9644	0.0706282625324092	13	systole	24	A	737.5583956554606	coherent
391.2939	0.0706282625324092	13	systole	25	A	737.5583956554606	coherent
391.4429	0.0706282625324092	13	systole	26	B	500.0	coherent
391.5914	0.0706282625324092	13	systole	27	A	737.5583956554606	coherent
391.8985	0.0706282625324092	13	systole	28	A	737.5583956554606	coherent
392.0488	0.0706282625324092	13	systole	29	B	500.0	coherent
392.1986	0.0706282625324092	13	systole	30	A	737.5583956554606	coherent
392.4986	0.0706282625324092	13	systole	31	A	737.5583956554606	coherent
392.6489	0.0706282625324092	13	systole	32	B	500.0	coherent
392.7986	0.0706282625324092	13	systole	33	A	737.5583956554606	coherent
393.0786	0.0706282625324092	13	systole	34	A	737.5583956554606	coherent
393.2289	0.0706282625324092	13	systole	35	B	500.0	coherent
393.3786	0.0706282625324092	13	systole	36	A	737.5583956554606	coherent
393.6486	0.0706282625324092	13	systole	37	A	737.5583956554606	coherent
393.7989	0.0706282625324092	13	systole	38	B	500.0	coherent
393.9487	0.0706282625324092	13	systole	39	A	737.5583956554606	coherent
394.2086	0.0706282625324092	13	systole	40	A	737.5583956554606	coherent
394.3588	0.0706282625324092	13	systole	41	B	500.0	coherent
394.5086	0.0706282625324092	13	systole	42	A	737.5583956554606	coherent
394.7532	0.0706282625324092	13	systole	43	A	737.5583956554606	coherent
394.902	0.0706282625324092	13	systole	44	B	500.0	coherent
395.0503	0.0706282625324092	13	systole	45	A	737.5583956554606	coherent
395.304	0.0706282625324092	13	systole	46	A	737.5583956554606	coherent
395.4503	0.0706282625324092	13	systole	47	B	500.0	coherent
395.5961	0.0706282625324092	13	systole	48	A	737.5583956554606	coherent
395.8365	0.0706282625324092	13	systole	49	A	737.5583956554606	coherent
395.978	0.0706282625324092	13	systole	50	B	500.0	coherent
396.119	0.0706282625324092	13	systole	51	A	737.5583956554606	coherent
398.1993	0.0687514083110727	14	diastole	1	A	720.7460505647621	coherent
398.3371	0.0687514083110727	14	diastole	2	B	500.0	coherent
398.4743	0.0687514083110727	14	diastole	3	A	720.7460505647621	coherent
398.7493	0.0687514083110727	14	diastole	4	A	720.7460505647621	coherent
398.8871	0.0687514083110727	14	diastole	5	B	500.0	coherent
399.0243	0.0687514083110727	14	diastole	6	A	720.7460505647621	coherent
399.2993	0.0687514083110727	14	diastole	7	A	720.7460505647621	coherent
399.4371	0.0687514083110727	14	diastole	8	B	500.0	coherent
399.5743	0.0687514083110727	14	diastole	9	A	720.7460505647621	coherent
399.8394	0.0687514083110727	14	diastole	10	A	720.7460505647621	coherent
399.9771	0.0687514083110727	14	diastole	11	B	500.0	coherent
400.1143	0.0687514083110727	14	diastole	12	A	720.7460505647621	coherent
400.3794	0.0687514083110727	14	diastole	13	A	720.7460505647621	coherent
400.5172	0.0687514083110727	14	diastole	14	B	500.0	coherent
400.6544	0.0687514083110727	14	diastole	15	A	720.7460505647621	coherent
400.9293	0.0687514083110727	14	diastole	16	A	720.7460505647621	coherent
401.0671	0.0687514083110727	14	diastole	17	B	500.0	coherent
401.2043	0.0687514083110727	14	diastole	18	A	720.7460505647621	coherent
401.4793	0.0687514083110727	14	diastole	19	A	720.7460505647621	coherent
401.617	0.0687514083110727	14	diastole	20	B	500.0	coherent
401.7542	0.0687514083110727	14	diastole	21	A	720.7460505647621	coherent
402.0593	0.0687514083110727	14	diastole	22	A	720.7460505647621	coherent
402.197	0.0687514083110727	14	diastole	23	B	500.0	coherent
402.3342	0.0687514083110727	14	diastole	24	A	720.7460505647621	coherent
402.6993	0.0687514083110727	14	diastole	25	A	720.7460505647621	coherent
402.837	0.0687514083110727	14	diastole	26	B	500.0	coherent
402.9742	0.0687514083110727	14	diastole	27	A	720.7460505647621	coherent
403.3692	0.0687514083110727	14	diastole	28	A	720.7460505647621	coherent
403.5069	0.0687514083110727	14	diastole	29	B	500.0	coherent
403.6442	0.0687514083110727	14	diastole	30	A	720.7460505647621	coherent
404.039	0.0687514083110727	14	diastole	31	A	720.7460505647621	coherent
404.1768	0.0687514083110727	14	diastole	32	B	500.0	coherent
404.314	0.0687514083110727	14	diastole	33	A	720.7460505647621	coherent
404.7061	0.0687514083110727	14	diastole	34	A	720.7460505647621	coherent
404.8451	0.0687514083110727	14	diastole	35	B	500.0	coherent
404.9836	0.0687514083110727	14	diastole	36	A	720.7460505647621	coherent
405.3703	0.0687514083110727	14	diastole	37	A	720.7460505647621	coherent
405.5118	0.0687514083110727	14	diastole	38	B	500.0	coherent
405.6528	0.0687514083110727	14	diastole	39	A	720.7460505647621	coherent
406.0512	0.0687514083110727	14	diastole	40	A	720.7460505647621	coherent
406.2052	0.0687514083110727	14	diastole	41	B	500.0	coherent
406.3587	0.0687514083110727	14	diastole	42	A	720.7460505647621	coherent
406.6612	0.0687514083110727	14	diastole	43	A	720.7460505647621	coherent
406.8152	0.0687514083110727	14	diastole	44	B	500.0	coherent
406.9687	0.0687514083110727	14	diastole	45	A	720.7460505647621	coherent
407.2512	0.0687514083110727	14	diastole	46	A	720.7460505647621	coherent
407.4052	0.0687514083110727	14	diastole	47	B	500.0	coherent
407.5587	0.0687514083110727	14	diastole	48	A	720.7460505647621	coherent
409.6616	0.0725044075516052	15	systole	1	A	2942.014383864825	streaming
409.8068	0.0725044075516052	15	systole	2	B	500.0	streaming
409.9516	0.0725044075516052	15	systole	3	A	2942.014383864825	streaming
410.2115	0.0725044075516052	15	systole	4	A	2942.014383864825	streaming
410.3568	0.0725044075516052	15	systole	5	B	500.0	streaming
410.5015	0.0725044075516052	15	systole	6	A	2942.014383864825	streaming
410.7569	0.0725044075516052	15	systole	7	A	2942.014383864825	streaming
410.901	0.0725044075516052	15	systole	8	B	500.0	streaming
411.0444	0.0725044075516052	15	systole	9	A	2942.014383864825	streaming
411.2978	0.0725044075516052	15	systole	10	A	2942.014383864825	streaming
411.4393	0.0725044075516052	15	systole	11	B	500.0	streaming
411.5803	0.0725044075516052	15	systole	12	A	2942.014383864825	streaming
411.8341	0.0725044075516052	15	systole	13	A	2942.014383864825	streaming
411.9718	0.0725044075516052	15	systole	14	B	500.0	streaming
412.1091	0.0725044075516052	15	systole	15	A	2942.014383864825	streaming
412.3841	0.0725044075516052	15	systole	16	A	2942.014383864825	streaming
412.5218	0.0725044075516052	15	systole	17	B	500.0	streaming
412.6591	0.0725044075516052	15	systole	18	A	2942.014383864825	streaming
412.9241	0.0725044075516052	15	systole	19	A	2942.014383864825	streaming
413.0618	0.0725044075516052	15	systole	20	B	500.0	streaming
413.199	0.0725044075516052	15	systole	21	A	2942.014383864825	streaming
413.4541	0.0725044075516052	15	systole	22	A	2942.014383864825	streaming
413.5918	0.0725044075516052	15	systole	23	B	500.0	streaming
413.7291	0.0725044075516052	15	systole	24	A	2942.014383864825	streaming
413.9841	0.0725044075516052	15	systole	25	A	2942.014383864825	streaming
414.1219	0.0725044075516052	15	systole	26	B	500.0	streaming
414.2591	0.0725044075516052	15	systole	27	A	2942.014383864825	streaming
414.5241	0.0725044075516052	15	systole	28	A	2942.014383864825	streaming
414.6618	0.0725044075516052	15	systole	29	B	500.0	streaming
414.7991	0.0725044075516052	15	systole	30	A	2942.014383864825	streaming
415.0841	0.0725044075516052	15	systole	31	A	2942.014383864825	streaming
415.2218	0.0725044075516052	15	systole	32	B	500.0	streaming
415.3591	0.0725044075516052	15	systole	33	A	2942.014383864825	streaming
415.6541	0.0725044075516052	15	systole	34	A	2942.014383864825	streaming
415.7919	0.0725044075516052	15	systole	35	B	500.0	streaming
415.9291	0.0725044075516052	15	systole	36	A	2942.014383864825	streaming
416.224	0.0725044075516052	15	systole	37	A	2942.014383864825	streaming
416.3618	0.0725044075516052	15	systole	38	B	500.0	streaming
416.499	0.0725044075516052	15	systole	39	A	2942.014383864825	streaming
416.7841	0.0725044075516052	15	systole	40	A	2942.014383864825	streaming
416.9219	0.0725044075516052	15	systole	41	B	500.0	streaming
417.0591	0.0725044075516052	15	systole	42	A	2942.014383864825	streaming
417.3586	0.0725044075516052	15	systole	43	A	2942.014383864825	streaming
417.4977	0.0725044075516052	15	systole	44	B	500.0	streaming
417.6362	0.0725044075516052	15	systole	45	A	2942.014383864825	streaming
417.9432	0.0725044075516052	15	systole	46	A	2942.014383864825	streaming
418.0835	0.0725044075516052	15	systole	47	B	500.0	streaming
418.2233	0.0725044075516052	15	systole	48	A	2942.014383864825	streaming
418.5377	0.0725044075516052	15	systole	49	A	2942.014383864825	streaming
418.6793	0.0725044075516052	15	systole	50	B	500.0	streaming
418.8202	0.0725044075516052	15	systole	51	A	2942.014383864825	streaming
421.2219	0.0724970342125743	16	diastole	1	A	1196.9977780158051	coherent
421.3667	0.0724970342125743	16	diastole	2	B	500.0	coherent
421.5119	0.0724970342125743	16	diastole	3	A	1196.9977780158051	coherent
421.7919	0.0724970342125743	16	diastole	4	A	1196.9977780158051	coherent
421.9368	0.0724970342125743	16	diastole	5	B	500.0	coherent
422.0819	0.0724970342125743	16	diastole	6	A	1196.9977780158051	coherent
422.3619	0.0724970342125743	16	diastole	7	A	1196.9977780158051	coherent
422.5068	0.0724970342125743	16	diastole	8	B	500.0	coherent
422.6519	0.0724970342125743	16	diastole	9	A	1196.9977780158051	coherent
422.9319	0.0724970342125743	16	diastole	10	A	1196.9977780158051	coherent
423.0767	0.0724970342125743	16	diastole	11	B	500.0	coherent
423.2219	0.0724970342125743	16	diastole	12	A	1196.9977780158051	coherent
423.4919	0.0724970342125743	16	diastole	13	A	1196.9977780158051	coherent
423.6367	0.0724970342125743	16	diastole	14	B	500.0	coherent
423.7819	0.0724970342125743	16	diastole	15	A	1196.9977780158051	coherent
424.0352	0.0724970342125743	16	diastole	16	A	1196.9977780158051	coherent
424.1788	0.0724970342125743	16	diastole	17	B	500.0	coherent
424.3227	0.0724970342125743	16	diastole	18	A	1196.9977780158051	coherent
424.5582	0.0724970342125743	16	diastole	19	A	1196.9977780158051	coherent
424.7006	0.0724970342125743	16	diastole	20	B	500.0	coherent
424.8432	0.0724970342125743	16	diastole	21	A	1196.9977780158051	coherent
425.0811	0.0724970342125743	16	diastole	22	A	1196.9977780158051	coherent
425.2222	0.0724970342125743	16	diastole	23	B	500.0	coherent
425.3636	0.0724970342125743	16	diastole	24	A	1196.9977780158051	coherent
425.6347	0.0724970342125743	16	diastole	25	A	1196.9977780158051	coherent
425.7746	0.0724970342125743	16	diastole	26	B	500.0	coherent
425.9148	0.0724970342125743	16	diastole	27	A	1196.9977780158051	coherent
426.2846	0.0724970342125743	16	diastole	28	A	1196.9977780158051	coherent
426.4246	0.0724970342125743	16	diastole	29	B	500.0	coherent
426.5647	0.0724970342125743	16	diastole	30	A	1196.9977780158051	coherent
426.9346	0.0724970342125743	16	diastole	31	A	1196.9977780158051	coherent
427.0745	0.0724970342125743	16	diastole	32	B	500.0	coherent
427.2147	0.0724970342125743	16	diastole	33	A	1196.9977780158051	coherent
427.6746	0.0724970342125743	16	diastole	34	A	1196.9977780158051	coherent
427.8145	0.0724970342125743	16	diastole	35	B	500.0	coherent
427.9547	0.0724970342125743	16	diastole	36	A	1196.9977780158051	coherent
428.3942	0.0724970342125743	16	diastole	37	A	1196.9977780158051	coherent
428.5341	0.0724970342125743	16	diastole	38	B	500.0	coherent
428.6743	0.0724970342125743	16	diastole	39	A	1196.9977780158051	coherent
429.1139	0.0724970342125743	16	diastole	40	A	1196.9977780158051	coherent
429.2538	0.0724970342125743	16	diastole	41	B	500.0	coherent
429.394	0.0724970342125743	16	diastole	42	A	1196.9977780158051	coherent
429.878	0.0724970342125743	16	diastole	43	A	1196.9977780158051	coherent
430.0291	0.0724970342125743	16	diastole	44	B	500.0	coherent
430.1806	0.0724970342125743	16	diastole	45	A	1196.9977780158051	coherent
430.5783	0.0724970342125743	16	diastole	46	A	1196.9977780158051	coherent
430.7295	0.0724970342125743	16	diastole	47	B	500.0	coherent
430.8809	0.0724970342125743	16	diastole	48	A	1196.9977780158051	coherent
434.0248	0.0799993562977761	17	diastole	1	A	1987.9452401467304	streaming
434.1772	0.0799993562977761	17	diastole	2	B	500.0	streaming
434.3299	0.0799993562977761	17	diastole	3	A	1987.9452401467304	streaming
434.5536	0.0799993562977761	17	diastole	4	A	1987.9452401467304	streaming
434.7022	0.0799993562977761	17	diastole	5	B	500.0	streaming
434.8511	0.0799993562977761	17	diastole	6	A	1987.9452401467304	streaming
435.072	0.0799993562977761	17	diastole	7	A	1987.9452401467304	streaming
435.2169	0.0799993562977761	17	diastole	8	B	500.0	streaming
435.362	0.0799993562977761	17	diastole	9	A	1987.9452401467304	streaming
435.6007	0.0799993562977761	17	diastole	10	A	1987.9452401467304	streaming
435.7419	0.0799993562977761	17	diastole	11	B	500.0	streaming
435.8832	0.0799993562977761	17	diastole	12	A	1987.9452401467304	streaming
436.1369	0.0799993562977761	17	diastole	13	A	1987.9452401467304	streaming
436.2756	0.0799993562977761	17	diastole	14	B	500.0	streaming
436.4145	0.0799993562977761	17	diastole	15	A	1987.9452401467304	streaming
436.6799	0.0799993562977761	17	diastole	16	A	1987.9452401467304	streaming
436.8173	0.0799993562977761	17	diastole	17	B	500.0	streaming
436.955	0.0799993562977761	17	diastole	18	A	1987.9452401467304	streaming
437.2299	0.0799993562977761	17	diastole	19	A	1987.9452401467304	streaming
437.3673	0.0799993562977761	17	diastole	20	B	500.0	streaming
437.505	0.0799993562977761	17	diastole	21	A	1987.9452401467304	streaming
437.7796	0.0799993562977761	17	diastole	22	A	1987.9452401467304	streaming
437.917	0.0799993562977761	17	diastole	23	B	500.0	streaming
438.0546	0.0799993562977761	17	diastole	24	A	1987.9452401467304	streaming
438.3195	0.0799993562977761	17	diastole	25	A	1987.9452401467304	streaming
438.4569	0.0799993562977761	17	diastole	26	B	500.0	streaming
438.5945	0.0799993562977761	17	diastole	27	A	1987.9452401467304	streaming
438.8695	0.0799993562977761	17	diastole	28	A	1987.9452401467304	streaming
439.0069	0.0799993562977761	17	diastole	29	B	500.0	streaming
439.1445	0.0799993562977761	17	diastole	30	A	1987.9452401467304	streaming
439.4094	0.0799993562977761	17	diastole	31	A	1987.9452401467304	streaming
439.5468	0.0799993562977761	17	diastole	32	B	500.0	streaming
439.6844	0.0799993562977761	17	diastole	33	A	1987.9452401467304	streaming
439.9595	0.0799993562977761	17	diastole	34	A	1987.9452401467304	streaming
440.0969	0.0799993562977761	17	diastole	35	B	500.0	streaming
440.2345	0.0799993562977761	17	diastole	36	A	1987.9452401467304	streaming
440.5096	0.0799993562977761	17	diastole	37	A	1987.9452401467304	streaming
440.647	0.0799993562977761	17	diastole	38	B	500.0	streaming
440.7846	0.0799993562977761	17	diastole	39	A	1987.9452401467304	streaming
441.0697	0.0799993562977761	17	diastole	40	A	1987.9452401467304	streaming
441.2071	0.0799993562977761	17	diastole	41	B	500.0	streaming
441.3447	0.0799993562977761	17	diastole	42	A	1987.9452401467304	streaming
441.6297	0.0799993562977761	17	diastole	43	A	1987.9452401467304	streaming
441.7671	0.0799993562977761	17	diastole	44	B	500.0	streaming
441.9047	0.0799993562977761	17	diastole	45	A	1987.9452401467304	streaming
442.1897	0.0799993562977761	17	diastole	46	A	1987.9452401467304	streaming
442.3271	0.0799993562977761	17	diastole	47	B	500.0	streaming
442.4647	0.0799993562977761	17	diastole	48	A	1987.9452401467304	streaming
442.7297	0.0799993562977761	17	diastole	49	A	1987.9452401467304	streaming
442.8671	0.0799993562977761	17	diastole	50	B	500.0	streaming
443.0047	0.0799993562977761	17	diastole	51	A	1987.9452401467304	streaming
447.0325	0.0706276188138872	18	systole	1	A	772.3687435845811	coherent
447.1752	0.0706276188138872	18	systole	2	B	500.0	coherent
447.3174	0.0706276188138872	18	systole	3	A	772.3687435845811	coherent
447.6224	0.0706276188138872	18	systole	4	A	772.3687435845811	coherent
447.7652	0.0706276188138872	18	systole	5	B	500.0	coherent
447.9074	0.0706276188138872	18	systole	6	A	772.3687435845811	coherent
448.2124	0.0706276188138872	18	systole	7	A	772.3687435845811	coherent
448.3552	0.0706276188138872	18	systole	8	B	500.0	coherent
448.4974	0.0706276188138872	18	systole	9	A	772.3687435845811	coherent
448.7824	0.0706276188138872	18	systole	10	A	772.3687435845811	coherent
448.9252	0.0706276188138872	18	systole	11	B	500.0	coherent
449.0674	0.0706276188138872	18	systole	12	A	772.3687435845811	coherent
449.3523	0.0706276188138872	18	systole	13	A	772.3687435845811	coherent
449.4951	0.0706276188138872	18	systole	14	B	500.0	coherent
449.6373	0.0706276188138872	18	systole	15	A	772.3687435845811	coherent
449.9224	0.0706276188138872	18	systole	16	A	772.3687435845811	coherent
450.0652	0.0706276188138872	18	systole	17	B	500.0	coherent
450.2074	0.0706276188138872	18	systole	18	A	772.3687435845811	coherent
450.4724	0.0706276188138872	18	systole	19	A	772.3687435845811	coherent
450.6152	0.0706276188138872	18	systole	20	B	500.0	coherent
450.7574	0.0706276188138872	18	systole	21	A	772.3687435845811	coherent
451.0324	0.0706276188138872	18	systole	22	A	772.3687435845811	coherent
451.1752	0.0706276188138872	18	systole	23	B	500.0	coherent
451.3174	0.0706276188138872	18	systole	24	A	772.3687435845811	coherent
451.5824	0.0706276188138872	18	systole	25	A	772.3687435845811	coherent
451.7252	0.0706276188138872	18	systole	26	B	500.0	coherent
451.8674	0.0706276188138872	18	systole	27	A	772.3687435845811	coherent
452.1324	0.0706276188138872	18	systole	28	A	772.3687435845811	coherent
452.2752	0.0706276188138872	18	systole	29	B	500.0	coherent
452.4174	0.0706276188138872	18	systole	30	A	772.3687435845811	coherent
452.6732	0.0706276188138872	18	systole	31	A	772.3687435845811	coherent
452.8136	0.0706276188138872	18	systole	32	B	500.0	coherent
452.9533	0.0706276188138872	18	systole	33	A	772.3687435845811	coherent
453.2188	0.0706276188138872	18	systole	34	A	772.3687435845811	coherent
453.3578	0.0706276188138872	18	systole	35	B	500.0	coherent
453.4963	0.0706276188138872	18	systole	36	A	772.3687435845811	coherent
453.7688	0.0706276188138872	18	systole	37	A	772.3687435845811	coherent
453.9079	0.0706276188138872	18	systole	38	B	500.0	coherent
454.0464	0.0706276188138872	18	systole	39	A	772.3687435845811	coherent
454.3142	0.0706276188138872	18	systole	40	A	772.3687435845811	coherent
454.452	0.0706276188138872	18	systole	41	B	500.0	coherent
454.5892	0.0706276188138872	18	systole	42	A	772.3687435845811	coherent
454.8442	0.0706276188138872	18	systole	43	A	772.3687435845811	coherent
454.982	0.0706276188138872	18	systole	44	B	500.0	coherent
455.1192	0.0706276188138872	18	systole	45	A	772.3687435845811	coherent
455.3742	0.0706276188138872	18	systole	46	A	772.3687435845811	coherent
455.512	0.0706276188138872	18	systole	47	B	500.0	coherent
455.6492	0.0706276188138872	18	systole	48	A	772.3687435845811	coherent
455.9042	0.0706276188138872	18	systole	49	A	772.3687435845811	coherent
456.042	0.0706276188138872	18	systole	50	B	500.0	coherent
456.1792	0.0706276188138872	18	systole	51	A	772.3687435845811	coherent
456.4442	0.0706276188138872	18	systole	52	A	772.3687435845811	coherent
456.582	0.0706276188138872	18	systole	53	B	500.0	coherent
456.7192	0.0706276188138872	18	systole	54	A	772.3687435845811	coherent
458.4444	0.068749408237636	19	systole	1	A	2809.4189815191617	streaming
458.5821	0.068749408237636	19	systole	2	B	500.0	streaming
458.7193	0.068749408237636	19	systole	3	A	2809.4189815191617	streaming
459.1118	0.068749408237636	19	systole	4	A	2809.4189815191617	streaming
459.2571	0.068749408237636	19	systole	5	B	500.0	streaming
459.4018	0.068749408237636	19	systole	6	A	2809.4189815191617	streaming
459.764	0.068749408237636	19	systole	7	A	2809.4189815191617	streaming
459.918	0.068749408237636	19	systole	8	B	500.0	streaming
460.0715	0.068749408237636	19	systole	9	A	2809.4189815191617	streaming
460.3639	0.068749408237636	19	systole	10	A	2809.4189815191617	streaming
460.5179	0.068749408237636	19	systole	11	B	500.0	streaming
460.6714	0.068749408237636	19	systole	12	A	2809.4189815191617	streaming
460.9339	0.068749408237636	19	systole	13	A	2809.4189815191617	streaming
461.0879	0.068749408237636	19	systole	14	B	500.0	streaming
461.2415	0.068749408237636	19	systole	15	A	2809.4189815191617	streaming
461.4855	0.068749408237636	19	systole	16	A	2809.4189815191617	streaming
461.6395	0.068749408237636	19	systole	17	B	500.0	streaming
461.7931	0.068749408237636	19	systole	18	A	2809.4189815191617	streaming
462.0255	0.068749408237636	19	systole	19	A	2809.4189815191617	streaming
462.1795	0.068749408237636	19	systole	20	B	500.0	streaming
462.3331	0.068749408237636	19	systole	21	A	2809.4189815191617	streaming
462.5656	0.068749408237636	19	systole	22	A	2809.4189815191617	streaming
462.7196	0.068749408237636	19	systole	23	B	500.0	streaming
462.8731	0.068749408237636	19	systole	24	A	2809.4189815191617	streaming
463.0993	0.068749408237636	19	systole	25	A	2809.4189815191617	streaming
463.2521	0.068749408237636	19	systole	26	B	500.0	streaming
463.4043	0.068749408237636	19	systole	27	A	2809.4189815191617	streaming
463.5842	0.068749408237636	19	systole	28	A	2809.4189815191617	streaming
463.7247	0.068749408237636	19	systole	29	B	500.0	streaming
463.8646	0.068749408237636	19	systole	30	A	2809.4189815191617	streaming
464.1001	0.068749408237636	19	systole	31	A	2809.4189815191617	streaming
464.2368	0.068749408237636	19	systole	32	B	500.0	streaming
464.373	0.068749408237636	19	systole	33	A	2809.4189815191617	streaming
464.6297	0.068749408237636	19	systole	34	A	2809.4189815191617	streaming
464.7664	0.068749408237636	19	systole	35	B	500.0	streaming
464.9027	0.068749408237636	19	systole	36	A	2809.4189815191617	streaming
465.1442	0.068749408237636	19	systole	37	A	2809.4189815191617	streaming
465.2792	0.068749408237636	19	systole	38	B	500.0	streaming
465.4138	0.068749408237636	19	systole	39	A	2809.4189815191617	streaming
465.6457	0.068749408237636	19	systole	40	A	2809.4189815191617	streaming
465.7784	0.068749408237636	19	systole	41	B	500.0	streaming
465.9107	0.068749408237636	19	systole	42	A	2809.4189815191617	streaming
466.1551	0.068749408237636	19	systole	43	A	2809.4189815191617	streaming
466.2878	0.068749408237636	19	systole	44	B	500.0	streaming
466.4201	0.068749408237636	19	systole	45	A	2809.4189815191617	streaming
466.6648	0.068749408237636	19	systole	46	A	2809.4189815191617	streaming
466.7975	0.068749408237636	19	systole	47	B	500.0	streaming
466.9297	0.068749408237636	19	systole	48	A	2809.4189815191617	streaming
467.1708	0.068749408237636	19	systole	49	A	2809.4189815191617	streaming
467.3023	0.068749408237636	19	systole	50	B	500.0	streaming
467.4333	0.068749408237636	19	systole	51	A	2809.4189815191617	streaming
467.6812	0.068749408237636	19	systole	52	A	2809.4189815191617	streaming
467.8127	0.068749408237636	19	systole	53	B	500.0	streaming
467.9437	0.068749408237636	19	systole	54	A	2809.4189815191617	streaming
468.1725	0.068749408237636	19	systole	55	A	2809.4189815191617	streaming
468.3015	0.068749408237636	19	systole	56	B	500.0	streaming
468.4301	0.068749408237636	19	systole	57	A	2809.4189815191617	streaming
471.2973	0.0637079562875442	20	systole	1	A	808.8220262698977	coherent
471.4251	0.0637079562875442	20	systole	2	B	500.0	coherent
471.5523	0.0637079562875442	20	systole	3	A	808.8220262698977	coherent
471.9593	0.0637079562875442	20	systole	4	A	808.8220262698977	coherent
472.0871	0.0637079562875442	20	systole	5	B	500.0	coherent
472.2143	0.0637079562875442	20	systole	6	A	808.8220262698977	coherent
472.6319	0.0637079562875442	20	systole	7	A	808.8220262698977	coherent
472.761	0.0637079562875442	20	systole	8	B	500.0	coherent
472.8894	0.0637079562875442	20	systole	9	A	808.8220262698977	coherent
473.3208	0.0637079562875442	20	systole	10	A	808.8220262698977	coherent
473.4524	0.0637079562875442	20	systole	11	B	500.0	coherent
473.5832	0.0637079562875442	20	systole	12	A	808.8220262698977	coherent
474.0231	0.0637079562875442	20	systole	13	A	808.8220262698977	coherent
474.1634	0.0637079562875442	20	systole	14	B	500.0	coherent
474.3031	0.0637079562875442	20	systole	15	A	808.8220262698977	coherent
474.731	0.0637079562875442	20	systole	16	A	808.8220262698977	coherent
474.8866	0.0637079562875442	20	systole	17	B	500.0	coherent
475.0415	0.0637079562875442	20	systole	18	A	808.8220262698977	coherent
475.3792	0.0637079562875442	20	systole	19	A	808.8220262698977	coherent
475.5398	0.0637079562875442	20	systole	20	B	500.0	coherent
475.6997	0.0637079562875442	20	systole	21	A	808.8220262698977	coherent
475.9993	0.0637079562875442	20	systole	22	A	808.8220262698977	coherent
476.1598	0.0637079562875442	20	systole	23	B	500.0	coherent
476.3197	0.0637079562875442	20	systole	24	A	808.8220262698977	coherent
476.5976	0.0637079562875442	20	systole	25	A	808.8220262698977	coherent
476.7582	0.0637079562875442	20	systole	26	B	500.0	coherent
476.9181	0.0637079562875442	20	systole	27	A	808.8220262698977	coherent
477.196	0.0637079562875442	20	systole	28	A	808.8220262698977	coherent
477.3566	0.0637079562875442	20	systole	29	B	500.0	coherent
477.5165	0.0637079562875442	20	systole	30	A	808.8220262698977	coherent
477.7856	0.0637079562875442	20	systole	31	A	808.8220262698977	coherent
477.9462	0.0637079562875442	20	systole	32	B	500.0	coherent
478.1061	0.0637079562875442	20	systole	33	A	808.8220262698977	coherent
478.3752	0.0637079562875442	20	systole	34	A	808.8220262698977	coherent
478.5358	0.0637079562875442	20	systole	35	B	500.0	coherent
478.6957	0.0637079562875442	20	systole	36	A	808.8220262698977	coherent
478.9011	0.0637079562875442	20	systole	37	A	808.8220262698977	coherent
479.0576	0.0637079562875442	20	systole	38	B	500.0	coherent
479.2136	0.0637079562875442	20	systole	39	A	808.8220262698977	coherent
479.4122	0.0637079562875442	20	systole	40	A	808.8220262698977	coherent
479.561	0.0637079562875442	20	systole	41	B	500.0	coherent
479.7092	0.0637079562875442	20	systole	42	A	808.8220262698977	coherent
479.9396	0.0637079562875442	20	systole	43	A	808.8220262698977	coherent
480.0849	0.0637079562875442	20	systole	44	B	500.0	coherent
480.2295	0.0637079562875442	20	systole	45	A	808.8220262698977	coherent
480.4801	0.0637079562875442	20	systole	46	A	808.8220262698977	coherent
480.6254	0.0637079562875442	20	systole	47	B	500.0	coherent
480.77	0.0637079562875442	20	systole	48	A	808.8220262698977	coherent
482.6385	0.0693729187478311	21	systole	1	A	2561.886903957566	streaming
482.7774	0.0693729187478311	21	systole	2	B	500.0	streaming
482.916	0.0693729187478311	21	systole	3	A	2561.886903957566	streaming
483.1982	0.0693729187478311	21	systole	4	A	2561.886903957566	streaming
483.3371	0.0693729187478311	21	systole	5	B	500.0	streaming
483.4756	0.0693729187478311	21	systole	6	A	2561.886903957566	streaming
483.7444	0.0693729187478311	21	systole	7	A	2561.886903957566	streaming
483.8821	0.0693729187478311	21	systole	8	B	500.0	streaming
484.0195	0.0693729187478311	21	systole	9	A	2561.886903957566	streaming
484.2843	0.0693729187478311	21	systole	10	A	2561.886903957566	streaming
484.422	0.0693729187478311	21	systole	11	B	500.0	streaming
484.5594	0.0693729187478311	21	systole	12	A	2561.886903957566	streaming
484.8243	0.0693729187478311	21	systole	13	A	2561.886903957566	streaming
484.962	0.0693729187478311	21	systole	14	B	500.0	streaming
485.0994	0.0693729187478311	21	systole	15	A	2561.886903957566	streaming
485.3543	0.0693729187478311	21	systole	16	A	2561.886903957566	streaming
485.492	0.0693729187478311	21	systole	17	B	500.0	streaming
485.6294	0.0693729187478311	21	systole	18	A	2561.886903957566	streaming
485.8597	0.0693729187478311	21	systole	19	A	2561.886903957566	streaming
485.9962	0.0693729187478311	21	systole	20	B	500.0	streaming
486.1323	0.0693729187478311	21	systole	21	A	2561.886903957566	streaming
486.3646	0.0693729187478311	21	systole	22	A	2561.886903957566	streaming
486.4997	0.0693729187478311	21	systole	23	B	500.0	streaming
486.6346	0.0693729187478311	21	systole	24	A	2561.886903957566	streaming
486.8701	0.0693729187478311	21	systole	25	A	2561.886903957566	streaming
487.004	0.0693729187478311	21	systole	26	B	500.0	streaming
487.1376	0.0693729187478311	21	systole	27	A	2561.886903957566	streaming
487.3709	0.0693729187478311	21	systole	28	A	2561.886903957566	streaming
487.5023	0.0693729187478311	21	systole	29	B	500.0	streaming
487.6334	0.0693729187478311	21	systole	30	A	2561.886903957566	streaming
487.8809	0.0693729187478311	21	systole	31	A	2561.886903957566	streaming
488.0123	0.0693729187478311	21	systole	32	B	500.0	streaming
488.1434	0.0693729187478311	21	systole	33	A	2561.886903957566	streaming
488.3772	0.0693729187478311	21	systole	34	A	2561.886903957566	streaming
488.5049	0.0693729187478311	21	systole	35	B	500.0	streaming
488.6323	0.0693729187478311	21	systole	36	A	2561.886903957566	streaming
488.8872	0.0693729187478311	21	systole	37	A	2561.886903957566	streaming
489.0149	0.0693729187478311	21	systole	38	B	500.0	streaming
489.1423	0.0693729187478311	21	systole	39	A	2561.886903957566	streaming
489.3972	0.0693729187478311	21	systole	40	A	2561.886903957566	streaming
489.5248	0.0693729187478311	21	systole	41	B	500.0	streaming
489.6522	0.0693729187478311	21	systole	42	A	2561.886903957566	streaming
489.8972	0.0693729187478311	21	systole	43	A	2561.886903957566	streaming
490.0248	0.0693729187478311	21	systole	44	B	500.0	streaming
490.1522	0.0693729187478311	21	systole	45	A	2561.886903957566	streaming
490.4071	0.0693729187478311	21	systole	46	A	2561.886903957566	streaming
490.5348	0.0693729187478311	21	systole	47	B	500.0	streaming
490.6621	0.0693729187478311	21	systole	48	A	2561.886903957566	streaming
490.9171	0.0693729187478311	21	systole	49	A	2561.886903957566	streaming
491.0448	0.0693729187478311	21	systole	50	B	500.0	streaming
491.1721	0.0693729187478311	21	systole	51	A	2561.886903957566	streaming
491.4571	0.0693729187478311	21	systole	52	A	2561.886903957566	streaming
491.5848	0.0693729187478311	21	systole	53	B	500.0	streaming
491.7121	0.0693729187478311	21	systole	54	A	2561.886903957566	streaming
492.0171	0.0693729187478311	21	systole	55	A	2561.886903957566	streaming
492.1448	0.0693729187478311	21	systole	56	B	500.0	streaming
492.2721	0.0693729187478311	21	systole	57	A	2561.886903957566	streaming
495.8005	0.0744007977191358	22	systole	1	A	907.6609849845596	coherent
495.95	0.0744007977191358	22	systole	2	B	500.0	coherent
496.1004	0.0744007977191358	22	systole	3	A	907.6609849845596	coherent
496.4353	0.0744007977191358	22	systole	4	A	907.6609849845596	coherent
496.586	0.0744007977191358	22	systole	5	B	500.0	coherent
496.7378	0.0744007977191358	22	systole	6	A	907.6609849845596	coherent
497.0798	0.0744007977191358	22	systole	7	A	907.6609849845596	coherent
497.2318	0.0744007977191358	22	systole	8	B	500.0	coherent
497.3848	0.0744007977191358	22	systole	9	A	907.6609849845596	coherent
497.7145	0.0744007977191358	22	systole	10	A	907.6609849845596	coherent
497.8677	0.0744007977191358	22	systole	11	B	500.0	coherent
498.022	0.0744007977191358	22	systole	12	A	907.6609849845596	coherent
498.3244	0.0744007977191358	22	systole	13	A	907.6609849845596	coherent
498.4776	0.0744007977191358	22	systole	14	B	500.0	coherent
498.6319	0.0744007977191358	22	systole	15	A	907.6609849845596	coherent
498.9343	0.0744007977191358	22	systole	16	A	907.6609849845596	coherent
499.0876	0.0744007977191358	22	systole	17	B	500.0	coherent
499.2418	0.0744007977191358	22	systole	18	A	907.6609849845596	coherent
499.5056	0.0744007977191358	22	systole	19	A	907.6609849845596	coherent
499.6563	0.0744007977191358	22	systole	20	B	500.0	coherent
499.8081	0.0744007977191358	22	systole	21	A	907.6609849845596	coherent
500.086	0.0744007977191358	22	systole	22	A	907.6609849845596	coherent
500.2368	0.0744007977191358	22	systole	23	B	500.0	coherent
500.3885	0.0744007977191358	22	systole	24	A	907.6609849845596	coherent
500.6608	0.0744007977191358	22	systole	25	A	907.6609849845596	coherent
500.8102	0.0744007977191358	22	systole	26	B	500.0	coherent
500.9607	0.0744007977191358	22	systole	27	A	907.6609849845596	coherent
501.2403	0.0744007977191358	22	systole	28	A	907.6609849845596	coherent
501.3898	0.0744007977191358	22	systole	29	B	500.0	coherent
501.5402	0.0744007977191358	22	systole	30	A	907.6609849845596	coherent
501.8203	0.0744007977191358	22	systole	31	A	907.6609849845596	coherent
501.9698	0.0744007977191358	22	systole	32	B	500.0	coherent
502.1202	0.0744007977191358	22	systole	33	A	907.6609849845596	coherent
502.3813	0.0744007977191358	22	systole	34	A	907.6609849845596	coherent
502.5283	0.0744007977191358	22	systole	35	B	500.0	coherent
502.6763	0.0744007977191358	22	systole	36	A	907.6609849845596	coherent
502.9322	0.0744007977191358	22	systole	37	A	907.6609849845596	coherent
503.0767	0.0744007977191358	22	systole	38	B	500.0	coherent
503.2222	0.0744007977191358	22	systole	39	A	907.6609849845596	coherent
503.4819	0.0744007977191358	22	systole	40	A	907.6609849845596	coherent
503.6263	0.0744007977191358	22	systole	41	B	500.0	coherent
503.7718	0.0744007977191358	22	systole	42	A	907.6609849845596	coherent
504.0319	0.0744007977191358	22	systole	43	A	907.6609849845596	coherent
504.1763	0.0744007977191358	22	systole	44	B	500.0	coherent
504.3218	0.0744007977191358	22	systole	45	A	907.6609849845596	coherent
504.5773	0.0744007977191358	22	systole	46	A	907.6609849845596	coherent
504.7205	0.0744007977191358	22	systole	47	B	500.0	coherent
504.8647	0.0744007977191358	22	systole	48	A	907.6609849845596	coherent
505.1134	0.0744007977191358	22	systole	49	A	907.6609849845596	coherent
505.2554	0.0744007977191358	22	systole	50	B	500.0	coherent
505.3984	0.0744007977191358	22	systole	51	A	907.6609849845596	coherent
507.4178	0.0706233687815256	23	systole	1	A	1855.0772444844133	streaming
507.5594	0.0706233687815256	23	systole	2	B	500.0	streaming
507.7004	0.0706233687815256	23	systole	3	A	1855.0772444844133	streaming
508.0161	0.0706233687815256	23	systole	4	A	1855.0772444844133	streaming
508.1599	0.0706233687815256	23	systole	5	B	500.0	streaming
508.3031	0.0706233687815256	23	systole	6	A	1855.0772444844133	streaming
508.6008	0.0706233687815256	23	systole	7	A	1855.0772444844133	streaming
508.7458	0.0706233687815256	23	systole	8	B	500.0	streaming
508.8903	0.0706233687815256	23	systole	9	A	1855.0772444844133	streaming
509.1808	0.0706233687815256	23	systole	10	A	1855.0772444844133	streaming
509.3259	0.0706233687815256	23	systole	11	B	500.0	streaming
509.4704	0.0706233687815256	23	systole	12	A	1855.0772444844133	streaming
509.7508	0.0706233687815256	23	systole	13	A	1855.0772444844133	streaming
509.8959	0.0706233687815256	23	systole	14	B	500.0	streaming
510.0404	0.0706233687815256	23	systole	15	A	1855.0772444844133	streaming
510.3208	0.0706233687815256	23	systole	16	A	1855.0772444844133	streaming
510.4659	0.0706233687815256	23	systole	17	B	500.0	streaming
510.6104	0.0706233687815256	23	systole	18	A	1855.0772444844133	streaming
510.8908	0.0706233687815256	23	systole	19	A	1855.0772444844133	streaming
511.0358	0.0706233687815256	23	systole	20	B	500.0	streaming
511.1803	0.0706233687815256	23	systole	21	A	1855.0772444844133	streaming
511.4409	0.0706233687815256	23	systole	22	A	1855.0772444844133	streaming
511.5859	0.0706233687815256	23	systole	23	B	500.0	streaming
511.7304	0.0706233687815256	23	systole	24	A	1855.0772444844133	streaming
511.9625	0.0706233687815256	23	systole	25	A	1855.0772444844133	streaming
512.1053	0.0706233687815256	23	systole	26	B	500.0	streaming
512.2475	0.0706233687815256	23	systole	27	A	1855.0772444844133	streaming
512.4925	0.0706233687815256	23	systole	28	A	1855.0772444844133	streaming
512.6353	0.0706233687815256	23	systole	29	B	500.0	streaming
512.7775	0.0706233687815256	23	systole	30	A	1855.0772444844133	streaming
513.0225	0.0706233687815256	23	systole	31	A	1855.0772444844133	streaming
513.1653	0.0706233687815256	23	systole	32	B	500.0	streaming
513.3075	0.0706233687815256	23	systole	33	A	1855.0772444844133	streaming
513.5296	0.0706233687815256	23	systole	34	A	1855.0772444844133	streaming
513.6661	0.0706233687815256	23	systole	35	B	500.0	streaming
513.8021	0.0706233687815256	23	systole	36	A	1855.0772444844133	streaming
514.0596	0.0706233687815256	23	systole	37	A	1855.0772444844133	streaming
514.1961	0.0706233687815256	23	systole	38	B	500.0	streaming
514.3321	0.0706233687815256	23	systole	39	A	1855.0772444844133	streaming
514.5951	0.0706233687815256	23	systole	40	A	1855.0772444844133	streaming
514.7304	0.0706233687815256	23	systole	41	B	500.0	streaming
514.8651	0.0706233687815256	23	systole	42	A	1855.0772444844133	streaming
515.1853	0.0706233687815256	23	systole	43	A	1855.0772444844133	streaming
515.3205	0.0706233687815256	23	systole	44	B	500.0	streaming
515.4553	0.0706233687815256	23	systole	45	A	1855.0772444844133	streaming
515.8353	0.0706233687815256	23	systole	46	A	1855.0772444844133	streaming
515.9706	0.0706233687815256	23	systole	47	B	500.0	streaming
516.1053	0.0706233687815256	23	systole	48	A	1855.0772444844133	streaming
516.4853	0.0706233687815256	23	systole	49	A	1855.0772444844133	streaming
516.6206	0.0706233687815256	23	systole	50	B	500.0	streaming
516.7553	0.0706233687815256	23	systole	51	A	1855.0772444844133	streaming
517.1853	0.0706233687815256	23	systole	52	A	1855.0772444844133	streaming
517.3206	0.0706233687815256	23	systole	53	B	500.0	streaming
517.4553	0.0706233687815256	23	systole	54	A	1855.0772444844133	streaming
520.0393	0.0824000374996103	24	systole	1	A	950.4996196948616	streaming
520.2049	0.0824000374996103	24	systole	2	B	500.0	streaming
520.3714	0.0824000374996103	24	systole	3	A	950.4996196948616	streaming
520.6794	0.0824000374996103	24	systole	4	A	950.4996196948616	streaming
520.845	0.0824000374996103	24	systole	5	B	500.0	streaming
521.0115	0.0824000374996103	24	systole	6	A	950.4996196948616	streaming
521.2894	0.0824000374996103	24	systole	7	A	950.4996196948616	streaming
521.455	0.0824000374996103	24	systole	8	B	500.0	streaming
521.6215	0.0824000374996103	24	systole	9	A	950.4996196948616	streaming
521.8994	0.0824000374996103	24	systole	10	A	950.4996196948616	streaming
522.065	0.0824000374996103	24	systole	11	B	500.0	streaming
522.2315	0.0824000374996103	24	systole	12	A	950.4996196948616	streaming
522.4795	0.0824000374996103	24	systole	13	A	950.4996196948616	streaming
522.6451	0.0824000374996103	24	systole	14	B	500.0	streaming
522.8116	0.0824000374996103	24	systole	15	A	950.4996196948616	streaming
523.0495	0.0824000374996103	24	systole	16	A	950.4996196948616	streaming
523.2151	0.0824000374996103	24	systole	17	B	500.0	streaming
523.3816	0.0824000374996103	24	systole	18	A	950.4996196948616	streaming
523.5965	0.0824000374996103	24	systole	19	A	950.4996196948616	streaming
523.7585	0.0824000374996103	24	systole	20	B	500.0	streaming
523.9215	0.0824000374996103	24	systole	21	A	950.4996196948616	streaming
524.076	0.0824000374996103	24	systole	22	A	950.4996196948616	streaming
524.2244	0.0824000374996103	24	systole	23	B	500.0	streaming
524.3736	0.0824000374996103	24	systole	24	A	950.4996196948616	streaming
524.5878	0.0824000374996103	24	systole	25	A	950.4996196948616	streaming
524.7311	0.0824000374996103	24	systole	26	B	500.0	streaming
524.8753	0.0824000374996103	24	systole	27	A	950.4996196948616	streaming
525.0985	0.0824000374996103	24	systole	28	A	950.4996196948616	streaming
525.2393	0.0824000374996103	24	systole	29	B	500.0	streaming
525.381	0.0824000374996103	24	systole	30	A	950.4996196948616	streaming
525.6094	0.0824000374996103	24	systole	31	A	950.4996196948616	streaming
525.7477	0.0824000374996103	24	systole	32	B	500.0	streaming
525.8869	0.0824000374996103	24	systole	33	A	950.4996196948616	streaming
526.1057	0.0824000374996103	24	systole	34	A	950.4996196948616	streaming
526.2402	0.0824000374996103	24	systole	35	B	500.0	streaming
526.3757	0.0824000374996103	24	systole	36	A	950.4996196948616	streaming
526.6156	0.0824000374996103	24	systole	37	A	950.4996196948616	streaming
526.7502	0.0824000374996103	24	systole	38	B	500.0	streaming
526.8856	0.0824000374996103	24	systole	39	A	950.4996196948616	streaming
527.1256	0.0824000374996103	24	systole	40	A	950.4996196948616	streaming
527.2602	0.0824000374996103	24	systole	41	B	500.0	streaming
527.3956	0.0824000374996103	24	systole	42	A	950.4996196948616	streaming
527.6264	0.0824000374996103	24	systole	43	A	950.4996196948616	streaming
527.7585	0.0824000374996103	24	systole	44	B	500.0	streaming
527.8914	0.0824000374996103	24	systole	45	A	950.4996196948616	streaming
528.1173	0.0824000374996103	24	systole	46	A	950.4996196948616	streaming
528.2468	0.0824000374996103	24	systole	47	B	500.0	streaming
528.3773	0.0824000374996103	24	systole	48	A	950.4996196948616	streaming
528.6226	0.0824000374996103	24	systole	49	A	950.4996196948616	streaming
528.751	0.0824000374996103	24	systole	50	B	500.0	streaming
528.8801	0.0824000374996103	24	systole	51	A	950.4996196948616	streaming
529.1325	0.0824000374996103	24	systole	52	A	950.4996196948616	streaming
529.2609	0.0824000374996103	24	systole	53	B	500.0	streaming
529.39	0.0824000374996103	24	systole	54	A	950.4996196948616	streaming
544.787	0.0706449833814986	26	diastole	1	A	1898.34934952021	streaming
544.9297	0.0706449833814986	26	diastole	2	B	500.0	streaming
545.0719	0.0706449833814986	26	diastole	3	A	1898.34934952021	streaming
545.3566	0.0706449833814986	26	diastole	4	A	1898.34934952021	streaming
545.4993	0.0706449833814986	26	diastole	5	B	500.0	streaming
545.6415	0.0706449833814986	26	diastole	6	A	1898.34934952021	streaming
545.917	0.0706449833814986	26	diastole	7	A	1898.34934952021	streaming
546.0597	0.0706449833814986	26	diastole	8	B	500.0	streaming
546.2019	0.0706449833814986	26	diastole	9	A	1898.34934952021	streaming
546.4769	0.0706449833814986	26	diastole	10	A	1898.34934952021	streaming
546.6196	0.0706449833814986	26	diastole	11	B	500.0	streaming
546.7618	0.0706449833814986	26	diastole	12	A	1898.34934952021	streaming
547.0269	0.0706449833814986	26	diastole	13	A	1898.34934952021	streaming
547.1696	0.0706449833814986	26	diastole	14	B	500.0	streaming
547.3117	0.0706449833814986	26	diastole	15	A	1898.34934952021	streaming
547.5601	0.0706449833814986	26	diastole	16	A	1898.34934952021	streaming
547.7017	0.0706449833814986	26	diastole	17	B	500.0	streaming
547.8426	0.0706449833814986	26	diastole	18	A	1898.34934952021	streaming
548.0832	0.0706449833814986	26	diastole	19	A	1898.34934952021	streaming
548.2235	0.0706449833814986	26	diastole	20	B	500.0	streaming
548.3633	0.0706449833814986	26	diastole	21	A	1898.34934952021	streaming
548.6262	0.0706449833814986	26	diastole	22	A	1898.34934952021	streaming
548.7652	0.0706449833814986	26	diastole	23	B	500.0	streaming
548.9037	0.0706449833814986	26	diastole	24	A	1898.34934952021	streaming
549.1587	0.0706449833814986	26	diastole	25	A	1898.34934952021	streaming
549.2965	0.0706449833814986	26	diastole	26	B	500.0	streaming
549.4338	0.0706449833814986	26	diastole	27	A	1898.34934952021	streaming
549.6983	0.0706449833814986	26	diastole	28	A	1898.34934952021	streaming
549.8362	0.0706449833814986	26	diastole	29	B	500.0	streaming
549.9734	0.0706449833814986	26	diastole	30	A	1898.34934952021	streaming
550.2584	0.0706449833814986	26	diastole	31	A	1898.34934952021	streaming
550.3962	0.0706449833814986	26	diastole	32	B	500.0	streaming
550.5334	0.0706449833814986	26	diastole	33	A	1898.34934952021	streaming
550.8083	0.0706449833814986	26	diastole	34	A	1898.34934952021	streaming
550.9461	0.0706449833814986	26	diastole	35	B	500.0	streaming
551.0833	0.0706449833814986	26	diastole	36	A	1898.34934952021	streaming
551.3582	0.0706449833814986	26	diastole	37	A	1898.34934952021	streaming
551.496	0.0706449833814986	26	diastole	38	B	500.0	streaming
551.6332	0.0706449833814986	26	diastole	39	A	1898.34934952021	streaming
551.9081	0.0706449833814986	26	diastole	40	A	1898.34934952021	streaming
552.0459	0.0706449833814986	26	diastole	41	B	500.0	streaming
552.1831	0.0706449833814986	26	diastole	42	A	1898.34934952021	streaming
552.4511	0.0706449833814986	26	diastole	43	A	1898.34934952021	streaming
552.5877	0.0706449833814986	26	diastole	44	B	500.0	streaming
552.7236	0.0706449833814986	26	diastole	45	A	1898.34934952021	streaming
553.0011	0.0706449833814986	26	diastole	46	A	1898.34934952021	streaming
553.1377	0.0706449833814986	26	diastole	47	B	500.0	streaming
553.2736	0.0706449833814986	26	diastole	48	A	1898.34934952021	streaming
553.5681	0.0706449833814986	26	diastole	49	A	1898.34934952021	streaming
553.7059	0.0706449833814986	26	diastole	50	B	500.0	streaming
553.8431	0.0706449833814986	26	diastole	51	A	1898.34934952021	streaming
556.5441	0.068747044133488	27	systole	1	A	672.5736556787729	coherent
556.6818	0.068747044133488	27	systole	2	B	500.0	coherent
556.8191	0.068747044133488	27	systole	3	A	672.5736556787729	coherent
557.106	0.068747044133488	27	systole	4	A	672.5736556787729	coherent
557.2437	0.068747044133488	27	systole	5	B	500.0	coherent
557.381	0.068747044133488	27	systole	6	A	672.5736556787729	coherent
557.6544	0.068747044133488	27	systole	7	A	672.5736556787729	coherent
557.7921	0.068747044133488	27	systole	8	B	500.0	coherent
557.9294	0.068747044133488	27	systole	9	A	672.5736556787729	coherent
558.1933	0.068747044133488	27	systole	10	A	672.5736556787729	coherent
558.3308	0.068747044133488	27	systole	11	B	500.0	coherent
558.4679	0.068747044133488	27	systole	12	A	672.5736556787729	coherent
558.7329	0.068747044133488	27	systole	13	A	672.5736556787729	coherent
558.8704	0.068747044133488	27	systole	14	B	500.0	coherent
559.0075	0.068747044133488	27	systole	15	A	672.5736556787729	coherent
559.2933	0.068747044133488	27	systole	16	A	672.5736556787729	coherent
559.4308	0.068747044133488	27	systole	17	B	500.0	coherent
559.5679	0.068747044133488	27	systole	18	A	672.5736556787729	coherent
559.8534	0.068747044133488	27	systole	19	A	672.5736556787729	coherent
559.9909	0.068747044133488	27	systole	20	B	500.0	coherent
560.128	0.068747044133488	27	systole	21	A	672.5736556787729	coherent
560.4285	0.068747044133488	27	systole	22	A	672.5736556787729	coherent
560.5675	0.068747044133488	27	systole	23	B	500.0	coherent
560.706	0.068747044133488	27	systole	24	A	672.5736556787729	coherent
561.003	0.068747044133488	27	systole	25	A	672.5736556787729	coherent
561.1433	0.068747044133488	27	systole	26	B	500.0	coherent
561.2831	0.068747044133488	27	systole	27	A	672.5736556787729	coherent
561.5727	0.068747044133488	27	systole	28	A	672.5736556787729	coherent
561.7129	0.068747044133488	27	systole	29	B	500.0	coherent
561.8528	0.068747044133488	27	systole	30	A	672.5736556787729	coherent
562.1326	0.068747044133488	27	systole	31	A	672.5736556787729	coherent
562.2728	0.068747044133488	27	systole	32	B	500.0	coherent
562.4127	0.068747044133488	27	systole	33	A	672.5736556787729	coherent
562.6925	0.068747044133488	27	systole	34	A	672.5736556787729	coherent
562.8327	0.068747044133488	27	systole	35	B	500.0	coherent
562.9726	0.068747044133488	27	systole	36	A	672.5736556787729	coherent
563.2531	0.068747044133488	27	systole	37	A	672.5736556787729	coherent
563.3934	0.068747044133488	27	systole	38	B	500.0	coherent
563.5333	0.068747044133488	27	systole	39	A	672.5736556787729	coherent
563.8135	0.068747044133488	27	systole	40	A	672.5736556787729	coherent
563.9538	0.068747044133488	27	systole	41	B	500.0	coherent
564.0937	0.068747044133488	27	systole	42	A	672.5736556787729	coherent
564.3731	0.068747044133488	27	systole	43	A	672.5736556787729	coherent
564.5134	0.068747044133488	27	systole	44	B	500.0	coherent
564.6533	0.068747044133488	27	systole	45	A	672.5736556787729	coherent
564.9327	0.068747044133488	27	systole	46	A	672.5736556787729	coherent
565.0731	0.068747044133488	27	systole	47	B	500.0	coherent
565.2129	0.068747044133488	27	systole	48	A	672.5736556787729	coherent
565.4925	0.068747044133488	27	systole	49	A	672.5736556787729	coherent
565.6328	0.068747044133488	27	systole	50	B	500.0	coherent
565.7726	0.068747044133488	27	systole	51	A	672.5736556787729	coherent
567.2437	0.0699902431806549	28	systole	1	A	2336.164364177629	streaming
567.3838	0.0699902431806549	28	systole	2	B	500.0	streaming
567.5237	0.0699902431806549	28	systole	3	A	2336.164364177629	streaming
567.8136	0.0699902431806549	28	systole	4	A	2336.164364177629	streaming
567.9537	0.0699902431806549	28	systole	5	B	500.0	streaming
568.0937	0.0699902431806549	28	systole	6	A	2336.164364177629	streaming
568.3836	0.0699902431806549	28	systole	7	A	2336.164364177629	streaming
568.5237	0.0699902431806549	28	systole	8	B	500.0	streaming
568.6636	0.0699902431806549	28	systole	9	A	2336.164364177629	streaming
568.9882	0.0699902431806549	28	systole	10	A	2336.164364177629	streaming
569.1296	0.0699902431806549	28	systole	11	B	500.0	streaming
569.2708	0.0699902431806549	28	systole	12	A	2336.164364177629	streaming
569.5972	0.0699902431806549	28	systole	13	A	2336.164364177629	streaming
569.741	0.0699902431806549	28	systole	14	B	500.0	streaming
569.8847	0.0699902431806549	28	systole	15	A	2336.164364177629	streaming
570.1964	0.0699902431806549	28	systole	16	A	2336.164364177629	streaming
570.3428	0.0699902431806549	28	systole	17	B	500.0	streaming
570.4889	0.0699902431806549	28	systole	18	A	2336.164364177629	streaming
570.7765	0.0699902431806549	28	systole	19	A	2336.164364177629	streaming
570.9229	0.0699902431806549	28	systole	20	B	500.0	streaming
571.0691	0.0699902431806549	28	systole	21	A	2336.164364177629	streaming
571.3566	0.0699902431806549	28	systole	22	A	2336.164364177629	streaming
571.503	0.0699902431806549	28	systole	23	B	500.0	streaming
571.6492	0.0699902431806549	28	systole	24	A	2336.164364177629	streaming
571.9265	0.0699902431806549	28	systole	25	A	2336.164364177629	streaming
572.0728	0.0699902431806549	28	systole	26	B	500.0	streaming
572.219	0.0699902431806549	28	systole	27	A	2336.164364177629	streaming
572.4964	0.0699902431806549	28	systole	28	A	2336.164364177629	streaming
572.6428	0.0699902431806549	28	systole	29	B	500.0	streaming
572.789	0.0699902431806549	28	systole	30	A	2336.164364177629	streaming
573.0765	0.0699902431806549	28	systole	31	A	2336.164364177629	streaming
573.2228	0.0699902431806549	28	systole	32	B	500.0	streaming
573.369	0.0699902431806549	28	systole	33	A	2336.164364177629	streaming
573.6524	0.0699902431806549	28	systole	34	A	2336.164364177629	streaming
573.7975	0.0699902431806549	28	systole	35	B	500.0	streaming
573.9425	0.0699902431806549	28	systole	36	A	2336.164364177629	streaming
574.2324	0.0699902431806549	28	systole	37	A	2336.164364177629	streaming
574.3775	0.0699902431806549	28	systole	38	B	500.0	streaming
574.5226	0.0699902431806549	28	systole	39	A	2336.164364177629	streaming
574.8125	0.0699902431806549	28	systole	40	A	2336.164364177629	streaming
574.9576	0.0699902431806549	28	systole	41	B	500.0	streaming
575.1026	0.0699902431806549	28	systole	42	A	2336.164364177629	streaming
575.3723	0.0699902431806549	28	systole	43	A	2336.164364177629	streaming
575.5174	0.0699902431806549	28	systole	44	B	500.0	streaming
575.6623	0.0699902431806549	28	systole	45	A	2336.164364177629	streaming
575.9223	0.0699902431806549	28	systole	46	A	2336.164364177629	streaming
576.0674	0.0699902431806549	28	systole	47	B	500.0	streaming
576.2123	0.0699902431806549	28	systole	48	A	2336.164364177629	streaming
576.4577	0.0699902431806549	28	systole	49	A	2336.164364177629	streaming
576.6015	0.0699902431806549	28	systole	50	B	500.0	streaming
576.7452	0.0699902431806549	28	systole	51	A	2336.164364177629	streaming
576.9886	0.0699902431806549	28	systole	52	A	2336.164364177629	streaming
577.1299	0.0699902431806549	28	systole	53	B	500.0	streaming
577.2711	0.0699902431806549	28	systole	54	A	2336.164364177629	streaming
579.885	0.0675031189457513	29	diastole	1	A	1855.0772444844133	streaming
580.0203	0.0675031189457513	29	diastole	2	B	500.0	streaming
580.1551	0.0675031189457513	29	diastole	3	A	1855.0772444844133	streaming
580.4051	0.0675031189457513	29	diastole	4	A	1855.0772444844133	streaming
580.5403	0.0675031189457513	29	diastole	5	B	500.0	streaming
580.6751	0.0675031189457513	29	diastole	6	A	1855.0772444844133	streaming
580.928	0.0675031189457513	29	diastole	7	A	1855.0772444844133	streaming
581.0621	0.0675031189457513	29	diastole	8	B	500.0	streaming
581.1955	0.0675031189457513	29	diastole	9	A	1855.0772444844133	streaming
581.4711	0.0675031189457513	29	diastole	10	A	1855.0772444844133	streaming
581.6039	0.0675031189457513	29	diastole	11	B	500.0	streaming
581.7361	0.0675031189457513	29	diastole	12	A	1855.0772444844133	streaming
582.021	0.0675031189457513	29	diastole	13	A	1855.0772444844133	streaming
582.1538	0.0675031189457513	29	diastole	14	B	500.0	streaming
582.2861	0.0675031189457513	29	diastole	15	A	1855.0772444844133	streaming
582.571	0.0675031189457513	29	diastole	16	A	1855.0772444844133	streaming
582.7038	0.0675031189457513	29	diastole	17	B	500.0	streaming
582.836	0.0675031189457513	29	diastole	18	A	1855.0772444844133	streaming
583.121	0.0675031189457513	29	diastole	19	A	1855.0772444844133	streaming
583.2537	0.0675031189457513	29	diastole	20	B	500.0	streaming
583.386	0.0675031189457513	29	diastole	21	A	1855.0772444844133	streaming
583.678	0.0675031189457513	29	diastole	22	A	1855.0772444844133	streaming
583.8121	0.0675031189457513	29	diastole	23	B	500.0	streaming
583.9456	0.0675031189457513	29	diastole	24	A	1855.0772444844133	streaming
584.2451	0.0675031189457513	29	diastole	25	A	1855.0772444844133	streaming
584.3804	0.0675031189457513	29	diastole	26	B	500.0	streaming
584.5151	0.0675031189457513	29	diastole	27	A	1855.0772444844133	streaming
584.8051	0.0675031189457513	29	diastole	28	A	1855.0772444844133	streaming
584.9404	0.0675031189457513	29	diastole	29	B	500.0	streaming
585.0751	0.0675031189457513	29	diastole	30	A	1855.0772444844133	streaming
585.3651	0.0675031189457513	29	diastole	31	A	1855.0772444844133	streaming
585.5004	0.0675031189457513	29	diastole	32	B	500.0	streaming
585.6351	0.0675031189457513	29	diastole	33	A	1855.0772444844133	streaming
585.9392	0.0675031189457513	29	diastole	34	A	1855.0772444844133	streaming
586.077	0.0675031189457513	29	diastole	35	B	500.0	streaming
586.2142	0.0675031189457513	29	diastole	36	A	1855.0772444844133	streaming
586.4992	0.0675031189457513	29	diastole	37	A	1855.0772444844133	streaming
586.637	0.0675031189457513	29	diastole	38	B	500.0	streaming
586.7742	0.0675031189457513	29	diastole	39	A	1855.0772444844133	streaming
587.0594	0.0675031189457513	29	diastole	40	A	1855.0772444844133	streaming
587.1972	0.0675031189457513	29	diastole	41	B	500.0	streaming
587.3344	0.0675031189457513	29	diastole	42	A	1855.0772444844133	streaming
587.6094	0.0675031189457513	29	diastole	43	A	1855.0772444844133	streaming
587.7472	0.0675031189457513	29	diastole	44	B	500.0	streaming
587.8845	0.0675031189457513	29	diastole	45	A	1855.0772444844133	streaming
588.1595	0.0675031189457513	29	diastole	46	A	1855.0772444844133	streaming
588.2972	0.0675031189457513	29	diastole	47	B	500.0	streaming
588.4345	0.0675031189457513	29	diastole	48	A	1855.0772444844133	streaming
588.6994	0.0675031189457513	29	diastole	49	A	1855.0772444844133	streaming
588.8371	0.0675031189457513	29	diastole	50	B	500.0	streaming
588.9743	0.0675031189457513	29	diastole	51	A	1855.0772444844133	streaming
591.5635	0.0693711875355802	30	diastole	1	A	510.0000000000003	coherent
591.7035	0.0693711875355802	30	diastole	2	B	500.0	coherent
591.8435	0.0693711875355802	30	diastole	3	A	510.0000000000003	coherent
592.1607	0.0693711875355802	30	diastole	4	A	510.0000000000003	coherent
592.302	0.0693711875355802	30	diastole	5	B	500.0	coherent
592.4432	0.0693711875355802	30	diastole	6	A	510.0000000000003	coherent
592.7507	0.0693711875355802	30	diastole	7	A	510.0000000000003	coherent
592.892	0.0693711875355802	30	diastole	8	B	500.0	coherent
593.0332	0.0693711875355802	30	diastole	9	A	510.0000000000003	coherent
593.3379	0.0693711875355802	30	diastole	10	A	510.0000000000003	coherent
593.4804	0.0693711875355802	30	diastole	11	B	500.0	coherent
593.6229	0.0693711875355802	30	diastole	12	A	510.0000000000003	coherent
593.9249	0.0693711875355802	30	diastole	13	A	510.0000000000003	coherent
594.0687	0.0693711875355802	30	diastole	14	B	500.0	coherent
594.2124	0.0693711875355802	30	diastole	15	A	510.0000000000003	coherent
594.4948	0.0693711875355802	30	diastole	16	A	510.0000000000003	coherent
594.6386	0.0693711875355802	30	diastole	17	B	500.0	coherent
