onset	duration	trial_num	trial_type	tone_num	tone_type	frequency	response
212.6579	0.1018793937982991	1	diastole	1	A	1578.5670027440333	streaming
212.8618	0.1018793937982991	1	diastole	2	B	500.0	streaming
213.0655	0.1018793937982991	1	diastole	3	A	1578.5670027440333	streaming
213.4267	0.1018793937982991	1	diastole	4	A	1578.5670027440333	streaming
213.6268	0.1018793937982991	1	diastole	5	B	500.0	streaming
213.8267	0.1018793937982991	1	diastole	6	A	1578.5670027440333	streaming
214.2167	0.1018793937982991	1	diastole	7	A	1578.5670027440333	streaming
214.4168	0.1018793937982991	1	diastole	8	B	500.0	streaming
214.6167	0.1018793937982991	1	diastole	9	A	1578.5670027440333	streaming
215.0652	0.1018793937982991	1	diastole	10	A	1578.5670027440333	streaming
215.2668	0.1018793937982991	1	diastole	11	B	500.0	streaming
215.4682	0.1018793937982991	1	diastole	12	A	1578.5670027440333	streaming
215.9638	0.1018793937982991	1	diastole	13	A	1578.5670027440333	streaming
216.1705	0.1018793937982991	1	diastole	14	B	500.0	streaming
216.3769	0.1018793937982991	1	diastole	15	A	1578.5670027440333	streaming
216.8338	0.1018793937982991	1	diastole	16	A	1578.5670027440333	streaming
217.0405	0.1018793937982991	1	diastole	17	B	500.0	streaming
217.2469	0.1018793937982991	1	diastole	18	A	1578.5670027440333	streaming
217.7065	0.1018793937982991	1	diastole	19	A	1578.5670027440333	streaming
217.9154	0.1018793937982991	1	diastole	20	B	500.0	streaming
218.1241	0.1018793937982991	1	diastole	21	A	1578.5670027440333	streaming
218.5465	0.1018793937982991	1	diastole	22	A	1578.5670027440333	streaming
218.7554	0.1018793937982991	1	diastole	23	B	500.0	streaming
218.9641	0.1018793937982991	1	diastole	24	A	1578.5670027440333	streaming
219.3182	0.1018793937982991	1	diastole	25	A	1578.5670027440333	streaming
219.5221	0.1018793937982991	1	diastole	26	B	500.0	streaming
219.7258	0.1018793937982991	1	diastole	27	A	1578.5670027440333	streaming
220.1137	0.1018793937982991	1	diastole	28	A	1578.5670027440333	streaming
220.3151	0.1018793937982991	1	diastole	29	B	500.0	streaming
220.5162	0.1018793937982991	1	diastole	30	A	1578.5670027440333	streaming
220.9137	0.1018793937982991	1	diastole	31	A	1578.5670027440333	streaming
221.1151	0.1018793937982991	1	diastole	32	B	500.0	streaming
221.3162	0.1018793937982991	1	diastole	33	A	1578.5670027440333	streaming
221.7038	0.1018793937982991	1	diastole	34	A	1578.5670027440333	streaming
221.9051	0.1018793937982991	1	diastole	35	B	500.0	streaming
222.1062	0.1018793937982991	1	diastole	36	A	1578.5670027440333	streaming
231.8683	0.0955089541967026	2	systole	1	A	1578.5670027440333	streaming
232.0607	0.0955089541967026	2	systole	2	B	500.0	streaming
232.2529	0.0955089541967026	2	systole	3	A	1578.5670027440333	streaming
232.6383	0.0955089541967026	2	systole	4	A	1578.5670027440333	streaming
232.8307	0.0955089541967026	2	systole	5	B	500.0	streaming
233.0228	0.0955089541967026	2	systole	6	A	1578.5670027440333	streaming
233.4038	0.0955089541967026	2	systole	7	A	1578.5670027440333	streaming
233.5949	0.0955089541967026	2	systole	8	B	500.0	streaming
233.7858	0.0955089541967026	2	systole	9	A	1578.5670027440333	streaming
234.1734	0.0955089541967026	2	systole	10	A	1578.5670027440333	streaming
234.3645	0.0955089541967026	2	systole	11	B	500.0	streaming
234.5554	0.0955089541967026	2	systole	12	A	1578.5670027440333	streaming
234.943	0.0955089541967026	2	systole	13	A	1578.5670027440333	streaming
235.1341	0.0955089541967026	2	systole	14	B	500.0	streaming
235.325	0.0955089541967026	2	systole	15	A	1578.5670027440333	streaming
235.699	0.0955089541967026	2	systole	16	A	1578.5670027440333	streaming
235.889	0.0955089541967026	2	systole	17	B	500.0	streaming
236.0789	0.0955089541967026	2	systole	18	A	1578.5670027440333	streaming
236.4591	0.0955089541967026	2	systole	19	A	1578.5670027440333	streaming
236.6492	0.0955089541967026	2	systole	20	B	500.0	streaming
236.8391	0.0955089541967026	2	systole	21	A	1578.5670027440333	streaming
237.2335	0.0955089541967026	2	systole	22	A	1578.5670027440333	streaming
237.4248	0.0955089541967026	2	systole	23	B	500.0	streaming
237.6159	0.0955089541967026	2	systole	24	A	1578.5670027440333	streaming
238.0181	0.0955089541967026	2	systole	25	A	1578.5670027440333	streaming
238.2107	0.0955089541967026	2	systole	26	B	500.0	streaming
238.403	0.0955089541967026	2	systole	27	A	1578.5670027440333	streaming
238.7982	0.0955089541967026	2	systole	28	A	1578.5670027440333	streaming
238.9907	0.0955089541967026	2	systole	29	B	500.0	streaming
239.1831	0.0955089541967026	2	systole	30	A	1578.5670027440333	streaming
239.5783	0.0955089541967026	2	systole	31	A	1578.5670027440333	streaming
239.7709	0.0955089541967026	2	systole	32	B	500.0	streaming
239.9633	0.0955089541967026	2	systole	33	A	1578.5670027440333	streaming
240.3584	0.0955089541967026	2	systole	34	A	1578.5670027440333	streaming
240.551	0.0955089541967026	2	systole	35	B	500.0	streaming
240.7433	0.0955089541967026	2	systole	36	A	1578.5670027440333	streaming
241.1287	0.0955089541967026	2	systole	37	A	1578.5670027440333	streaming
241.3213	0.0955089541967026	2	systole	38	B	500.0	streaming
241.5138	0.0955089541967026	2	systole	39	A	1578.5670027440333	streaming
245.9669	0.098746862495318	3	systole	1	A	1169.7126981694591	coherent
246.1649	0.098746862495318	3	systole	2	B	500.0	coherent
246.3619	0.098746862495318	3	systole	3	A	1169.7126981694591	coherent
246.7469	0.098746862495318	3	systole	4	A	1169.7126981694591	coherent
246.9449	0.098746862495318	3	systole	5	B	500.0	coherent
247.1419	0.098746862495318	3	systole	6	A	1169.7126981694591	coherent
247.5169	0.098746862495318	3	systole	7	A	1169.7126981694591	coherent
247.7149	0.098746862495318	3	systole	8	B	500.0	coherent
247.9119	0.098746862495318	3	systole	9	A	1169.7126981694591	coherent
248.2869	0.098746862495318	3	systole	10	A	1169.7126981694591	coherent
248.4849	0.098746862495318	3	systole	11	B	500.0	coherent
248.6819	0.098746862495318	3	systole	12	A	1169.7126981694591	coherent
249.107	0.098746862495318	3	systole	13	A	1169.7126981694591	coherent
249.305	0.098746862495318	3	systole	14	B	500.0	coherent
249.502	0.098746862495318	3	systole	15	A	1169.7126981694591	coherent
249.9261	0.098746862495318	3	systole	16	A	1169.7126981694591	coherent
250.1266	0.098746862495318	3	systole	17	B	500.0	coherent
250.3261	0.098746862495318	3	systole	18	A	1169.7126981694591	coherent
250.7216	0.098746862495318	3	systole	19	A	1169.7126981694591	coherent
250.9209	0.098746862495318	3	systole	20	B	500.0	coherent
251.1191	0.098746862495318	3	systole	21	A	1169.7126981694591	coherent
251.5216	0.098746862495318	3	systole	22	A	1169.7126981694591	coherent
251.7209	0.098746862495318	3	systole	23	B	500.0	coherent
251.9191	0.098746862495318	3	systole	24	A	1169.7126981694591	coherent
252.3116	0.098746862495318	3	systole	25	A	1169.7126981694591	coherent
252.5108	0.098746862495318	3	systole	26	B	500.0	coherent
252.7091	0.098746862495318	3	systole	27	A	1169.7126981694591	coherent
253.0769	0.098746862495318	3	systole	28	A	1169.7126981694591	coherent
253.2748	0.098746862495318	3	systole	29	B	500.0	coherent
253.4719	0.098746862495318	3	systole	30	A	1169.7126981694591	coherent
253.8769	0.098746862495318	3	systole	31	A	1169.7126981694591	coherent
254.0748	0.098746862495318	3	systole	32	B	500.0	coherent
254.2718	0.098746862495318	3	systole	33	A	1169.7126981694591	coherent
254.6674	0.098746862495318	3	systole	34	A	1169.7126981694591	coherent
254.8654	0.098746862495318	3	systole	35	B	500.0	coherent
255.0625	0.098746862495318	3	systole	36	A	1169.7126981694591	coherent
255.4573	0.098746862495318	3	systole	37	A	1169.7126981694591	coherent
255.6554	0.098746862495318	3	systole	38	B	500.0	coherent
255.8524	0.098746862495318	3	systole	39	A	1169.7126981694591	coherent
263.7822	0.0987498250324279	4	diastole	1	A	1169.7126981694591	streaming
263.9802	0.0987498250324279	4	diastole	2	B	500.0	streaming
264.1771	0.0987498250324279	4	diastole	3	A	1169.7126981694591	streaming
264.5821	0.0987498250324279	4	diastole	4	A	1169.7126981694591	streaming
264.7801	0.0987498250324279	4	diastole	5	B	500.0	streaming
264.9771	0.0987498250324279	4	diastole	6	A	1169.7126981694591	streaming
265.3722	0.0987498250324279	4	diastole	7	A	1169.7126981694591	streaming
265.5702	0.0987498250324279	4	diastole	8	B	500.0	streaming
265.7672	0.0987498250324279	4	diastole	9	A	1169.7126981694591	streaming
266.0251	0.0987498250324279	4	diastole	10	A	1169.7126981694591	streaming
266.2218	0.0987498250324279	4	diastole	11	B	500.0	streaming
266.4176	0.0987498250324279	4	diastole	12	A	1169.7126981694591	streaming
266.9022	0.0987498250324279	4	diastole	13	A	1169.7126981694591	streaming
267.1002	0.0987498250324279	4	diastole	14	B	500.0	streaming
267.2972	0.0987498250324279	4	diastole	15	A	1169.7126981694591	streaming
267.6779	0.0987498250324279	4	diastole	16	A	1169.7126981694591	streaming
267.8748	0.0987498250324279	4	diastole	17	B	500.0	streaming
268.0707	0.0987498250324279	4	diastole	18	A	1169.7126981694591	streaming
268.4492	0.0987498250324279	4	diastole	19	A	1169.7126981694591	streaming
268.6448	0.0987498250324279	4	diastole	20	B	500.0	streaming
268.8396	0.0987498250324279	4	diastole	21	A	1169.7126981694591	streaming
269.232	0.0987498250324279	4	diastole	22	A	1169.7126981694591	streaming
269.4279	0.0987498250324279	4	diastole	23	B	500.0	streaming
269.6228	0.0987498250324279	4	diastole	24	A	1169.7126981694591	streaming
270.0252	0.0987498250324279	4	diastole	25	A	1169.7126981694591	streaming
270.2219	0.0987498250324279	4	diastole	26	B	500.0	streaming
270.4177	0.0987498250324279	4	diastole	27	A	1169.7126981694591	streaming
270.8452	0.0987498250324279	4	diastole	28	A	1169.7126981694591	streaming
271.0419	0.0987498250324279	4	diastole	29	B	500.0	streaming
271.2377	0.0987498250324279	4	diastole	30	A	1169.7126981694591	streaming
271.6548	0.0987498250324279	4	diastole	31	A	1169.7126981694591	streaming
271.8515	0.0987498250324279	4	diastole	32	B	500.0	streaming
272.0473	0.0987498250324279	4	diastole	33	A	1169.7126981694591	streaming
272.4952	0.0987498250324279	4	diastole	34	A	1169.7126981694591	streaming
272.692	0.0987498250324279	4	diastole	35	B	500.0	streaming
272.8878	0.0987498250324279	4	diastole	36	A	1169.7126981694591	streaming
276.1252	0.1012317206477746	5	systole	1	A	2034.3166651064248	coherent
276.328	0.1012317206477746	5	systole	2	B	500.0	coherent
276.5301	0.1012317206477746	5	systole	3	A	2034.3166651064248	coherent
276.8948	0.1012317206477746	5	systole	4	A	2034.3166651064248	coherent
277.0976	0.1012317206477746	5	systole	5	B	500.0	coherent
277.2997	0.1012317206477746	5	systole	6	A	2034.3166651064248	coherent
277.6452	0.1012317206477746	5	systole	7	A	2034.3166651064248	coherent
277.848	0.1012317206477746	5	systole	8	B	500.0	coherent
278.0502	0.1012317206477746	5	systole	9	A	2034.3166651064248	coherent
278.3956	0.1012317206477746	5	systole	10	A	2034.3166651064248	coherent
278.5984	0.1012317206477746	5	systole	11	B	500.0	coherent
278.8005	0.1012317206477746	5	systole	12	A	2034.3166651064248	coherent
279.0609	0.1012317206477746	5	systole	13	A	2034.3166651064248	coherent
279.2624	0.1012317206477746	5	systole	14	B	500.0	coherent
279.4633	0.1012317206477746	5	systole	15	A	2034.3166651064248	coherent
279.8127	0.1012317206477746	5	systole	16	A	2034.3166651064248	coherent
280.0093	0.1012317206477746	5	systole	17	B	500.0	coherent
280.2052	0.1012317206477746	5	systole	18	A	2034.3166651064248	coherent
280.5827	0.1012317206477746	5	systole	19	A	2034.3166651064248	coherent
280.7793	0.1012317206477746	5	systole	20	B	500.0	coherent
280.9752	0.1012317206477746	5	systole	21	A	2034.3166651064248	coherent
281.3527	0.1012317206477746	5	systole	22	A	2034.3166651064248	coherent
281.5493	0.1012317206477746	5	systole	23	B	500.0	coherent
281.7453	0.1012317206477746	5	systole	24	A	2034.3166651064248	coherent
282.1381	0.1012317206477746	5	systole	25	A	2034.3166651064248	coherent
282.3334	0.1012317206477746	5	systole	26	B	500.0	coherent
282.5281	0.1012317206477746	5	systole	27	A	2034.3166651064248	coherent
282.9281	0.1012317206477746	5	systole	28	A	2034.3166651064248	coherent
283.1235	0.1012317206477746	5	systole	29	B	500.0	coherent
283.3181	0.1012317206477746	5	systole	30	A	2034.3166651064248	coherent
283.7566	0.1012317206477746	5	systole	31	A	2034.3166651064248	coherent
283.9569	0.1012317206477746	5	systole	32	B	500.0	coherent
284.1566	0.1012317206477746	5	systole	33	A	2034.3166651064248	coherent
284.5667	0.1012317206477746	5	systole	34	A	2034.3166651064248	coherent
284.767	0.1012317206477746	5	systole	35	B	500.0	coherent
284.9667	0.1012317206477746	5	systole	36	A	2034.3166651064248	coherent
318.7139	0.1105298688053153	8	systole	1	A	3010.640720484466	coherent
318.9352	0.1105298688053153	8	systole	2	B	500.0	coherent
319.156	0.1105298688053153	8	systole	3	A	3010.640720484466	coherent
319.544	0.1105298688053153	8	systole	4	A	3010.640720484466	coherent
319.7652	0.1105298688053153	8	systole	5	B	500.0	coherent
319.9861	0.1105298688053153	8	systole	6	A	3010.640720484466	coherent
320.3696	0.1105298688053153	8	systole	7	A	3010.640720484466	coherent
320.5899	0.1105298688053153	8	systole	8	B	500.0	coherent
320.8096	0.1105298688053153	8	systole	9	A	3010.640720484466	coherent
321.1991	0.1105298688053153	8	systole	10	A	3010.640720484466	coherent
321.4194	0.1105298688053153	8	systole	11	B	500.0	coherent
321.6391	0.1105298688053153	8	systole	12	A	3010.640720484466	coherent
322.0291	0.1105298688053153	8	systole	13	A	3010.640720484466	coherent
322.2493	0.1105298688053153	8	systole	14	B	500.0	coherent
322.4689	0.1105298688053153	8	systole	15	A	3010.640720484466	coherent
322.8131	0.1105298688053153	8	systole	16	A	3010.640720484466	coherent
323.0234	0.1105298688053153	8	systole	17	B	500.0	coherent
323.2333	0.1105298688053153	8	systole	18	A	3010.640720484466	coherent
323.6331	0.1105298688053153	8	systole	19	A	3010.640720484466	coherent
323.8434	0.1105298688053153	8	systole	20	B	500.0	coherent
324.0533	0.1105298688053153	8	systole	21	A	3010.640720484466	coherent
324.4234	0.1105298688053153	8	systole	22	A	3010.640720484466	coherent
324.631	0.1105298688053153	8	systole	23	B	500.0	coherent
324.8383	0.1105298688053153	8	systole	24	A	3010.640720484466	coherent
325.2088	0.1105298688053153	8	systole	25	A	3010.640720484466	coherent
325.4152	0.1105298688053153	8	systole	26	B	500.0	coherent
325.6212	0.1105298688053153	8	systole	27	A	3010.640720484466	coherent
325.9988	0.1105298688053153	8	systole	28	A	3010.640720484466	coherent
326.2053	0.1105298688053153	8	systole	29	B	500.0	coherent
326.4112	0.1105298688053153	8	systole	30	A	3010.640720484466	coherent
326.7914	0.1105298688053153	8	systole	31	A	3010.640720484466	coherent
326.9954	0.1105298688053153	8	systole	32	B	500.0	coherent
327.1989	0.1105298688053153	8	systole	33	A	3010.640720484466	coherent
333.1109	0.0992762530804611	9	systole	1	A	1091.5327872906942	coherent
333.3099	0.0992762530804611	9	systole	2	B	500.0	coherent
333.508	0.0992762530804611	9	systole	3	A	1091.5327872906942	coherent
333.8709	0.0992762530804611	9	systole	4	A	1091.5327872906942	coherent
334.0699	0.0992762530804611	9	systole	5	B	500.0	coherent
334.268	0.0992762530804611	9	systole	6	A	1091.5327872906942	coherent
334.6269	0.0992762530804611	9	systole	7	A	1091.5327872906942	coherent
334.8249	0.0992762530804611	9	systole	8	B	500.0	coherent
335.0219	0.0992762530804611	9	systole	9	A	1091.5327872906942	coherent
335.3187	0.0992762530804611	9	systole	10	A	1091.5327872906942	coherent
335.5117	0.0992762530804611	9	systole	11	B	500.0	coherent
335.7038	0.0992762530804611	9	systole	12	A	1091.5327872906942	coherent
336.0287	0.0992762530804611	9	systole	13	A	1091.5327872906942	coherent
336.2217	0.0992762530804611	9	systole	14	B	500.0	coherent
336.4138	0.0992762530804611	9	systole	15	A	1091.5327872906942	coherent
336.7496	0.0992762530804611	9	systole	16	A	1091.5327872906942	coherent
336.9401	0.0992762530804611	9	systole	17	B	500.0	coherent
337.1296	0.0992762530804611	9	systole	18	A	1091.5327872906942	coherent
337.5296	0.0992762530804611	9	systole	19	A	1091.5327872906942	coherent
337.7201	0.0992762530804611	9	systole	20	B	500.0	coherent
337.9097	0.0992762530804611	9	systole	21	A	1091.5327872906942	coherent
338.3197	0.0992762530804611	9	systole	22	A	1091.5327872906942	coherent
338.5101	0.0992762530804611	9	systole	23	B	500.0	coherent
338.6997	0.0992762530804611	9	systole	24	A	1091.5327872906942	coherent
339.1789	0.0992762530804611	9	systole	25	A	1091.5327872906942	coherent
339.3719	0.0992762530804611	9	systole	26	B	500.0	coherent
339.5639	0.0992762530804611	9	systole	27	A	1091.5327872906942	coherent
340.0488	0.0992762530804611	9	systole	28	A	1091.5327872906942	coherent
340.2418	0.0992762530804611	9	systole	29	B	500.0	coherent
340.4339	0.0992762530804611	9	systole	30	A	1091.5327872906942	coherent
340.9025	0.0992762530804611	9	systole	31	A	1091.5327872906942	coherent
341.0993	0.0992762530804611	9	systole	32	B	500.0	coherent
341.295	0.0992762530804611	9	systole	33	A	1091.5327872906942	coherent
341.7272	0.0992762530804611	9	systole	34	A	1091.5327872906942	coherent
341.9251	0.0992762530804611	9	systole	35	B	500.0	coherent
342.1222	0.0992762530804611	9	systole	36	A	1091.5327872906942	coherent
345.2966	0.1000030062859878	10	diastole	1	A	846.9957848672357	coherent
345.4969	0.1000030062859878	10	diastole	2	B	500.0	coherent
345.6966	0.1000030062859878	10	diastole	3	A	846.9957848672357	coherent
345.9964	0.1000030062859878	10	diastole	4	A	846.9957848672357	coherent
346.1968	0.1000030062859878	10	diastole	5	B	500.0	coherent
346.3964	0.1000030062859878	10	diastole	6	A	846.9957848672357	coherent
346.6963	0.1000030062859878	10	diastole	7	A	846.9957848672357	coherent
346.8967	0.1000030062859878	10	diastole	8	B	500.0	coherent
347.0963	0.1000030062859878	10	diastole	9	A	846.9957848672357	coherent
347.3152	0.1000030062859878	10	diastole	10	A	846.9957848672357	coherent
347.5119	0.1000030062859878	10	diastole	11	B	500.0	coherent
347.7078	0.1000030062859878	10	diastole	12	A	846.9957848672357	coherent
347.9086	0.1000030062859878	10	diastole	13	A	846.9957848672357	coherent
348.0952	0.1000030062859878	10	diastole	14	B	500.0	coherent
348.2811	0.1000030062859878	10	diastole	15	A	846.9957848672357	coherent
348.5316	0.1000030062859878	10	diastole	16	A	846.9957848672357	coherent
348.7083	0.1000030062859878	10	diastole	17	B	500.0	coherent
348.8841	0.1000030062859878	10	diastole	18	A	846.9957848672357	coherent
349.2116	0.1000030062859878	10	diastole	19	A	846.9957848672357	coherent
349.3882	0.1000030062859878	10	diastole	20	B	500.0	coherent
349.564	0.1000030062859878	10	diastole	21	A	846.9957848672357	coherent
350.0013	0.1000030062859878	10	diastole	22	A	846.9957848672357	coherent
350.1778	0.1000030062859878	10	diastole	23	B	500.0	coherent
350.3537	0.1000030062859878	10	diastole	24	A	846.9957848672357	coherent
350.7909	0.1000030062859878	10	diastole	25	A	846.9957848672357	coherent
350.9675	0.1000030062859878	10	diastole	26	B	500.0	coherent
351.1434	0.1000030062859878	10	diastole	27	A	846.9957848672357	coherent
351.6913	0.1000030062859878	10	diastole	28	A	846.9957848672357	coherent
351.8679	0.1000030062859878	10	diastole	29	B	500.0	coherent
352.0438	0.1000030062859878	10	diastole	30	A	846.9957848672357	coherent
352.5917	0.1000030062859878	10	diastole	31	A	846.9957848672357	coherent
352.7683	0.1000030062859878	10	diastole	32	B	500.0	coherent
352.9442	0.1000030062859878	10	diastole	33	A	846.9957848672357	coherent
353.4782	0.1000030062859878	10	diastole	34	A	846.9957848672357	coherent
353.6647	0.1000030062859878	10	diastole	35	B	500.0	coherent
353.8506	0.1000030062859878	10	diastole	36	A	846.9957848672357	coherent
357.4178	0.1018557687057182	11	diastole	1	A	1542.5842068661057	coherent
357.6216	0.1018557687057182	11	diastole	2	B	500.0	coherent
357.8252	0.1018557687057182	11	diastole	3	A	1542.5842068661057	coherent
358.1324	0.1018557687057182	11	diastole	4	A	1542.5842068661057	coherent
358.33	0.1018557687057182	11	diastole	5	B	500.0	coherent
358.5274	0.1018557687057182	11	diastole	6	A	1542.5842068661057	coherent
358.8824	0.1018557687057182	11	diastole	7	A	1542.5842068661057	coherent
359.08	0.1018557687057182	11	diastole	8	B	500.0	coherent
359.2774	0.1018557687057182	11	diastole	9	A	1542.5842068661057	coherent
359.5972	0.1018557687057182	11	diastole	10	A	1542.5842068661057	coherent
359.7886	0.1018557687057182	11	diastole	11	B	500.0	coherent
359.9798	0.1018557687057182	11	diastole	12	A	1542.5842068661057	coherent
360.3262	0.1018557687057182	11	diastole	13	A	1542.5842068661057	coherent
360.5137	0.1018557687057182	11	diastole	14	B	500.0	coherent
360.7012	0.1018557687057182	11	diastole	15	A	1542.5842068661057	coherent
361.1161	0.1018557687057182	11	diastole	16	A	1542.5842068661057	coherent
361.3037	0.1018557687057182	11	diastole	17	B	500.0	coherent
361.4912	0.1018557687057182	11	diastole	18	A	1542.5842068661057	coherent
362.1357	0.1018557687057182	11	diastole	19	A	1542.5842068661057	coherent
362.3234	0.1018557687057182	11	diastole	20	B	500.0	coherent
362.5108	0.1018557687057182	11	diastole	21	A	1542.5842068661057	coherent
363.1553	0.1018557687057182	11	diastole	22	A	1542.5842068661057	coherent
363.343	0.1018557687057182	11	diastole	23	B	500.0	coherent
363.5304	0.1018557687057182	11	diastole	24	A	1542.5842068661057	coherent
364.0141	0.1018557687057182	11	diastole	25	A	1542.5842068661057	coherent
364.2067	0.1018557687057182	11	diastole	26	B	500.0	coherent
364.3991	0.1018557687057182	11	diastole	27	A	1542.5842068661057	coherent
364.8445	0.1018557687057182	11	diastole	28	A	1542.5842068661057	coherent
365.0371	0.1018557687057182	11	diastole	29	B	500.0	coherent
365.2295	0.1018557687057182	11	diastole	30	A	1542.5842068661057	coherent
365.7809	0.1018557687057182	11	diastole	31	A	1542.5842068661057	coherent
365.9836	0.1018557687057182	11	diastole	32	B	500.0	coherent
366.186	0.1018557687057182	11	diastole	33	A	1542.5842068661057	coherent
366.6313	0.1018557687057182	11	diastole	34	A	1542.5842068661057	coherent
366.8339	0.1018557687057182	11	diastole	35	B	500.0	coherent
367.0364	0.1018557687057182	11	diastole	36	A	1542.5842068661057	coherent
372.308	0.0987577701453119	12	systole	1	A	1143.0495706741503	streaming
372.5035	0.0987577701453119	12	systole	2	B	500.0	streaming
372.6981	0.0987577701453119	12	systole	3	A	1143.0495706741503	streaming
373.0181	0.0987577701453119	12	systole	4	A	1143.0495706741503	streaming
373.2136	0.0987577701453119	12	systole	5	B	500.0	streaming
373.4081	0.0987577701453119	12	systole	6	A	1143.0495706741503	streaming
373.8581	0.0987577701453119	12	systole	7	A	1143.0495706741503	streaming
374.0536	0.0987577701453119	12	systole	8	B	500.0	streaming
374.2482	0.0987577701453119	12	systole	9	A	1143.0495706741503	streaming
374.5889	0.0987577701453119	12	systole	10	A	1143.0495706741503	streaming
374.7819	0.0987577701453119	12	systole	11	B	500.0	streaming
374.9739	0.0987577701453119	12	systole	12	A	1143.0495706741503	streaming
375.3889	0.0987577701453119	12	systole	13	A	1143.0495706741503	streaming
375.5819	0.0987577701453119	12	systole	14	B	500.0	streaming
375.7739	0.0987577701453119	12	systole	15	A	1143.0495706741503	streaming
376.1889	0.0987577701453119	12	systole	16	A	1143.0495706741503	streaming
376.3819	0.0987577701453119	12	systole	17	B	500.0	streaming
376.5739	0.0987577701453119	12	systole	18	A	1143.0495706741503	streaming
376.9889	0.0987577701453119	12	systole	19	A	1143.0495706741503	streaming
377.1819	0.0987577701453119	12	systole	20	B	500.0	streaming
377.3739	0.0987577701453119	12	systole	21	A	1143.0495706741503	streaming
377.7789	0.0987577701453119	12	systole	22	A	1143.0495706741503	streaming
377.9719	0.0987577701453119	12	systole	23	B	500.0	streaming
378.1639	0.0987577701453119	12	systole	24	A	1143.0495706741503	streaming
378.5636	0.0987577701453119	12	systole	25	A	1143.0495706741503	streaming
378.7578	0.0987577701453119	12	systole	26	B	500.0	streaming
378.951	0.0987577701453119	12	systole	27	A	1143.0495706741503	streaming
379.3436	0.0987577701453119	12	systole	28	A	1143.0495706741503	streaming
379.5378	0.0987577701453119	12	systole	29	B	500.0	streaming
379.7311	0.0987577701453119	12	systole	30	A	1143.0495706741503	streaming
380.1181	0.0987577701453119	12	systole	31	A	1143.0495706741503	streaming
380.3136	0.0987577701453119	12	systole	32	B	500.0	streaming
380.5081	0.0987577701453119	12	systole	33	A	1143.0495706741503	streaming
380.8882	0.0987577701453119	12	systole	34	A	1143.0495706741503	streaming
381.0836	0.0987577701453119	12	systole	35	B	500.0	streaming
381.2781	0.0987577701453119	12	systole	36	A	1143.0495706741503	streaming
381.6581	0.0987577701453119	12	systole	37	A	1143.0495706741503	streaming
381.8536	0.0987577701453119	12	systole	38	B	500.0	streaming
382.0481	0.0987577701453119	12	systole	39	A	1143.0495706741503	streaming
385.4344	0.0962463084142655	13	systole	1	A	808.8220262698977	coherent
385.626	0.0962463084142655	13	systole	2	B	500.0	coherent
385.8169	0.0962463084142655	13	systole	3	A	808.8220262698977	coherent
386.1753	0.0962463084142655	13	systole	4	A	808.8220262698977	coherent
386.3644	0.0962463084142655	13	systole	5	B	500.0	coherent
386.5528	0.0962463084142655	13	systole	6	A	808.8220262698977	coherent
386.9253	0.0962463084142655	13	systole	7	A	808.8220262698977	coherent
387.1144	0.0962463084142655	13	systole	8	B	500.0	coherent
387.3028	0.0962463084142655	13	systole	9	A	808.8220262698977	coherent
387.6208	0.0962463084142655	13	systole	10	A	808.8220262698977	coherent
387.8086	0.0962463084142655	13	systole	11	B	500.0	coherent
387.9958	0.0962463084142655	13	systole	12	A	808.8220262698977	coherent
388.4407	0.0962463084142655	13	systole	13	A	808.8220262698977	coherent
388.6286	0.0962463084142655	13	systole	14	B	500.0	coherent
388.8157	0.0962463084142655	13	systole	15	A	808.8220262698977	coherent
389.2207	0.0962463084142655	13	systole	16	A	808.8220262698977	coherent
389.4086	0.0962463084142655	13	systole	17	B	500.0	coherent
389.5957	0.0962463084142655	13	systole	18	A	808.8220262698977	coherent
390.0507	0.0962463084142655	13	systole	19	A	808.8220262698977	coherent
390.2386	0.0962463084142655	13	systole	20	B	500.0	coherent
390.4257	0.0962463084142655	13	systole	21	A	808.8220262698977	coherent
390.8507	0.0962463084142655	13	systole	22	A	808.8220262698977	coherent
391.0386	0.0962463084142655	13	systole	23	B	500.0	coherent
391.2257	0.0962463084142655	13	systole	24	A	808.8220262698977	coherent
391.6507	0.0962463084142655	13	systole	25	A	808.8220262698977	coherent
391.8386	0.0962463084142655	13	systole	26	B	500.0	coherent
392.0257	0.0962463084142655	13	systole	27	A	808.8220262698977	coherent
392.4507	0.0962463084142655	13	systole	28	A	808.8220262698977	coherent
392.6386	0.0962463084142655	13	systole	29	B	500.0	coherent
392.8257	0.0962463084142655	13	systole	30	A	808.8220262698977	coherent
393.2723	0.0962463084142655	13	systole	31	A	808.8220262698977	coherent
393.4688	0.0962463084142655	13	systole	32	B	500.0	coherent
393.6647	0.0962463084142655	13	systole	33	A	808.8220262698977	coherent
394.0552	0.0962463084142655	13	systole	34	A	808.8220262698977	coherent
394.252	0.0962463084142655	13	systole	35	B	500.0	coherent
394.4481	0.0962463084142655	13	systole	36	A	808.8220262698977	coherent
401.1998	0.0968996740994043	14	diastole	1	A	2561.886903957566	coherent
401.3938	0.0968996740994043	14	diastole	2	B	500.0	coherent
401.5869	0.0968996740994043	14	diastole	3	A	2561.886903957566	coherent
401.9797	0.0968996740994043	14	diastole	4	A	2561.886903957566	coherent
402.1737	0.0968996740994043	14	diastole	5	B	500.0	coherent
402.3668	0.0968996740994043	14	diastole	6	A	2561.886903957566	coherent
402.8046	0.0968996740994043	14	diastole	7	A	2561.886903957566	coherent
403.0013	0.0968996740994043	14	diastole	8	B	500.0	coherent
403.1971	0.0968996740994043	14	diastole	9	A	2561.886903957566	coherent
403.6289	0.0968996740994043	14	diastole	10	A	2561.886903957566	coherent
403.8281	0.0968996740994043	14	diastole	11	B	500.0	coherent
404.0264	0.0968996740994043	14	diastole	12	A	2561.886903957566	coherent
404.4388	0.0968996740994043	14	diastole	13	A	2561.886903957566	coherent
404.638	0.0968996740994043	14	diastole	14	B	500.0	coherent
404.8363	0.0968996740994043	14	diastole	15	A	2561.886903957566	coherent
405.2728	0.0968996740994043	14	diastole	16	A	2561.886903957566	coherent
405.4744	0.0968996740994043	14	diastole	17	B	500.0	coherent
405.6752	0.0968996740994043	14	diastole	18	A	2561.886903957566	coherent
406.0458	0.0968996740994043	14	diastole	19	A	2561.886903957566	coherent
406.2462	0.0968996740994043	14	diastole	20	B	500.0	coherent
406.4457	0.0968996740994043	14	diastole	21	A	2561.886903957566	coherent
406.8258	0.0968996740994043	14	diastole	22	A	2561.886903957566	coherent
407.0262	0.0968996740994043	14	diastole	23	B	500.0	coherent
407.2257	0.0968996740994043	14	diastole	24	A	2561.886903957566	coherent
407.5757	0.0968996740994043	14	diastole	25	A	2561.886903957566	coherent
407.7762	0.0968996740994043	14	diastole	26	B	500.0	coherent
407.9757	0.0968996740994043	14	diastole	27	A	2561.886903957566	coherent
408.2846	0.0968996740994043	14	diastole	28	A	2561.886903957566	coherent
408.4813	0.0968996740994043	14	diastole	29	B	500.0	coherent
408.6771	0.0968996740994043	14	diastole	30	A	2561.886903957566	coherent
409.0074	0.0968996740994043	14	diastole	31	A	2561.886903957566	coherent
409.2028	0.0968996740994043	14	diastole	32	B	500.0	coherent
409.3974	0.0968996740994043	14	diastole	33	A	2561.886903957566	coherent
409.7132	0.0968996740994043	14	diastole	34	A	2561.886903957566	coherent
409.9062	0.0968996740994043	14	diastole	35	B	500.0	coherent
410.0982	0.0968996740994043	14	diastole	36	A	2561.886903957566	coherent
416.8692	0.0956238812650553	15	systole	1	A	808.8220262698977	streaming
417.062	0.0956238812650553	15	systole	2	B	500.0	streaming
417.2542	0.0956238812650553	15	systole	3	A	808.8220262698977	streaming
417.6492	0.0956238812650553	15	systole	4	A	808.8220262698977	streaming
417.8421	0.0956238812650553	15	systole	5	B	500.0	streaming
418.0342	0.0956238812650553	15	systole	6	A	808.8220262698977	streaming
418.4292	0.0956238812650553	15	systole	7	A	808.8220262698977	streaming
418.6221	0.0956238812650553	15	systole	8	B	500.0	streaming
418.8143	0.0956238812650553	15	systole	9	A	808.8220262698977	streaming
419.1488	0.0956238812650553	15	systole	10	A	808.8220262698977	streaming
419.3417	0.0956238812650553	15	systole	11	B	500.0	streaming
419.5339	0.0956238812650553	15	systole	12	A	808.8220262698977	streaming
419.8289	0.0956238812650553	15	systole	13	A	808.8220262698977	streaming
420.0217	0.0956238812650553	15	systole	14	B	500.0	streaming
420.2139	0.0956238812650553	15	systole	15	A	808.8220262698977	streaming
420.4742	0.0956238812650553	15	systole	16	A	808.8220262698977	streaming
420.6657	0.0956238812650553	15	systole	17	B	500.0	streaming
420.8566	0.0956238812650553	15	systole	18	A	808.8220262698977	streaming
421.1357	0.0956238812650553	15	systole	19	A	808.8220262698977	streaming
421.3222	0.0956238812650553	15	systole	20	B	500.0	streaming
421.5081	0.0956238812650553	15	systole	21	A	808.8220262698977	streaming
421.8156	0.0956238812650553	15	systole	22	A	808.8220262698977	streaming
422.0022	0.0956238812650553	15	systole	23	B	500.0	streaming
422.1881	0.0956238812650553	15	systole	24	A	808.8220262698977	streaming
422.8265	0.0956238812650553	15	systole	25	A	808.8220262698977	streaming
423.0105	0.0956238812650553	15	systole	26	B	500.0	streaming
423.1939	0.0956238812650553	15	systole	27	A	808.8220262698977	streaming
423.7065	0.0956238812650553	15	systole	28	A	808.8220262698977	streaming
423.8905	0.0956238812650553	15	systole	29	B	500.0	streaming
424.0739	0.0956238812650553	15	systole	30	A	808.8220262698977	streaming
424.5865	0.0956238812650553	15	systole	31	A	808.8220262698977	streaming
424.7706	0.0956238812650553	15	systole	32	B	500.0	streaming
424.9539	0.0956238812650553	15	systole	33	A	808.8220262698977	streaming
425.4665	0.0956238812650553	15	systole	34	A	808.8220262698977	streaming
425.6506	0.0956238812650553	15	systole	35	B	500.0	streaming
425.8339	0.0956238812650553	15	systole	36	A	808.8220262698977	streaming
426.2864	0.0956238812650553	15	systole	37	A	808.8220262698977	streaming
426.479	0.0956238812650553	15	systole	38	B	500.0	streaming
426.671	0.0956238812650553	15	systole	39	A	808.8220262698977	streaming
432.4617	0.0931311249150894	16	diastole	1	A	3378.544393000609	coherent
432.647	0.0931311249150894	16	diastole	2	B	500.0	coherent
432.8317	0.0931311249150894	16	diastole	3	A	3378.544393000609	coherent
433.1817	0.0931311249150894	16	diastole	4	A	3378.544393000609	coherent
433.367	0.0931311249150894	16	diastole	5	B	500.0	coherent
433.5517	0.0931311249150894	16	diastole	6	A	3378.544393000609	coherent
433.8749	0.0931311249150894	16	diastole	7	A	3378.544393000609	coherent
434.0589	0.0931311249150894	16	diastole	8	B	500.0	coherent
434.2424	0.0931311249150894	16	diastole	9	A	3378.544393000609	coherent
434.5752	0.0931311249150894	16	diastole	10	A	3378.544393000609	coherent
434.7593	0.0931311249150894	16	diastole	11	B	500.0	coherent
434.9428	0.0931311249150894	16	diastole	12	A	3378.544393000609	coherent
435.2757	0.0931311249150894	16	diastole	13	A	3378.544393000609	coherent
435.4598	0.0931311249150894	16	diastole	14	B	500.0	coherent
435.6432	0.0931311249150894	16	diastole	15	A	3378.544393000609	coherent
435.9405	0.0931311249150894	16	diastole	16	A	3378.544393000609	coherent
436.1184	0.0931311249150894	16	diastole	17	B	500.0	coherent
436.2956	0.0931311249150894	16	diastole	18	A	3378.544393000609	coherent
436.6405	0.0931311249150894	16	diastole	19	A	3378.544393000609	coherent
436.8184	0.0931311249150894	16	diastole	20	B	500.0	coherent
436.9956	0.0931311249150894	16	diastole	21	A	3378.544393000609	coherent
437.3604	0.0931311249150894	16	diastole	22	A	3378.544393000609	coherent
437.5383	0.0931311249150894	16	diastole	23	B	500.0	coherent
437.7155	0.0931311249150894	16	diastole	24	A	3378.544393000609	coherent
438.1103	0.0931311249150894	16	diastole	25	A	3378.544393000609	coherent
438.2882	0.0931311249150894	16	diastole	26	B	500.0	coherent
438.4654	0.0931311249150894	16	diastole	27	A	3378.544393000609	coherent
438.9443	0.0931311249150894	16	diastole	28	A	3378.544393000609	coherent
439.1246	0.0931311249150894	16	diastole	29	B	500.0	coherent
439.3043	0.0931311249150894	16	diastole	30	A	3378.544393000609	coherent
439.8343	0.0931311249150894	16	diastole	31	A	3378.544393000609	coherent
440.0147	0.0931311249150894	16	diastole	32	B	500.0	coherent
440.1943	0.0931311249150894	16	diastole	33	A	3378.544393000609	coherent
440.7244	0.0931311249150894	16	diastole	34	A	3378.544393000609	coherent
440.9047	0.0931311249150894	16	diastole	35	B	500.0	coherent
441.0844	0.0931311249150894	16	diastole	36	A	3378.544393000609	coherent
445.4611	0.0974965500645339	17	diastole	1	A	772.3687435845811	coherent
445.6552	0.0974965500645339	17	diastole	2	B	500.0	coherent
445.8486	0.0974965500645339	17	diastole	3	A	772.3687435845811	coherent
446.1611	0.0974965500645339	17	diastole	4	A	772.3687435845811	coherent
446.3552	0.0974965500645339	17	diastole	5	B	500.0	coherent
446.5486	0.0974965500645339	17	diastole	6	A	772.3687435845811	coherent
446.814	0.0974965500645339	17	diastole	7	A	772.3687435845811	coherent
447.0069	0.0974965500645339	17	diastole	8	B	500.0	coherent
447.199	0.0974965500645339	17	diastole	9	A	772.3687435845811	coherent
447.4741	0.0974965500645339	17	diastole	10	A	772.3687435845811	coherent
447.6669	0.0974965500645339	17	diastole	11	B	500.0	coherent
447.8591	0.0974965500645339	17	diastole	12	A	772.3687435845811	coherent
448.0957	0.0974965500645339	17	diastole	13	A	772.3687435845811	coherent
448.2836	0.0974965500645339	17	diastole	14	B	500.0	coherent
448.4708	0.0974965500645339	17	diastole	15	A	772.3687435845811	coherent
448.7062	0.0974965500645339	17	diastole	16	A	772.3687435845811	coherent
448.8852	0.0974965500645339	17	diastole	17	B	500.0	coherent
449.0637	0.0974965500645339	17	diastole	18	A	772.3687435845811	coherent
449.3662	0.0974965500645339	17	diastole	19	A	772.3687435845811	coherent
449.5453	0.0974965500645339	17	diastole	20	B	500.0	coherent
449.7237	0.0974965500645339	17	diastole	21	A	772.3687435845811	coherent
450.1562	0.0974965500645339	17	diastole	22	A	772.3687435845811	coherent
450.3303	0.0974965500645339	17	diastole	23	B	500.0	coherent
450.5037	0.0974965500645339	17	diastole	24	A	772.3687435845811	coherent
450.9158	0.0974965500645339	17	diastole	25	A	772.3687435845811	coherent
451.0899	0.0974965500645339	17	diastole	26	B	500.0	coherent
451.2633	0.0974965500645339	17	diastole	27	A	772.3687435845811	coherent
451.6754	0.0974965500645339	17	diastole	28	A	772.3687435845811	coherent
451.8495	0.0974965500645339	17	diastole	29	B	500.0	coherent
452.0229	0.0974965500645339	17	diastole	30	A	772.3687435845811	coherent
452.435	0.0974965500645339	17	diastole	31	A	772.3687435845811	coherent
452.6091	0.0974965500645339	17	diastole	32	B	500.0	coherent
452.7825	0.0974965500645339	17	diastole	33	A	772.3687435845811	coherent
453.2652	0.0974965500645339	17	diastole	34	A	772.3687435845811	coherent
453.4392	0.0974965500645339	17	diastole	35	B	500.0	coherent
453.6127	0.0974965500645339	17	diastole	36	A	772.3687435845811	coherent
454.1271	0.0974965500645339	17	diastole	37	A	772.3687435845811	coherent
454.3086	0.0974965500645339	17	diastole	38	B	500.0	coherent
454.4895	0.0974965500645339	17	diastole	39	A	772.3687435845811	coherent
462.0097	0.0949898050166666	18	diastole	1	A	737.5583956554606	streaming
462.2	0.0949898050166666	18	diastole	2	B	500.0	streaming
462.3897	0.0949898050166666	18	diastole	3	A	737.5583956554606	streaming
462.7697	0.0949898050166666	18	diastole	4	A	737.5583956554606	streaming
462.96	0.0949898050166666	18	diastole	5	B	500.0	streaming
463.1497	0.0949898050166666	18	diastole	6	A	737.5583956554606	streaming
463.6298	0.0949898050166666	18	diastole	7	A	737.5583956554606	streaming
463.8201	0.0949898050166666	18	diastole	8	B	500.0	streaming
464.0098	0.0949898050166666	18	diastole	9	A	737.5583956554606	streaming
464.4898	0.0949898050166666	18	diastole	10	A	737.5583956554606	streaming
464.68	0.0949898050166666	18	diastole	11	B	500.0	streaming
464.8698	0.0949898050166666	18	diastole	12	A	737.5583956554606	streaming
465.3497	0.0949898050166666	18	diastole	13	A	737.5583956554606	streaming
465.54	0.0949898050166666	18	diastole	14	B	500.0	streaming
465.7297	0.0949898050166666	18	diastole	15	A	737.5583956554606	streaming
466.2569	0.0949898050166666	18	diastole	16	A	737.5583956554606	streaming
466.452	0.0949898050166666	18	diastole	17	B	500.0	streaming
466.6465	0.0949898050166666	18	diastole	18	A	737.5583956554606	streaming
467.1861	0.0949898050166666	18	diastole	19	A	737.5583956554606	streaming
467.39	0.0949898050166666	18	diastole	20	B	500.0	streaming
467.5932	0.0949898050166666	18	diastole	21	A	737.5583956554606	streaming
468.1173	0.0949898050166666	18	diastole	22	A	737.5583956554606	streaming
468.3301	0.0949898050166666	18	diastole	23	B	500.0	streaming
468.5423	0.0949898050166666	18	diastole	24	A	737.5583956554606	streaming
468.9977	0.0949898050166666	18	diastole	25	A	737.5583956554606	streaming
469.2105	0.0949898050166666	18	diastole	26	B	500.0	streaming
469.4227	0.0949898050166666	18	diastole	27	A	737.5583956554606	streaming
469.8781	0.0949898050166666	18	diastole	28	A	737.5583956554606	streaming
470.0909	0.0949898050166666	18	diastole	29	B	500.0	streaming
470.3031	0.0949898050166666	18	diastole	30	A	737.5583956554606	streaming
470.7585	0.0949898050166666	18	diastole	31	A	737.5583956554606	streaming
470.9713	0.0949898050166666	18	diastole	32	B	500.0	streaming
471.1835	0.0949898050166666	18	diastole	33	A	737.5583956554606	streaming
471.6202	0.0949898050166666	18	diastole	34	A	737.5583956554606	streaming
471.833	0.0949898050166666	18	diastole	35	B	500.0	streaming
472.0452	0.0949898050166666	18	diastole	36	A	737.5583956554606	streaming
477.088	0.0987530708080157	19	systole	1	A	4886.027023828005	coherent
477.2833	0.0987530708080157	19	systole	2	B	500.0	coherent
477.478	0.0987530708080157	19	systole	3	A	4886.027023828005	coherent
477.8384	0.0987530708080157	19	systole	4	A	4886.027023828005	coherent
478.0337	0.0987530708080157	19	systole	5	B	500.0	coherent
478.2283	0.0987530708080157	19	systole	6	A	4886.027023828005	coherent
478.535	0.0987530708080157	19	systole	7	A	4886.027023828005	coherent
478.7266	0.0987530708080157	19	systole	8	B	500.0	coherent
478.9176	0.0987530708080157	19	systole	9	A	4886.027023828005	coherent
479.245	0.0987530708080157	19	systole	10	A	4886.027023828005	coherent
479.4366	0.0987530708080157	19	systole	11	B	500.0	coherent
479.6276	0.0987530708080157	19	systole	12	A	4886.027023828005	coherent
479.9549	0.0987530708080157	19	systole	13	A	4886.027023828005	coherent
480.1466	0.0987530708080157	19	systole	14	B	500.0	coherent
480.3375	0.0987530708080157	19	systole	15	A	4886.027023828005	coherent
480.6358	0.0987530708080157	19	systole	16	A	4886.027023828005	coherent
480.825	0.0987530708080157	19	systole	17	B	500.0	coherent
481.0134	0.0987530708080157	19	systole	18	A	4886.027023828005	coherent
481.3258	0.0987530708080157	19	systole	19	A	4886.027023828005	coherent
481.515	0.0987530708080157	19	systole	20	B	500.0	coherent
481.7034	0.0987530708080157	19	systole	21	A	4886.027023828005	coherent
481.9834	0.0987530708080157	19	systole	22	A	4886.027023828005	coherent
482.1637	0.0987530708080157	19	systole	23	B	500.0	coherent
482.3433	0.0987530708080157	19	systole	24	A	4886.027023828005	coherent
482.9134	0.0987530708080157	19	systole	25	A	4886.027023828005	coherent
483.0937	0.0987530708080157	19	systole	26	B	500.0	coherent
483.2733	0.0987530708080157	19	systole	27	A	4886.027023828005	coherent
483.7319	0.0987530708080157	19	systole	28	A	4886.027023828005	coherent
483.9172	0.0987530708080157	19	systole	29	B	500.0	coherent
484.1019	0.0987530708080157	19	systole	30	A	4886.027023828005	coherent
484.5623	0.0987530708080157	19	systole	31	A	4886.027023828005	coherent
484.7476	0.0987530708080157	19	systole	32	B	500.0	coherent
484.9323	0.0987530708080157	19	systole	33	A	4886.027023828005	coherent
485.3926	0.0987530708080157	19	systole	34	A	4886.027023828005	coherent
485.578	0.0987530708080157	19	systole	35	B	500.0	coherent
485.7626	0.0987530708080157	19	systole	36	A	4886.027023828005	coherent
486.2353	0.0987530708080157	19	systole	37	A	4886.027023828005	coherent
486.4269	0.0987530708080157	19	systole	38	B	500.0	coherent
486.6178	0.0987530708080157	19	systole	39	A	4886.027023828005	coherent
487.0968	0.0987530708080157	19	systole	40	A	4886.027023828005	coherent
487.2996	0.0987530708080157	19	systole	41	B	500.0	coherent
487.5017	0.0987530708080157	19	systole	42	A	4886.027023828005	coherent
493.1012	0.096252734074369	20	systole	1	A	790.3852555644094	coherent
493.2866	0.096252734074369	20	systole	2	B	500.0	coherent
493.4712	0.096252734074369	20	systole	3	A	790.3852555644094	coherent
493.8211	0.096252734074369	20	systole	4	A	790.3852555644094	coherent
494.0065	0.096252734074369	20	systole	5	B	500.0	coherent
494.1911	0.096252734074369	20	systole	6	A	790.3852555644094	coherent
494.6412	0.096252734074369	20	systole	7	A	790.3852555644094	coherent
494.8266	0.096252734074369	20	systole	8	B	500.0	coherent
495.0112	0.096252734074369	20	systole	9	A	790.3852555644094	coherent
495.4516	0.096252734074369	20	systole	10	A	790.3852555644094	coherent
495.6369	0.096252734074369	20	systole	11	B	500.0	coherent
495.8216	0.096252734074369	20	systole	12	A	790.3852555644094	coherent
496.2619	0.096252734074369	20	systole	13	A	790.3852555644094	coherent
496.4472	0.096252734074369	20	systole	14	B	500.0	coherent
496.6319	0.096252734074369	20	systole	15	A	790.3852555644094	coherent
497.0619	0.096252734074369	20	systole	16	A	790.3852555644094	coherent
497.2472	0.096252734074369	20	systole	17	B	500.0	coherent
497.4319	0.096252734074369	20	systole	18	A	790.3852555644094	coherent
497.8618	0.096252734074369	20	systole	19	A	790.3852555644094	coherent
498.0472	0.096252734074369	20	systole	20	B	500.0	coherent
498.2318	0.096252734074369	20	systole	21	A	790.3852555644094	coherent
498.7101	0.096252734074369	20	systole	22	A	790.3852555644094	coherent
498.9004	0.096252734074369	20	systole	23	B	500.0	coherent
499.0901	0.096252734074369	20	systole	24	A	790.3852555644094	coherent
499.5463	0.096252734074369	20	systole	25	A	790.3852555644094	coherent
499.7466	0.096252734074369	20	systole	26	B	500.0	coherent
499.9462	0.096252734074369	20	systole	27	A	790.3852555644094	coherent
500.2962	0.096252734074369	20	systole	28	A	790.3852555644094	coherent
500.4965	0.096252734074369	20	systole	29	B	500.0	coherent
500.6961	0.096252734074369	20	systole	30	A	790.3852555644094	coherent
501.0367	0.096252734074369	20	systole	31	A	790.3852555644094	coherent
501.237	0.096252734074369	20	systole	32	B	500.0	coherent
501.4366	0.096252734074369	20	systole	33	A	790.3852555644094	coherent
501.7765	0.096252734074369	20	systole	34	A	790.3852555644094	coherent
501.9767	0.096252734074369	20	systole	35	B	500.0	coherent
502.1764	0.096252734074369	20	systole	36	A	790.3852555644094	coherent
508.2196	0.0950041561736725	21	diastole	1	A	3704.9827347719142	coherent
508.41	0.0950041561736725	21	diastole	2	B	500.0	coherent
508.5997	0.0950041561736725	21	diastole	3	A	3704.9827347719142	coherent
508.9196	0.0950041561736725	21	diastole	4	A	3704.9827347719142	coherent
509.11	0.0950041561736725	21	diastole	5	B	500.0	coherent
509.2996	0.0950041561736725	21	diastole	6	A	3704.9827347719142	coherent
509.6196	0.0950041561736725	21	diastole	7	A	3704.9827347719142	coherent
509.81	0.0950041561736725	21	diastole	8	B	500.0	coherent
509.9996	0.0950041561736725	21	diastole	9	A	3704.9827347719142	coherent
510.3196	0.0950041561736725	21	diastole	10	A	3704.9827347719142	coherent
510.5099	0.0950041561736725	21	diastole	11	B	500.0	coherent
510.6995	0.0950041561736725	21	diastole	12	A	3704.9827347719142	coherent
511.0196	0.0950041561736725	21	diastole	13	A	3704.9827347719142	coherent
511.21	0.0950041561736725	21	diastole	14	B	500.0	coherent
511.3995	0.0950041561736725	21	diastole	15	A	3704.9827347719142	coherent
511.7255	0.0950041561736725	21	diastole	16	A	3704.9827347719142	coherent
511.9134	0.0950041561736725	21	diastole	17	B	500.0	coherent
512.1005	0.0950041561736725	21	diastole	18	A	3704.9827347719142	coherent
512.4072	0.0950041561736725	21	diastole	19	A	3704.9827347719142	coherent
512.5901	0.0950041561736725	21	diastole	20	B	500.0	coherent
512.7722	0.0950041561736725	21	diastole	21	A	3704.9827347719142	coherent
513.096	0.0950041561736725	21	diastole	22	A	3704.9827347719142	coherent
513.2751	0.0950041561736725	21	diastole	23	B	500.0	coherent
513.4535	0.0950041561736725	21	diastole	24	A	3704.9827347719142	coherent
513.846	0.0950041561736725	21	diastole	25	A	3704.9827347719142	coherent
514.0251	0.0950041561736725	21	diastole	26	B	500.0	coherent
514.2034	0.0950041561736725	21	diastole	27	A	3704.9827347719142	coherent
514.596	0.0950041561736725	21	diastole	28	A	3704.9827347719142	coherent
514.7751	0.0950041561736725	21	diastole	29	B	500.0	coherent
514.9535	0.0950041561736725	21	diastole	30	A	3704.9827347719142	coherent
515.356	0.0950041561736725	21	diastole	31	A	3704.9827347719142	coherent
515.5351	0.0950041561736725	21	diastole	32	B	500.0	coherent
515.7135	0.0950041561736725	21	diastole	33	A	3704.9827347719142	coherent
516.1161	0.0950041561736725	21	diastole	34	A	3704.9827347719142	coherent
516.2952	0.0950041561736725	21	diastole	35	B	500.0	coherent
516.4735	0.0950041561736725	21	diastole	36	A	3704.9827347719142	coherent
516.8331	0.0950041561736725	21	diastole	37	A	3704.9827347719142	coherent
517.0135	0.0950041561736725	21	diastole	38	B	500.0	coherent
517.1931	0.0950041561736725	21	diastole	39	A	3704.9827347719142	coherent
520.7434	0.0900450460030697	22	systole	1	A	754.7629107028698	streaming
520.9237	0.0900450460030697	22	systole	2	B	500.0	streaming
521.1035	0.0900450460030697	22	systole	3	A	754.7629107028698	streaming
521.4434	0.0900450460030697	22	systole	4	A	754.7629107028698	streaming
521.6238	0.0900450460030697	22	systole	5	B	500.0	streaming
521.8035	0.0900450460030697	22	systole	6	A	754.7629107028698	streaming
522.1285	0.0900450460030697	22	systole	7	A	754.7629107028698	streaming
522.3075	0.0900450460030697	22	systole	8	B	500.0	streaming
522.4859	0.0900450460030697	22	systole	9	A	754.7629107028698	streaming
522.744	0.0900450460030697	22	systole	10	A	754.7629107028698	streaming
522.9218	0.0900450460030697	22	systole	11	B	500.0	streaming
523.099	0.0900450460030697	22	systole	12	A	754.7629107028698	streaming
523.4541	0.0900450460030697	22	systole	13	A	754.7629107028698	streaming
523.6319	0.0900450460030697	22	systole	14	B	500.0	streaming
523.8091	0.0900450460030697	22	systole	15	A	754.7629107028698	streaming
524.1641	0.0900450460030697	22	systole	16	A	754.7629107028698	streaming
524.3419	0.0900450460030697	22	systole	17	B	500.0	streaming
524.5191	0.0900450460030697	22	systole	18	A	754.7629107028698	streaming
524.8449	0.0900450460030697	22	systole	19	A	754.7629107028698	streaming
525.0202	0.0900450460030697	22	systole	20	B	500.0	streaming
525.1949	0.0900450460030697	22	systole	21	A	754.7629107028698	streaming
525.5349	0.0900450460030697	22	systole	22	A	754.7629107028698	streaming
525.7102	0.0900450460030697	22	systole	23	B	500.0	streaming
525.8849	0.0900450460030697	22	systole	24	A	754.7629107028698	streaming
526.2249	0.0900450460030697	22	systole	25	A	754.7629107028698	streaming
526.4002	0.0900450460030697	22	systole	26	B	500.0	streaming
526.5749	0.0900450460030697	22	systole	27	A	754.7629107028698	streaming
526.8673	0.0900450460030697	22	systole	28	A	754.7629107028698	streaming
527.0401	0.0900450460030697	22	systole	29	B	500.0	streaming
527.2123	0.0900450460030697	22	systole	30	A	754.7629107028698	streaming
527.5189	0.0900450460030697	22	systole	31	A	754.7629107028698	streaming
527.6917	0.0900450460030697	22	systole	32	B	500.0	streaming
527.8639	0.0900450460030697	22	systole	33	A	754.7629107028698	streaming
528.2289	0.0900450460030697	22	systole	34	A	754.7629107028698	streaming
528.4017	0.0900450460030697	22	systole	35	B	500.0	streaming
528.5739	0.0900450460030697	22	systole	36	A	754.7629107028698	streaming
528.902	0.0900450460030697	22	systole	37	A	754.7629107028698	streaming
529.0733	0.0900450460030697	22	systole	38	B	500.0	streaming
529.2441	0.0900450460030697	22	systole	39	A	754.7629107028698	streaming
529.612	0.0900450460030697	22	systole	40	A	754.7629107028698	streaming
529.7833	0.0900450460030697	22	systole	41	B	500.0	streaming
529.9541	0.0900450460030697	22	systole	42	A	754.7629107028698	streaming
533.383	0.0899917423957958	23	systole	1	A	4999.999999999997	streaming
533.5634	0.0899917423957958	23	systole	2	B	500.0	streaming
533.743	0.0899917423957958	23	systole	3	A	4999.999999999997	streaming
534.083	0.0899917423957958	23	systole	4	A	4999.999999999997	streaming
534.2634	0.0899917423957958	23	systole	5	B	500.0	streaming
534.443	0.0899917423957958	23	systole	6	A	4999.999999999997	streaming
534.783	0.0899917423957958	23	systole	7	A	4999.999999999997	streaming
534.9634	0.0899917423957958	23	systole	8	B	500.0	streaming
535.143	0.0899917423957958	23	systole	9	A	4999.999999999997	streaming
535.4485	0.0899917423957958	23	systole	10	A	4999.999999999997	streaming
535.6276	0.0899917423957958	23	systole	11	B	500.0	streaming
535.806	0.0899917423957958	23	systole	12	A	4999.999999999997	streaming
536.1285	0.0899917423957958	23	systole	13	A	4999.999999999997	streaming
536.3076	0.0899917423957958	23	systole	14	B	500.0	streaming
536.486	0.0899917423957958	23	systole	15	A	4999.999999999997	streaming
536.8048	0.0899917423957958	23	systole	16	A	4999.999999999997	streaming
536.9802	0.0899917423957958	23	systole	17	B	500.0	streaming
537.1548	0.0899917423957958	23	systole	18	A	4999.999999999997	streaming
537.4948	0.0899917423957958	23	systole	19	A	4999.999999999997	streaming
537.6701	0.0899917423957958	23	systole	20	B	500.0	streaming
537.8448	0.0899917423957958	23	systole	21	A	4999.999999999997	streaming
538.2647	0.0899917423957958	23	systole	22	A	4999.999999999997	streaming
538.4401	0.0899917423957958	23	systole	23	B	500.0	streaming
538.6148	0.0899917423957958	23	systole	24	A	4999.999999999997	streaming
539.0347	0.0899917423957958	23	systole	25	A	4999.999999999997	streaming
539.2101	0.0899917423957958	23	systole	26	B	500.0	streaming
539.3847	0.0899917423957958	23	systole	27	A	4999.999999999997	streaming
539.7948	0.0899917423957958	23	systole	28	A	4999.999999999997	streaming
539.9702	0.0899917423957958	23	systole	29	B	500.0	streaming
540.1448	0.0899917423957958	23	systole	30	A	4999.999999999997	streaming
540.5347	0.0899917423957958	23	systole	31	A	4999.999999999997	streaming
540.7101	0.0899917423957958	23	systole	32	B	500.0	streaming
540.8847	0.0899917423957958	23	systole	33	A	4999.999999999997	streaming
541.2746	0.0899917423957958	23	systole	34	A	4999.999999999997	streaming
541.4499	0.0899917423957958	23	systole	35	B	500.0	streaming
541.6246	0.0899917423957958	23	systole	36	A	4999.999999999997	streaming
542.0329	0.0899917423957958	23	systole	37	A	4999.999999999997	streaming
542.2132	0.0899917423957958	23	systole	38	B	500.0	streaming
542.3928	0.0899917423957958	23	systole	39	A	4999.999999999997	streaming
545.1343	0.092491828254424	24	diastole	1	A	886.9712202217811	streaming
545.3184	0.092491828254424	24	diastole	2	B	500.0	streaming
545.5018	0.092491828254424	24	diastole	3	A	886.9712202217811	streaming
545.7803	0.092491828254424	24	diastole	4	A	886.9712202217811	streaming
545.9619	0.092491828254424	24	diastole	5	B	500.0	streaming
546.1428	0.092491828254424	24	diastole	6	A	886.9712202217811	streaming
546.4403	0.092491828254424	24	diastole	7	A	886.9712202217811	streaming
546.622	0.092491828254424	24	diastole	8	B	500.0	streaming
546.8028	0.092491828254424	24	diastole	9	A	886.9712202217811	streaming
547.1019	0.092491828254424	24	diastole	10	A	886.9712202217811	streaming
547.2785	0.092491828254424	24	diastole	11	B	500.0	streaming
547.4544	0.092491828254424	24	diastole	12	A	886.9712202217811	streaming
547.7835	0.092491828254424	24	diastole	13	A	886.9712202217811	streaming
547.9552	0.092491828254424	24	diastole	14	B	500.0	streaming
548.126	0.092491828254424	24	diastole	15	A	886.9712202217811	streaming
548.4935	0.092491828254424	24	diastole	16	A	886.9712202217811	streaming
548.6652	0.092491828254424	24	diastole	17	B	500.0	streaming
548.836	0.092491828254424	24	diastole	18	A	886.9712202217811	streaming
549.1167	0.092491828254424	24	diastole	19	A	886.9712202217811	streaming
549.2871	0.092491828254424	24	diastole	20	B	500.0	streaming
549.4566	0.092491828254424	24	diastole	21	A	886.9712202217811	streaming
550.0662	0.092491828254424	24	diastole	22	A	886.9712202217811	streaming
550.2366	0.092491828254424	24	diastole	23	B	500.0	streaming
550.4061	0.092491828254424	24	diastole	24	A	886.9712202217811	streaming
551.0157	0.092491828254424	24	diastole	25	A	886.9712202217811	streaming
551.1861	0.092491828254424	24	diastole	26	B	500.0	streaming
551.3557	0.092491828254424	24	diastole	27	A	886.9712202217811	streaming
551.803	0.092491828254424	24	diastole	28	A	886.9712202217811	streaming
551.9746	0.092491828254424	24	diastole	29	B	500.0	streaming
552.1455	0.092491828254424	24	diastole	30	A	886.9712202217811	streaming
552.5829	0.092491828254424	24	diastole	31	A	886.9712202217811	streaming
552.7545	0.092491828254424	24	diastole	32	B	500.0	streaming
552.9254	0.092491828254424	24	diastole	33	A	886.9712202217811	streaming
553.3541	0.092491828254424	24	diastole	34	A	886.9712202217811	streaming
553.5295	0.092491828254424	24	diastole	35	B	500.0	streaming
553.7041	0.092491828254424	24	diastole	36	A	886.9712202217811	streaming
554.1041	0.092491828254424	24	diastole	37	A	886.9712202217811	streaming
554.2795	0.092491828254424	24	diastole	38	B	500.0	streaming
554.4541	0.092491828254424	24	diastole	39	A	886.9712202217811	streaming
557.2529	0.0925015124958008	25	diastole	1	A	2874.952356810848	coherent
557.4334	0.0925015124958008	25	diastole	2	B	500.0	coherent
557.6129	0.0925015124958008	25	diastole	3	A	2874.952356810848	coherent
557.9529	0.0925015124958008	25	diastole	4	A	2874.952356810848	coherent
558.1334	0.0925015124958008	25	diastole	5	B	500.0	coherent
558.3129	0.0925015124958008	25	diastole	6	A	2874.952356810848	coherent
558.6529	0.0925015124958008	25	diastole	7	A	2874.952356810848	coherent
558.8334	0.0925015124958008	25	diastole	8	B	500.0	coherent
559.0129	0.0925015124958008	25	diastole	9	A	2874.952356810848	coherent
559.4657	0.0925015124958008	25	diastole	10	A	2874.952356810848	coherent
559.645	0.0925015124958008	25	diastole	11	B	500.0	coherent
559.8232	0.0925015124958008	25	diastole	12	A	2874.952356810848	coherent
560.4958	0.0925015124958008	25	diastole	13	A	2874.952356810848	coherent
560.6751	0.0925015124958008	25	diastole	14	B	500.0	coherent
560.8533	0.0925015124958008	25	diastole	15	A	2874.952356810848	coherent
561.2658	0.0925015124958008	25	diastole	16	A	2874.952356810848	coherent
561.4451	0.0925015124958008	25	diastole	17	B	500.0	coherent
561.6233	0.0925015124958008	25	diastole	18	A	2874.952356810848	coherent
562.1017	0.0925015124958008	25	diastole	19	A	2874.952356810848	coherent
562.2835	0.0925015124958008	25	diastole	20	B	500.0	coherent
562.4642	0.0925015124958008	25	diastole	21	A	2874.952356810848	coherent
562.9233	0.0925015124958008	25	diastole	22	A	2874.952356810848	coherent
563.1051	0.0925015124958008	25	diastole	23	B	500.0	coherent
563.2858	0.0925015124958008	25	diastole	24	A	2874.952356810848	coherent
563.7449	0.0925015124958008	25	diastole	25	A	2874.952356810848	coherent
563.9267	0.0925015124958008	25	diastole	26	B	500.0	coherent
564.1074	0.0925015124958008	25	diastole	27	A	2874.952356810848	coherent
564.6087	0.0925015124958008	25	diastole	28	A	2874.952356810848	coherent
564.7967	0.0925015124958008	25	diastole	29	B	500.0	coherent
564.9838	0.0925015124958008	25	diastole	30	A	2874.952356810848	coherent
565.509	0.0925015124958008	25	diastole	31	A	2874.952356810848	coherent
565.7147	0.0925015124958008	25	diastole	32	B	500.0	coherent
565.9194	0.0925015124958008	25	diastole	33	A	2874.952356810848	coherent
569.1764	0.1006269311765208	26	systole	1	A	4999.999999999997	coherent
569.3768	0.1006269311765208	26	systole	2	B	500.0	coherent
569.5764	0.1006269311765208	26	systole	3	A	4999.999999999997	coherent
569.9164	0.1006269311765208	26	systole	4	A	4999.999999999997	coherent
570.1168	0.1006269311765208	26	systole	5	B	500.0	coherent
570.3164	0.1006269311765208	26	systole	6	A	4999.999999999997	coherent
570.6564	0.1006269311765208	26	systole	7	A	4999.999999999997	coherent
570.8568	0.1006269311765208	26	systole	8	B	500.0	coherent
571.0565	0.1006269311765208	26	systole	9	A	4999.999999999997	coherent
571.3427	0.1006269311765208	26	systole	10	A	4999.999999999997	coherent
571.5393	0.1006269311765208	26	systole	11	B	500.0	coherent
571.7352	0.1006269311765208	26	systole	12	A	4999.999999999997	coherent
572.0428	0.1006269311765208	26	systole	13	A	4999.999999999997	coherent
572.2394	0.1006269311765208	26	systole	14	B	500.0	coherent
572.4353	0.1006269311765208	26	systole	15	A	4999.999999999997	coherent
572.709	0.1006269311765208	26	systole	16	A	4999.999999999997	coherent
572.9019	0.1006269311765208	26	systole	17	B	500.0	coherent
573.094	0.1006269311765208	26	systole	18	A	4999.999999999997	coherent
573.3807	0.1006269311765208	26	systole	19	A	4999.999999999997	coherent
573.5686	0.1006269311765208	26	systole	20	B	500.0	coherent
573.7557	0.1006269311765208	26	systole	21	A	4999.999999999997	coherent
574.0708	0.1006269311765208	26	systole	22	A	4999.999999999997	coherent
574.2586	0.1006269311765208	26	systole	23	B	500.0	coherent
574.4457	0.1006269311765208	26	systole	24	A	4999.999999999997	coherent
574.7575	0.1006269311765208	26	systole	25	A	4999.999999999997	coherent
574.9391	0.1006269311765208	26	systole	26	B	500.0	coherent
575.12	0.1006269311765208	26	systole	27	A	4999.999999999997	coherent
575.6075	0.1006269311765208	26	systole	28	A	4999.999999999997	coherent
575.7891	0.1006269311765208	26	systole	29	B	500.0	coherent
575.97	0.1006269311765208	26	systole	30	A	4999.999999999997	coherent
576.4476	0.1006269311765208	26	systole	31	A	4999.999999999997	coherent
576.6291	0.1006269311765208	26	systole	32	B	500.0	coherent
576.81	0.1006269311765208	26	systole	33	A	4999.999999999997	coherent
576.9992	0.1006269311765208	26	systole	34	A	4999.999999999997	coherent
577.1758	0.1006269311765208	26	systole	35	B	500.0	coherent
577.3517	0.1006269311765208	26	systole	36	A	4999.999999999997	coherent
577.8067	0.1006269311765208	26	systole	37	A	4999.999999999997	coherent
577.9908	0.1006269311765208	26	systole	38	B	500.0	coherent
578.1742	0.1006269311765208	26	systole	39	A	4999.999999999997	coherent
578.5867	0.1006269311765208	26	systole	40	A	4999.999999999997	coherent
578.7708	0.1006269311765208	26	systole	41	B	500.0	coherent
578.9542	0.1006269311765208	26	systole	42	A	4999.999999999997	coherent
628.6008	0.0951016876497305	30	diastole	1	A	1091.5327872906942	streaming
628.7915	0.0951016876497305	30	diastole	2	B	500.0	streaming
628.9812	0.0951016876497305	30	diastole	3	A	1091.5327872906942	streaming
629.4207	0.0951016876497305	30	diastole	4	A	1091.5327872906942	streaming
629.6114	0.0951016876497305	30	diastole	5	B	500.0	streaming
629.8011	0.0951016876497305	30	diastole	6	A	1091.5327872906942	streaming
630.3912	0.0951016876497305	30	diastole	7	A	1091.5327872906942	streaming
630.5979	0.0951016876497305	30	diastole	8	B	500.0	streaming
630.8036	0.0951016876497305	30	diastole	9	A	1091.5327872906942	streaming
631.2685	0.0951016876497305	30	diastole	10	A	1091.5327872906942	streaming
631.4764	0.0951016876497305	30	diastole	11	B	500.0	streaming
631.6835	0.0951016876497305	30	diastole	12	A	1091.5327872906942	streaming
632.1558	0.0951016876497305	30	diastole	13	A	1091.5327872906942	streaming
632.365	0.0951016876497305	30	diastole	14	B	500.0	streaming
632.5733	0.0951016876497305	30	diastole	15	A	1091.5327872906942	streaming
633.0401	0.0951016876497305	30	diastole	16	A	1091.5327872906942	streaming
633.2519	0.0951016876497305	30	diastole	17	B	500.0	streaming
633.4627	0.0951016876497305	30	diastole	18	A	1091.5327872906942	streaming
633.9102	0.0951016876497305	30	diastole	19	A	1091.5327872906942	streaming
634.1219	0.0951016876497305	30	diastole	20	B	500.0	streaming
634.3327	0.0951016876497305	30	diastole	21	A	1091.5327872906942	streaming
634.7802	0.0951016876497305	30	diastole	22	A	1091.5327872906942	streaming
634.9919	0.0951016876497305	30	diastole	23	B	500.0	streaming
635.2028	0.0951016876497305	30	diastole	24	A	1091.5327872906942	streaming
635.5972	0.0951016876497305	30	diastole	25	A	1091.5327872906942	streaming
635.8101	0.0951016876497305	30	diastole	26	B	500.0	streaming
636.0222	0.0951016876497305	30	diastole	27	A	1091.5327872906942	streaming
636.4071	0.0951016876497305	30	diastole	28	A	1091.5327872906942	streaming
636.6201	0.0951016876497305	30	diastole	29	B	500.0	streaming
636.8322	0.0951016876497305	30	diastole	30	A	1091.5327872906942	streaming
637.1829	0.0951016876497305	30	diastole	31	A	1091.5327872906942	streaming
637.3933	0.0951016876497305	30	diastole	32	B	500.0	streaming
637.6029	0.0951016876497305	30	diastole	33	A	1091.5327872906942	streaming
639.5772	0.100002831313759	31	systole	1	A	928.8333655934664	coherent
639.7751	0.100002831313759	31	systole	2	B	500.0	coherent
639.9722	0.100002831313759	31	systole	3	A	928.8333655934664	coherent
640.2834	0.100002831313759	31	systole	4	A	928.8333655934664	coherent
640.4776	0.100002831313759	31	systole	5	B	500.0	coherent
640.6709	0.100002831313759	31	systole	6	A	928.8333655934664	coherent
641.0034	0.100002831313759	31	systole	7	A	928.8333655934664	coherent
641.1975	0.100002831313759	31	systole	8	B	500.0	coherent
641.3909	0.100002831313759	31	systole	9	A	928.8333655934664	coherent
641.6614	0.100002831313759	31	systole	10	A	928.8333655934664	coherent
641.8468	0.100002831313759	31	systole	11	B	500.0	coherent
642.0314	0.100002831313759	31	systole	12	A	928.8333655934664	coherent
642.3515	0.100002831313759	31	systole	13	A	928.8333655934664	coherent
642.5369	0.100002831313759	31	systole	14	B	500.0	coherent
642.7215	0.100002831313759	31	systole	15	A	928.8333655934664	coherent
643.0077	0.100002831313759	31	systole	16	A	928.8333655934664	coherent
643.1894	0.100002831313759	31	systole	17	B	500.0	coherent
643.3702	0.100002831313759	31	systole	18	A	928.8333655934664	coherent
643.6731	0.100002831313759	31	systole	19	A	928.8333655934664	coherent
643.8535	0.100002831313759	31	systole	20	B	500.0	coherent
644.0331	0.100002831313759	31	systole	21	A	928.8333655934664	coherent
644.3598	0.100002831313759	31	systole	22	A	928.8333655934664	coherent
644.5365	0.100002831313759	31	systole	23	B	500.0	coherent
644.7124	0.100002831313759	31	systole	24	A	928.8333655934664	coherent
645.0602	0.100002831313759	31	systole	25	A	928.8333655934664	coherent
645.2369	0.100002831313759	31	systole	26	B	500.0	coherent
645.4128	0.100002831313759	31	systole	27	A	928.8333655934664	coherent
645.7902	0.100002831313759	31	systole	28	A	928.8333655934664	coherent
645.9669	0.100002831313759	31	systole	29	B	500.0	coherent
646.1428	0.100002831313759	31	systole	30	A	928.8333655934664	coherent
646.5352	0.100002831313759	31	systole	31	A	928.8333655934664	coherent
646.7132	0.100002831313759	31	systole	32	B	500.0	coherent
646.8903	0.100002831313759	31	systole	33	A	928.8333655934664	coherent
647.2756	0.100002831313759	31	systole	34	A	928.8333655934664	coherent
647.4535	0.100002831313759	31	systole	35	B	500.0	coherent
647.6307	0.100002831313759	31	systole	36	A	928.8333655934664	coherent
647.967	0.100002831313759	31	systole	37	A	928.8333655934664	coherent
648.1425	0.100002831313759	31	systole	38	B	500.0	coherent
648.3172	0.100002831313759	31	systole	39	A	928.8333655934664	coherent
648.6674	0.100002831313759	31	systole	40	A	928.8333655934664	coherent
648.8429	0.100002831313759	31	systole	41	B	500.0	coherent
649.0175	0.100002831313759	31	systole	42	A	928.8333655934664	coherent
652.7096	0.0912505187443457	32	diastole	1	A	2503.4897289455444	streaming
652.8912	0.0912505187443457	32	diastole	2	B	500.0	streaming
653.072	0.0912505187443457	32	diastole	3	A	2503.4897289455444	streaming
653.4196	0.0912505187443457	32	diastole	4	A	2503.4897289455444	streaming
653.6013	0.0912505187443457	32	diastole	5	B	500.0	streaming
653.782	0.0912505187443457	32	diastole	6	A	2503.4897289455444	streaming
654.1155	0.0912505187443457	32	diastole	7	A	2503.4897289455444	streaming
654.2946	0.0912505187443457	32	diastole	8	B	500.0	streaming
654.4729	0.0912505187443457	32	diastole	9	A	2503.4897289455444	streaming
654.8456	0.0912505187443457	32	diastole	10	A	2503.4897289455444	streaming
655.0247	0.0912505187443457	32	diastole	11	B	500.0	streaming
655.203	0.0912505187443457	32	diastole	12	A	2503.4897289455444	streaming
655.5656	0.0912505187443457	32	diastole	13	A	2503.4897289455444	streaming
655.7448	0.0912505187443457	32	diastole	14	B	500.0	streaming
655.923	0.0912505187443457	32	diastole	15	A	2503.4897289455444	streaming
656.2857	0.0912505187443457	32	diastole	16	A	2503.4897289455444	streaming
656.4648	0.0912505187443457	32	diastole	17	B	500.0	streaming
656.6431	0.0912505187443457	32	diastole	18	A	2503.4897289455444	streaming
657.0127	0.0912505187443457	32	diastole	19	A	2503.4897289455444	streaming
657.193	0.0912505187443457	32	diastole	20	B	500.0	streaming
657.3725	0.0912505187443457	32	diastole	21	A	2503.4897289455444	streaming
657.763	0.0912505187443457	32	diastole	22	A	2503.4897289455444	streaming
657.9435	0.0912505187443457	32	diastole	23	B	500.0	streaming
658.123	0.0912505187443457	32	diastole	24	A	2503.4897289455444	streaming
658.513	0.0912505187443457	32	diastole	25	A	2503.4897289455444	streaming
658.6934	0.0912505187443457	32	diastole	26	B	500.0	streaming
658.873	0.0912505187443457	32	diastole	27	A	2503.4897289455444	streaming
659.263	0.0912505187443457	32	diastole	28	A	2503.4897289455444	streaming
659.4434	0.0912505187443457	32	diastole	29	B	500.0	streaming
659.623	0.0912505187443457	32	diastole	30	A	2503.4897289455444	streaming
659.89	0.0912505187443457	32	diastole	31	A	2503.4897289455444	streaming
660.0717	0.0912505187443457	32	diastole	32	B	500.0	streaming
660.2526	0.0912505187443457	32	diastole	33	A	2503.4897289455444	streaming
660.5101	0.0912505187443457	32	diastole	34	A	2503.4897289455444	streaming
660.6917	0.0912505187443457	32	diastole	35	B	500.0	streaming
660.8726	0.0912505187443457	32	diastole	36	A	2503.4897289455444	streaming
661.1901	0.0912505187443457	32	diastole	37	A	2503.4897289455444	streaming
661.3718	0.0912505187443457	32	diastole	38	B	500.0	streaming
661.5526	0.0912505187443457	32	diastole	39	A	2503.4897289455444	streaming
663.6612	0.090626947057899	33	diastole	1	A	2682.7996005075997	streaming
663.8466	0.090626947057899	33	diastole	2	B	500.0	streaming
664.0311	0.090626947057899	33	diastole	3	A	2682.7996005075997	streaming
664.4311	0.090626947057899	33	diastole	4	A	2682.7996005075997	streaming
664.6165	0.090626947057899	33	diastole	5	B	500.0	streaming
664.801	0.090626947057899	33	diastole	6	A	2682.7996005075997	streaming
665.2111	0.090626947057899	33	diastole	7	A	2682.7996005075997	streaming
665.3965	0.090626947057899	33	diastole	8	B	500.0	streaming
665.5811	0.090626947057899	33	diastole	9	A	2682.7996005075997	streaming
665.9911	0.090626947057899	33	diastole	10	A	2682.7996005075997	streaming
666.1765	0.090626947057899	33	diastole	11	B	500.0	streaming
666.3611	0.090626947057899	33	diastole	12	A	2682.7996005075997	streaming
666.7711	0.090626947057899	33	diastole	13	A	2682.7996005075997	streaming
666.9565	0.090626947057899	33	diastole	14	B	500.0	streaming
667.141	0.090626947057899	33	diastole	15	A	2682.7996005075997	streaming
667.7535	0.090626947057899	33	diastole	16	A	2682.7996005075997	streaming
667.9465	0.090626947057899	33	diastole	17	B	500.0	streaming
668.1385	0.090626947057899	33	diastole	18	A	2682.7996005075997	streaming
668.6934	0.090626947057899	33	diastole	19	A	2682.7996005075997	streaming
668.8863	0.090626947057899	33	diastole	20	B	500.0	streaming
669.0784	0.090626947057899	33	diastole	21	A	2682.7996005075997	streaming
669.6333	0.090626947057899	33	diastole	22	A	2682.7996005075997	streaming
669.8262	0.090626947057899	33	diastole	23	B	500.0	streaming
670.0183	0.090626947057899	33	diastole	24	A	2682.7996005075997	streaming
670.4132	0.090626947057899	33	diastole	25	A	2682.7996005075997	streaming
670.6062	0.090626947057899	33	diastole	26	B	500.0	streaming
670.7982	0.090626947057899	33	diastole	27	A	2682.7996005075997	streaming
671.2204	0.090626947057899	33	diastole	28	A	2682.7996005075997	streaming
671.4146	0.090626947057899	33	diastole	29	B	500.0	streaming
671.6079	0.090626947057899	33	diastole	30	A	2682.7996005075997	streaming
672.0074	0.090626947057899	33	diastole	31	A	2682.7996005075997	streaming
672.2028	0.090626947057899	33	diastole	32	B	500.0	streaming
672.3974	0.090626947057899	33	diastole	33	A	2682.7996005075997	streaming
672.8387	0.090626947057899	33	diastole	34	A	2682.7996005075997	streaming
673.0379	0.090626947057899	33	diastole	35	B	500.0	streaming
673.2362	0.090626947057899	33	diastole	36	A	2682.7996005075997	streaming
676.5006	0.1006278765271417	34	diastole	1	A	737.5583956554606	streaming
676.7034	0.1006278765271417	34	diastole	2	B	500.0	streaming
676.9056	0.1006278765271417	34	diastole	3	A	737.5583956554606	streaming
677.2806	0.1006278765271417	34	diastole	4	A	737.5583956554606	streaming
677.4834	0.1006278765271417	34	diastole	5	B	500.0	streaming
677.6856	0.1006278765271417	34	diastole	6	A	737.5583956554606	streaming
678.0706	0.1006278765271417	34	diastole	7	A	737.5583956554606	streaming
678.2734	0.1006278765271417	34	diastole	8	B	500.0	streaming
678.4756	0.1006278765271417	34	diastole	9	A	737.5583956554606	streaming
678.8606	0.1006278765271417	34	diastole	10	A	737.5583956554606	streaming
679.0634	0.1006278765271417	34	diastole	11	B	500.0	streaming
679.2656	0.1006278765271417	34	diastole	12	A	737.5583956554606	streaming
679.6507	0.1006278765271417	34	diastole	13	A	737.5583956554606	streaming
679.8534	0.1006278765271417	34	diastole	14	B	500.0	streaming
680.0557	0.1006278765271417	34	diastole	15	A	737.5583956554606	streaming
680.4304	0.1006278765271417	34	diastole	16	A	737.5583956554606	streaming
680.6332	0.1006278765271417	34	diastole	17	B	500.0	streaming
680.8354	0.1006278765271417	34	diastole	18	A	737.5583956554606	streaming
681.1867	0.1006278765271417	34	diastole	19	A	737.5583956554606	streaming
681.387	0.1006278765271417	34	diastole	20	B	500.0	streaming
681.5867	0.1006278765271417	34	diastole	21	A	737.5583956554606	streaming
681.9425	0.1006278765271417	34	diastole	22	A	737.5583956554606	streaming
682.1402	0.1006278765271417	34	diastole	23	B	500.0	streaming
682.3374	0.1006278765271417	34	diastole	24	A	737.5583956554606	streaming
682.6754	0.1006278765271417	34	diastole	25	A	737.5583956554606	streaming
682.8719	0.1006278765271417	34	diastole	26	B	500.0	streaming
683.0679	0.1006278765271417	34	diastole	27	A	737.5583956554606	streaming
683.3982	0.1006278765271417	34	diastole	28	A	737.5583956554606	streaming
683.5934	0.1006278765271417	34	diastole	29	B	500.0	streaming
683.7881	0.1006278765271417	34	diastole	30	A	737.5583956554606	streaming
684.1214	0.1006278765271417	34	diastole	31	A	737.5583956554606	streaming
684.3154	0.1006278765271417	34	diastole	32	B	500.0	streaming
684.5089	0.1006278765271417	34	diastole	33	A	737.5583956554606	streaming
684.8514	0.1006278765271417	34	diastole	34	A	737.5583956554606	streaming
685.0454	0.1006278765271417	34	diastole	35	B	500.0	streaming
685.2389	0.1006278765271417	34	diastole	36	A	737.5583956554606	streaming
688.489	0.0974992531700991	35	systole	1	A	846.9957848672357	streaming
688.6819	0.0974992531700991	35	systole	2	B	500.0	streaming
688.874	0.0974992531700991	35	systole	3	A	846.9957848672357	streaming
689.2087	0.0974992531700991	35	systole	4	A	846.9957848672357	streaming
689.4016	0.0974992531700991	35	systole	5	B	500.0	streaming
689.5937	0.0974992531700991	35	systole	6	A	846.9957848672357	streaming
689.9387	0.0974992531700991	35	systole	7	A	846.9957848672357	streaming
690.1316	0.0974992531700991	35	systole	8	B	500.0	streaming
690.3237	0.0974992531700991	35	systole	9	A	846.9957848672357	streaming
690.6887	0.0974992531700991	35	systole	10	A	846.9957848672357	streaming
690.8815	0.0974992531700991	35	systole	11	B	500.0	streaming
691.0737	0.0974992531700991	35	systole	12	A	846.9957848672357	streaming
691.4393	0.0974992531700991	35	systole	13	A	846.9957848672357	streaming
691.6322	0.0974992531700991	35	systole	14	B	500.0	streaming
691.8244	0.0974992531700991	35	systole	15	A	846.9957848672357	streaming
692.1897	0.0974992531700991	35	systole	16	A	846.9957848672357	streaming
692.3827	0.0974992531700991	35	systole	17	B	500.0	streaming
692.5748	0.0974992531700991	35	systole	18	A	846.9957848672357	streaming
693.0095	0.0974992531700991	35	systole	19	A	846.9957848672357	streaming
693.2024	0.0974992531700991	35	systole	20	B	500.0	streaming
693.3946	0.0974992531700991	35	systole	21	A	846.9957848672357	streaming
693.7903	0.0974992531700991	35	systole	22	A	846.9957848672357	streaming
693.9807	0.0974992531700991	35	systole	23	B	500.0	streaming
694.1704	0.0974992531700991	35	systole	24	A	846.9957848672357	streaming
694.5803	0.0974992531700991	35	systole	25	A	846.9957848672357	streaming
694.7707	0.0974992531700991	35	systole	26	B	500.0	streaming
694.9604	0.0974992531700991	35	systole	27	A	846.9957848672357	streaming
695.3702	0.0974992531700991	35	systole	28	A	846.9957848672357	streaming
695.5607	0.0974992531700991	35	systole	29	B	500.0	streaming
695.7503	0.0974992531700991	35	systole	30	A	846.9957848672357	streaming
696.1602	0.0974992531700991	35	systole	31	A	846.9957848672357	streaming
696.3506	0.0974992531700991	35	systole	32	B	500.0	streaming
696.5403	0.0974992531700991	35	systole	33	A	846.9957848672357	streaming
696.92	0.0974992531700991	35	systole	34	A	846.9957848672357	streaming
697.1104	0.0974992531700991	35	systole	35	B	500.0	streaming
697.3	0.0974992531700991	35	systole	36	A	846.9957848672357	streaming
697.6718	0.0974992531700991	35	systole	37	A	846.9957848672357	streaming
697.8622	0.0974992531700991	35	systole	38	B	500.0	streaming
698.0519	0.0974992531700991	35	systole	39	A	846.9957848672357	streaming
700.4395	0.0955048645846545	36	systole	1	A	4455.529320143999	coherent
700.63	0.0955048645846545	36	systole	2	B	500.0	coherent
700.8195	0.0955048645846545	36	systole	3	A	4455.529320143999	coherent
701.1396	0.0955048645846545	36	systole	4	A	4455.529320143999	coherent
701.33	0.0955048645846545	36	systole	5	B	500.0	coherent
701.5196	0.0955048645846545	36	systole	6	A	4455.529320143999	coherent
701.8396	0.0955048645846545	36	systole	7	A	4455.529320143999	coherent
702.0301	0.0955048645846545	36	systole	8	B	500.0	coherent
702.2196	0.0955048645846545	36	systole	9	A	4455.529320143999	coherent
702.4575	0.0955048645846545	36	systole	10	A	4455.529320143999	coherent
702.642	0.0955048645846545	36	systole	11	B	500.0	coherent
702.8255	0.0955048645846545	36	systole	12	A	4455.529320143999	coherent
703.0638	0.0955048645846545	36	systole	13	A	4455.529320143999	coherent
703.2418	0.0955048645846545	36	systole	14	B	500.0	coherent
703.4188	0.0955048645846545	36	systole	15	A	4455.529320143999	coherent
703.6938	0.0955048645846545	36	systole	16	A	4455.529320143999	coherent
703.8718	0.0955048645846545	36	systole	17	B	500.0	coherent
704.0488	0.0955048645846545	36	systole	18	A	4455.529320143999	coherent
704.5201	0.0955048645846545	36	systole	19	A	4455.529320143999	coherent
704.6943	0.0955048645846545	36	systole	20	B	500.0	coherent
704.8676	0.0955048645846545	36	systole	21	A	4455.529320143999	coherent
705.62	0.0955048645846545	36	systole	22	A	4455.529320143999	coherent
705.7943	0.0955048645846545	36	systole	23	B	500.0	coherent
705.9675	0.0955048645846545	36	systole	24	A	4455.529320143999	coherent
706.7138	0.0955048645846545	36	systole	25	A	4455.529320143999	coherent
706.8918	0.0955048645846545	36	systole	26	B	500.0	coherent
707.0688	0.0955048645846545	36	systole	27	A	4455.529320143999	coherent
707.7939	0.0955048645846545	36	systole	28	A	4455.529320143999	coherent
707.9719	0.0955048645846545	36	systole	29	B	500.0	coherent
708.1489	0.0955048645846545	36	systole	30	A	4455.529320143999	coherent
708.8739	0.0955048645846545	36	systole	31	A	4455.529320143999	coherent
709.0519	0.0955048645846545	36	systole	32	B	500.0	coherent
709.229	0.0955048645846545	36	systole	33	A	4455.529320143999	coherent
709.8802	0.0955048645846545	36	systole	34	A	4455.529320143999	coherent
710.0544	0.0955048645846545	36	systole	35	B	500.0	coherent
710.2277	0.0955048645846545	36	systole	36	A	4455.529320143999	coherent
713.1649	0.1000019374769181	37	systole	1	A	1091.5327872906942	streaming
713.3541	0.1000019374769181	37	systole	2	B	500.0	streaming
713.5423	0.1000019374769181	37	systole	3	A	1091.5327872906942	streaming
713.8065	0.1000019374769181	37	systole	4	A	1091.5327872906942	streaming
713.9908	0.1000019374769181	37	systole	5	B	500.0	streaming
714.174	0.1000019374769181	37	systole	6	A	1091.5327872906942	streaming
714.7948	0.1000019374769181	37	systole	7	A	1091.5327872906942	streaming
714.984	0.1000019374769181	37	systole	8	B	500.0	streaming
715.1723	0.1000019374769181	37	systole	9	A	1091.5327872906942	streaming
715.5749	0.1000019374769181	37	systole	10	A	1091.5327872906942	streaming
715.7641	0.1000019374769181	37	systole	11	B	500.0	streaming
715.9524	0.1000019374769181	37	systole	12	A	1091.5327872906942	streaming
716.3549	0.1000019374769181	37	systole	13	A	1091.5327872906942	streaming
716.5441	0.1000019374769181	37	systole	14	B	500.0	streaming
716.7324	0.1000019374769181	37	systole	15	A	1091.5327872906942	streaming
717.096	0.1000019374769181	37	systole	16	A	1091.5327872906942	streaming
717.2827	0.1000019374769181	37	systole	17	B	500.0	streaming
717.4685	0.1000019374769181	37	systole	18	A	1091.5327872906942	streaming
717.8313	0.1000019374769181	37	systole	19	A	1091.5327872906942	streaming
718.0167	0.1000019374769181	37	systole	20	B	500.0	streaming
718.2013	0.1000019374769181	37	systole	21	A	1091.5327872906942	streaming
718.5712	0.1000019374769181	37	systole	22	A	1091.5327872906942	streaming
718.7567	0.1000019374769181	37	systole	23	B	500.0	streaming
718.9412	0.1000019374769181	37	systole	24	A	1091.5327872906942	streaming
719.3112	0.1000019374769181	37	systole	25	A	1091.5327872906942	streaming
719.4967	0.1000019374769181	37	systole	26	B	500.0	streaming
719.6812	0.1000019374769181	37	systole	27	A	1091.5327872906942	streaming
719.9867	0.1000019374769181	37	systole	28	A	1091.5327872906942	streaming
720.1709	0.1000019374769181	37	systole	29	B	500.0	streaming
720.3542	0.1000019374769181	37	systole	30	A	1091.5327872906942	streaming
720.6375	0.1000019374769181	37	systole	31	A	1091.5327872906942	streaming
720.8192	0.1000019374769181	37	systole	32	B	500.0	streaming
721.0	0.1000019374769181	37	systole	33	A	1091.5327872906942	streaming
721.2975	0.1000019374769181	37	systole	34	A	1091.5327872906942	streaming
721.4792	0.1000019374769181	37	systole	35	B	500.0	streaming
721.66	0.1000019374769181	37	systole	36	A	1091.5327872906942	streaming
721.9646	0.1000019374769181	37	systole	37	A	1091.5327872906942	streaming
722.1401	0.1000019374769181	37	systole	38	B	500.0	streaming
722.3146	0.1000019374769181	37	systole	39	A	1091.5327872906942	streaming
725.9705	0.0862524544936604	38	diastole	1	A	2745.3794129915964	coherent
726.1435	0.0862524544936604	38	diastole	2	B	500.0	coherent
726.3155	0.0862524544936604	38	diastole	3	A	2745.3794129915964	coherent
726.7205	0.0862524544936604	38	diastole	4	A	2745.3794129915964	coherent
726.8935	0.0862524544936604	38	diastole	5	B	500.0	coherent
727.0655	0.0862524544936604	38	diastole	6	A	2745.3794129915964	coherent
727.5742	0.0862524544936604	38	diastole	7	A	2745.3794129915964	coherent
727.7584	0.0862524544936604	38	diastole	8	B	500.0	coherent
727.9417	0.0862524544936604	38	diastole	9	A	2745.3794129915964	coherent
728.3642	0.0862524544936604	38	diastole	10	A	2745.3794129915964	coherent
728.5484	0.0862524544936604	38	diastole	11	B	500.0	coherent
728.7317	0.0862524544936604	38	diastole	12	A	2745.3794129915964	coherent
729.1653	0.0862524544936604	38	diastole	13	A	2745.3794129915964	coherent
729.3532	0.0862524544936604	38	diastole	14	B	500.0	coherent
729.5403	0.0862524544936604	38	diastole	15	A	2745.3794129915964	coherent
729.9153	0.0862524544936604	38	diastole	16	A	2745.3794129915964	coherent
730.1033	0.0862524544936604	38	diastole	17	B	500.0	coherent
730.2903	0.0862524544936604	38	diastole	18	A	2745.3794129915964	coherent
730.6553	0.0862524544936604	38	diastole	19	A	2745.3794129915964	coherent
730.8433	0.0862524544936604	38	diastole	20	B	500.0	coherent
731.0303	0.0862524544936604	38	diastole	21	A	2745.3794129915964	coherent
731.423	0.0862524544936604	38	diastole	22	A	2745.3794129915964	coherent
731.6123	0.0862524544936604	38	diastole	23	B	500.0	coherent
731.8006	0.0862524544936604	38	diastole	24	A	2745.3794129915964	coherent
732.1834	0.0862524544936604	38	diastole	25	A	2745.3794129915964	coherent
732.3727	0.0862524544936604	38	diastole	26	B	500.0	coherent
732.561	0.0862524544936604	38	diastole	27	A	2745.3794129915964	coherent
732.8434	0.0862524544936604	38	diastole	28	A	2745.3794129915964	coherent
733.0327	0.0862524544936604	38	diastole	29	B	500.0	coherent
733.221	0.0862524544936604	38	diastole	30	A	2745.3794129915964	coherent
733.5035	0.0862524544936604	38	diastole	31	A	2745.3794129915964	coherent
733.6928	0.0862524544936604	38	diastole	32	B	500.0	coherent
733.8811	0.0862524544936604	38	diastole	33	A	2745.3794129915964	coherent
734.2335	0.0862524544936604	38	diastole	34	A	2745.3794129915964	coherent
734.4228	0.0862524544936604	38	diastole	35	B	500.0	coherent
734.6111	0.0862524544936604	38	diastole	36	A	2745.3794129915964	coherent
734.9767	0.0862524544936604	38	diastole	37	A	2745.3794129915964	coherent
735.1647	0.0862524544936604	38	diastole	38	B	500.0	coherent
735.3518	0.0862524544936604	38	diastole	39	A	2745.3794129915964	coherent
738.9416	0.0925237436895258	39	diastole	1	A	1855.0772444844133	streaming
739.1268	0.0925237436895258	39	diastole	2	B	500.0	streaming
739.3116	0.0925237436895258	39	diastole	3	A	1855.0772444844133	streaming
739.6371	0.0925237436895258	39	diastole	4	A	1855.0772444844133	streaming
739.8198	0.0925237436895258	39	diastole	5	B	500.0	streaming
740.0021	0.0925237436895258	39	diastole	6	A	1855.0772444844133	streaming
740.3471	0.0925237436895258	39	diastole	7	A	1855.0772444844133	streaming
740.5298	0.0925237436895258	39	diastole	8	B	500.0	streaming
740.712	0.0925237436895258	39	diastole	9	A	1855.0772444844133	streaming
741.1719	0.0925237436895258	39	diastole	10	A	1855.0772444844133	streaming
741.3572	0.0925237436895258	39	diastole	11	B	500.0	streaming
741.542	0.0925237436895258	39	diastole	12	A	1855.0772444844133	streaming
741.879	0.0925237436895258	39	diastole	13	A	1855.0772444844133	streaming
742.0617	0.0925237436895258	39	diastole	14	B	500.0	streaming
742.244	0.0925237436895258	39	diastole	15	A	1855.0772444844133	streaming
742.5573	0.0925237436895258	39	diastole	16	A	1855.0772444844133	streaming
742.7401	0.0925237436895258	39	diastole	17	B	500.0	streaming
742.9223	0.0925237436895258	39	diastole	18	A	1855.0772444844133	streaming
743.2357	0.0925237436895258	39	diastole	19	A	1855.0772444844133	streaming
743.4184	0.0925237436895258	39	diastole	20	B	500.0	streaming
743.6007	0.0925237436895258	39	diastole	21	A	1855.0772444844133	streaming
743.9357	0.0925237436895258	39	diastole	22	A	1855.0772444844133	streaming
744.1185	0.0925237436895258	39	diastole	23	B	500.0	streaming
744.3007	0.0925237436895258	39	diastole	24	A	1855.0772444844133	streaming
744.5998	0.0925237436895258	39	diastole	25	A	1855.0772444844133	streaming
744.7815	0.0925237436895258	39	diastole	26	B	500.0	streaming
744.9626	0.0925237436895258	39	diastole	27	A	1855.0772444844133	streaming
745.2698	0.0925237436895258	39	diastole	28	A	1855.0772444844133	streaming
745.4515	0.0925237436895258	39	diastole	29	B	500.0	streaming
745.6327	0.0925237436895258	39	diastole	30	A	1855.0772444844133	streaming
745.9574	0.0925237436895258	39	diastole	31	A	1855.0772444844133	streaming
746.1351	0.0925237436895258	39	diastole	32	B	500.0	streaming
746.3124	0.0925237436895258	39	diastole	33	A	1855.0772444844133	streaming
746.7152	0.0925237436895258	39	diastole	34	A	1855.0772444844133	streaming
746.8944	0.0925237436895258	39	diastole	35	B	500.0	streaming
747.0731	0.0925237436895258	39	diastole	36	A	1855.0772444844133	streaming
747.4648	0.0925237436895258	39	diastole	37	A	1855.0772444844133	streaming
747.644	0.0925237436895258	39	diastole	38	B	500.0	streaming
747.8227	0.0925237436895258	39	diastole	39	A	1855.0772444844133	streaming
752.2825	0.0906478146207518	40	systole	1	A	3010.640720484466	streaming
752.4652	0.0906478146207518	40	systole	2	B	500.0	streaming
752.6474	0.0906478146207518	40	systole	3	A	3010.640720484466	streaming
752.968	0.0906478146207518	40	systole	4	A	3010.640720484466	streaming
753.1495	0.0906478146207518	40	systole	5	B	500.0	streaming
753.3306	0.0906478146207518	40	systole	6	A	3010.640720484466	streaming
753.6585	0.0906478146207518	40	systole	7	A	3010.640720484466	streaming
753.8376	0.0906478146207518	40	systole	8	B	500.0	streaming
754.0161	0.0906478146207518	40	systole	9	A	3010.640720484466	streaming
754.3582	0.0906478146207518	40	systole	10	A	3010.640720484466	streaming
754.5372	0.0906478146207518	40	systole	11	B	500.0	streaming
754.7158	0.0906478146207518	40	systole	12	A	3010.640720484466	streaming
755.0537	0.0906478146207518	40	systole	13	A	3010.640720484466	streaming
755.2315	0.0906478146207518	40	systole	14	B	500.0	streaming
755.4087	0.0906478146207518	40	systole	15	A	3010.640720484466	streaming
755.828	0.0906478146207518	40	systole	16	A	3010.640720484466	streaming
756.0096	0.0906478146207518	40	systole	17	B	500.0	streaming
756.1907	0.0906478146207518	40	systole	18	A	3010.640720484466	streaming
756.5885	0.0906478146207518	40	systole	19	A	3010.640720484466	streaming
756.77	0.0906478146207518	40	systole	20	B	500.0	streaming
756.951	0.0906478146207518	40	systole	21	A	3010.640720484466	streaming
757.3629	0.0906478146207518	40	systole	22	A	3010.640720484466	streaming
757.5456	0.0906478146207518	40	systole	23	B	500.0	streaming
757.7278	0.0906478146207518	40	systole	24	A	3010.640720484466	streaming
758.1328	0.0906478146207518	40	systole	25	A	3010.640720484466	streaming
758.3156	0.0906478146207518	40	systole	26	B	500.0	streaming
758.4978	0.0906478146207518	40	systole	27	A	3010.640720484466	streaming
758.6274	0.0906478146207518	40	systole	28	A	3010.640720484466	streaming
758.8113	0.0906478146207518	40	systole	29	B	500.0	streaming
758.9948	0.0906478146207518	40	systole	30	A	3010.640720484466	streaming
759.2593	0.0906478146207518	40	systole	31	A	3010.640720484466	streaming
759.4384	0.0906478146207518	40	systole	32	B	500.0	streaming
759.6169	0.0906478146207518	40	systole	33	A	3010.640720484466	streaming
759.9602	0.0906478146207518	40	systole	34	A	3010.640720484466	streaming
760.1367	0.0906478146207518	40	systole	35	B	500.0	streaming
760.3128	0.0906478146207518	40	systole	36	A	3010.640720484466	streaming
760.6891	0.0906478146207518	40	systole	37	A	3010.640720484466	streaming
760.8681	0.0906478146207518	40	systole	38	B	500.0	streaming
761.0466	0.0906478146207518	40	systole	39	A	3010.640720484466	streaming
761.4287	0.0906478146207518	40	systole	40	A	3010.640720484466	streaming
761.6102	0.0906478146207518	40	systole	41	B	500.0	streaming
761.7912	0.0906478146207518	40	systole	42	A	3010.640720484466	streaming
766.2876	0.0900087933405302	41	systole	1	A	3152.7331318609326	coherent
766.4692	0.0900087933405302	41	systole	2	B	500.0	coherent
766.6502	0.0900087933405302	41	systole	3	A	3152.7331318609326	coherent
767.1272	0.0900087933405302	41	systole	4	A	3152.7331318609326	coherent
767.3088	0.0900087933405302	41	systole	5	B	500.0	coherent
767.4898	0.0900087933405302	41	systole	6	A	3152.7331318609326	coherent
767.979	0.0900087933405302	41	systole	7	A	3152.7331318609326	coherent
768.1718	0.0900087933405302	41	systole	8	B	500.0	coherent
768.3641	0.0900087933405302	41	systole	9	A	3152.7331318609326	coherent
768.8256	0.0900087933405302	41	systole	10	A	3152.7331318609326	coherent
769.0284	0.0900087933405302	41	systole	11	B	500.0	coherent
769.2307	0.0900087933405302	41	systole	12	A	3152.7331318609326	coherent
769.6255	0.0900087933405302	41	systole	13	A	3152.7331318609326	coherent
769.8284	0.0900087933405302	41	systole	14	B	500.0	coherent
770.0306	0.0900087933405302	41	systole	15	A	3152.7331318609326	coherent
770.4055	0.0900087933405302	41	systole	16	A	3152.7331318609326	coherent
770.6084	0.0900087933405302	41	systole	17	B	500.0	coherent
770.8107	0.0900087933405302	41	systole	18	A	3152.7331318609326	coherent
771.1655	0.0900087933405302	41	systole	19	A	3152.7331318609326	coherent
771.3684	0.0900087933405302	41	systole	20	B	500.0	coherent
771.5706	0.0900087933405302	41	systole	21	A	3152.7331318609326	coherent
771.8807	0.0900087933405302	41	systole	22	A	3152.7331318609326	coherent
772.0823	0.0900087933405302	41	systole	23	B	500.0	coherent
772.2832	0.0900087933405302	41	systole	24	A	3152.7331318609326	coherent
772.6007	0.0900087933405302	41	systole	25	A	3152.7331318609326	coherent
772.8023	0.0900087933405302	41	systole	26	B	500.0	coherent
773.0032	0.0900087933405302	41	systole	27	A	3152.7331318609326	coherent
773.3207	0.0900087933405302	41	systole	28	A	3152.7331318609326	coherent
773.5223	0.0900087933405302	41	systole	29	B	500.0	coherent
773.7232	0.0900087933405302	41	systole	30	A	3152.7331318609326	coherent
773.9887	0.0900087933405302	41	systole	31	A	3152.7331318609326	coherent
774.1814	0.0900087933405302	41	systole	32	B	500.0	coherent
774.3737	0.0900087933405302	41	systole	33	A	3152.7331318609326	coherent
774.6849	0.0900087933405302	41	systole	34	A	3152.7331318609326	coherent
774.8739	0.0900087933405302	41	systole	35	B	500.0	coherent
775.0624	0.0900087933405302	41	systole	36	A	3152.7331318609326	coherent
775.3949	0.0900087933405302	41	systole	37	A	3152.7331318609326	coherent
775.5839	0.0900087933405302	41	systole	38	B	500.0	coherent
775.7724	0.0900087933405302	41	systole	39	A	3152.7331318609326	coherent
778.5561	0.0900072735967114	42	diastole	1	A	720.7460505647621	streaming
778.7351	0.0900072735967114	42	diastole	2	B	500.0	streaming
778.9136	0.0900072735967114	42	diastole	3	A	720.7460505647621	streaming
779.2461	0.0900072735967114	42	diastole	4	A	720.7460505647621	streaming
779.4251	0.0900072735967114	42	diastole	5	B	500.0	streaming
779.6035	0.0900072735967114	42	diastole	6	A	720.7460505647621	streaming
779.939	0.0900072735967114	42	diastole	7	A	720.7460505647621	streaming
780.1168	0.0900072735967114	42	diastole	8	B	500.0	streaming
780.294	0.0900072735967114	42	diastole	9	A	720.7460505647621	streaming
780.649	0.0900072735967114	42	diastole	10	A	720.7460505647621	streaming
780.8268	0.0900072735967114	42	diastole	11	B	500.0	streaming
781.004	0.0900072735967114	42	diastole	12	A	720.7460505647621	streaming
781.359	0.0900072735967114	42	diastole	13	A	720.7460505647621	streaming
781.5368	0.0900072735967114	42	diastole	14	B	500.0	streaming
781.714	0.0900072735967114	42	diastole	15	A	720.7460505647621	streaming
782.049	0.0900072735967114	42	diastole	16	A	720.7460505647621	streaming
782.2268	0.0900072735967114	42	diastole	17	B	500.0	streaming
782.404	0.0900072735967114	42	diastole	18	A	720.7460505647621	streaming
782.739	0.0900072735967114	42	diastole	19	A	720.7460505647621	streaming
782.9168	0.0900072735967114	42	diastole	20	B	500.0	streaming
783.094	0.0900072735967114	42	diastole	21	A	720.7460505647621	streaming
783.4389	0.0900072735967114	42	diastole	22	A	720.7460505647621	streaming
783.6167	0.0900072735967114	42	diastole	23	B	500.0	streaming
783.794	0.0900072735967114	42	diastole	24	A	720.7460505647621	streaming
784.1689	0.0900072735967114	42	diastole	25	A	720.7460505647621	streaming
784.3466	0.0900072735967114	42	diastole	26	B	500.0	streaming
784.5239	0.0900072735967114	42	diastole	27	A	720.7460505647621	streaming
784.8988	0.0900072735967114	42	diastole	28	A	720.7460505647621	streaming
785.0766	0.0900072735967114	42	diastole	29	B	500.0	streaming
785.2538	0.0900072735967114	42	diastole	30	A	720.7460505647621	streaming
785.6488	0.0900072735967114	42	diastole	31	A	720.7460505647621	streaming
785.8266	0.0900072735967114	42	diastole	32	B	500.0	streaming
786.0038	0.0900072735967114	42	diastole	33	A	720.7460505647621	streaming
786.4088	0.0900072735967114	42	diastole	34	A	720.7460505647621	streaming
786.5866	0.0900072735967114	42	diastole	35	B	500.0	streaming
786.7638	0.0900072735967114	42	diastole	36	A	720.7460505647621	streaming
787.1759	0.0900072735967114	42	diastole	37	A	720.7460505647621	streaming
787.355	0.0900072735967114	42	diastole	38	B	500.0	streaming
787.5335	0.0900072735967114	42	diastole	39	A	720.7460505647621	streaming
790.5531	0.0912459249957464	43	diastole	1	A	2180.0224995339627	streaming
790.7334	0.0912459249957464	43	diastole	2	B	500.0	streaming
790.9131	0.0912459249957464	43	diastole	3	A	2180.0224995339627	streaming
791.1976	0.0912459249957464	43	diastole	4	A	2180.0224995339627	streaming
791.3717	0.0912459249957464	43	diastole	5	B	500.0	streaming
791.5451	0.0912459249957464	43	diastole	6	A	2180.0224995339627	streaming
792.0376	0.0912459249957464	43	diastole	7	A	2180.0224995339627	streaming
792.2117	0.0912459249957464	43	diastole	8	B	500.0	streaming
792.3851	0.0912459249957464	43	diastole	9	A	2180.0224995339627	streaming
793.1175	0.0912459249957464	43	diastole	10	A	2180.0224995339627	streaming
793.2917	0.0912459249957464	43	diastole	11	B	500.0	streaming
793.465	0.0912459249957464	43	diastole	12	A	2180.0224995339627	streaming
794.1975	0.0912459249957464	43	diastole	13	A	2180.0224995339627	streaming
794.3716	0.0912459249957464	43	diastole	14	B	500.0	streaming
794.545	0.0912459249957464	43	diastole	15	A	2180.0224995339627	streaming
794.9475	0.0912459249957464	43	diastole	16	A	2180.0224995339627	streaming
795.1216	0.0912459249957464	43	diastole	17	B	500.0	streaming
795.295	0.0912459249957464	43	diastole	18	A	2180.0224995339627	streaming
795.7958	0.0912459249957464	43	diastole	19	A	2180.0224995339627	streaming
795.9749	0.0912459249957464	43	diastole	20	B	500.0	streaming
796.1533	0.0912459249957464	43	diastole	21	A	2180.0224995339627	streaming
796.6158	0.0912459249957464	43	diastole	22	A	2180.0224995339627	streaming
796.7949	0.0912459249957464	43	diastole	23	B	500.0	streaming
796.9733	0.0912459249957464	43	diastole	24	A	2180.0224995339627	streaming
797.5364	0.0912459249957464	43	diastole	25	A	2180.0224995339627	streaming
797.7367	0.0912459249957464	43	diastole	26	B	500.0	streaming
797.9364	0.0912459249957464	43	diastole	27	A	2180.0224995339627	streaming
798.3364	0.0912459249957464	43	diastole	28	A	2180.0224995339627	streaming
798.5368	0.0912459249957464	43	diastole	29	B	500.0	streaming
798.7364	0.0912459249957464	43	diastole	30	A	2180.0224995339627	streaming
799.1065	0.0912459249957464	43	diastole	31	A	2180.0224995339627	streaming
799.3068	0.0912459249957464	43	diastole	32	B	500.0	streaming
799.5065	0.0912459249957464	43	diastole	33	A	2180.0224995339627	streaming
803.851	0.0862547469441779	44	systole	1	A	3457.353363503972	coherent
804.0226	0.0862547469441779	44	systole	2	B	500.0	coherent
804.1935	0.0862547469441779	44	systole	3	A	3457.353363503972	coherent
804.6212	0.0862547469441779	44	systole	4	A	3457.353363503972	coherent
804.7928	0.0862547469441779	44	systole	5	B	500.0	coherent
804.9637	0.0862547469441779	44	systole	6	A	3457.353363503972	coherent
805.3914	0.0862547469441779	44	systole	7	A	3457.353363503972	coherent
805.563	0.0862547469441779	44	systole	8	B	500.0	coherent
805.7339	0.0862547469441779	44	systole	9	A	3457.353363503972	coherent
806.1014	0.0862547469441779	44	systole	10	A	3457.353363503972	coherent
806.273	0.0862547469441779	44	systole	11	B	500.0	coherent
806.4439	0.0862547469441779	44	systole	12	A	3457.353363503972	coherent
806.8314	0.0862547469441779	44	systole	13	A	3457.353363503972	coherent
807.003	0.0862547469441779	44	systole	14	B	500.0	coherent
807.1739	0.0862547469441779	44	systole	15	A	3457.353363503972	coherent
807.5514	0.0862547469441779	44	systole	16	A	3457.353363503972	coherent
807.723	0.0862547469441779	44	systole	17	B	500.0	coherent
807.8939	0.0862547469441779	44	systole	18	A	3457.353363503972	coherent
808.2551	0.0862547469441779	44	systole	19	A	3457.353363503972	coherent
808.4304	0.0862547469441779	44	systole	20	B	500.0	coherent
808.6051	0.0862547469441779	44	systole	21	A	3457.353363503972	coherent
808.9451	0.0862547469441779	44	systole	22	A	3457.353363503972	coherent
809.1204	0.0862547469441779	44	systole	23	B	500.0	coherent
809.2951	0.0862547469441779	44	systole	24	A	3457.353363503972	coherent
809.6147	0.0862547469441779	44	systole	25	A	3457.353363503972	coherent
809.79	0.0862547469441779	44	systole	26	B	500.0	coherent
809.9647	0.0862547469441779	44	systole	27	A	3457.353363503972	coherent
810.2546	0.0862547469441779	44	systole	28	A	3457.353363503972	coherent
810.43	0.0862547469441779	44	systole	29	B	500.0	coherent
810.6046	0.0862547469441779	44	systole	30	A	3457.353363503972	coherent
810.8944	0.0862547469441779	44	systole	31	A	3457.353363503972	coherent
811.0698	0.0862547469441779	44	systole	32	B	500.0	coherent
811.2444	0.0862547469441779	44	systole	33	A	3457.353363503972	coherent
811.5342	0.0862547469441779	44	systole	34	A	3457.353363503972	coherent
811.7095	0.0862547469441779	44	systole	35	B	500.0	coherent
811.8842	0.0862547469441779	44	systole	36	A	3457.353363503972	coherent
812.1909	0.0862547469441779	44	systole	37	A	3457.353363503972	coherent
812.36	0.0862547469441779	44	systole	38	B	500.0	coherent
812.5283	0.0862547469441779	44	systole	39	A	3457.353363503972	coherent
812.8708	0.0862547469441779	44	systole	40	A	3457.353363503972	coherent
813.0399	0.0862547469441779	44	systole	41	B	500.0	coherent
813.2082	0.0862547469441779	44	systole	42	A	3457.353363503972	coherent
813.5609	0.0862547469441779	44	systole	43	A	3457.353363503972	coherent
813.7299	0.0862547469441779	44	systole	44	B	500.0	coherent
813.8983	0.0862547469441779	44	systole	45	A	3457.353363503972	coherent
816.3355	0.0856194437947124	45	systole	1	A	1253.4921645871675	coherent
816.5085	0.0856194437947124	45	systole	2	B	500.0	coherent
