onset	duration	trial_num	trial_type	tone_num	tone_type	frequency	response
57.38580000000002	0.1018730568466708	1	diastole	1	B	500	systole
58.00929999999994	0.1018730568466708	1	diastole	2	B	500	systole
58.699299999999994	0.1018730568466708	1	diastole	3	B	500	systole
59.39930000000004	0.1018730568466708	1	diastole	4	B	500	systole
60.099300000000085	0.1018730568466708	1	diastole	5	B	500	systole
60.73910000000001	0.1018730568466708	1	diastole	6	B	500	systole
61.387500000000045	0.1018730568466708	1	diastole	7	B	500	systole
62.08249999999998	0.1018730568466708	1	diastole	8	B	500	systole
62.80250000000001	0.1018730568466708	1	diastole	9	B	500	systole
63.59259999999995	0.1018730568466708	1	diastole	10	B	500	systole
64.4025999999999	0.1018730568466708	1	diastole	11	B	500	systole
65.34259999999995	0.1018730568466708	1	diastole	12	B	500	systole
66.19080000000008	0.1018730568466708	1	diastole	13	B	500	systole
71.42619999999988	0.1000003350200131	2	diastole	1	B	500	diastole
72.08619999999996	0.1000003350200131	2	diastole	2	B	500	diastole
72.6844000000001	0.1000003350200131	2	diastole	3	B	500	diastole
73.3710000000001	0.1000003350200131	2	diastole	4	B	500	diastole
74.14110000000005	0.1000003350200131	2	diastole	5	B	500	diastole
75.481	0.1000003350200131	2	diastole	6	B	500	diastole
76.44100000000003	0.1000003350200131	2	diastole	7	B	500	diastole
77.51099999999997	0.1000003350200131	2	diastole	8	B	500	diastole
78.5809999999999	0.1000003350200131	2	diastole	9	B	500	diastole
79.62740000000008	0.1000003350200131	2	diastole	10	B	500	diastole
84.54099999999994	0.1100458563887514	3	diastole	1	B	500	systole
85.21109999999999	0.1100458563887514	3	diastole	2	B	500	systole
85.88120000000004	0.1100458563887514	3	diastole	3	B	500	systole
86.38089999999988	0.1100458563887514	3	diastole	4	B	500	systole
86.87779999999998	0.1100458563887514	3	diastole	5	B	500	systole
87.49610000000007	0.1100458563887514	3	diastole	6	B	500	systole
88.25600000000009	0.1100458563887514	3	diastole	7	B	500	systole
89.01600000000008	0.1100458563887514	3	diastole	8	B	500	systole
89.87599999999998	0.1100458563887514	3	diastole	9	B	500	systole
90.75600000000009	0.1100458563887514	3	diastole	10	B	500	systole
91.70090000000005	0.1100458563887514	3	diastole	11	B	500	systole
92.69100000000003	0.1100458563887514	3	diastole	12	B	500	systole
93.57940000000008	0.1100458563887514	3	diastole	13	B	500	systole
98.87740000000008	0.0999959433684125	4	diastole	1	B	500	diastole
99.55739999999992	0.0999959433684125	4	diastole	2	B	500	diastole
100.19589999999994	0.0999959433684125	4	diastole	3	B	500	diastole
101.06929999999988	0.0999959433684125	4	diastole	4	B	500	diastole
101.95939999999996	0.0999959433684125	4	diastole	5	B	500	diastole
102.81950000000006	0.0999959433684125	4	diastole	6	B	500	diastole
103.65949999999998	0.0999959433684125	4	diastole	7	B	500	diastole
104.56459999999993	0.0999959433684125	4	diastole	8	B	500	diastole
105.39470000000006	0.0999959433684125	4	diastole	9	B	500	diastole
106.19470000000001	0.0999959433684125	4	diastole	10	B	500	diastole
106.94460000000004	0.0999959433684125	4	diastole	11	B	500	diastole
107.66470000000004	0.0999959433684125	4	diastole	12	B	500	diastole
111.84410000000003	0.1024923749500885	5	diastole	1	B	500	systole
112.6558	0.1024923749500885	5	diastole	2	B	500	systole
113.47579999999994	0.1024923749500885	5	diastole	3	B	500	systole
114.2956999999999	0.1024923749500885	5	diastole	4	B	500	systole
115.07580000000007	0.1024923749500885	5	diastole	5	B	500	systole
115.81569999999988	0.1024923749500885	5	diastole	6	B	500	systole
116.53579999999988	0.1024923749500885	5	diastole	7	B	500	systole
117.19569999999999	0.1024923749500885	5	diastole	8	B	500	systole
117.80250000000001	0.1024923749500885	5	diastole	9	B	500	systole
118.58420000000001	0.1024923749500885	5	diastole	10	B	500	systole
119.42419999999993	0.1024923749500885	5	diastole	11	B	500	systole
120.4643000000001	0.1024923749500885	5	diastole	12	B	500	systole
126.10750000000007	0.105001353600528	6	diastole	1	B	500	diastole
126.77749999999992	0.105001353600528	6	diastole	2	B	500	diastole
127.37580000000003	0.105001353600528	6	diastole	3	B	500	diastole
127.88059999999996	0.105001353600528	6	diastole	4	B	500	diastole
128.5105000000001	0.105001353600528	6	diastole	5	B	500	diastole
129.10390000000007	0.105001353600528	6	diastole	6	B	500	diastole
129.7759000000001	0.105001353600528	6	diastole	7	B	500	diastole
130.50589999999988	0.105001353600528	6	diastole	8	B	500	diastole
131.15789999999993	0.105001353600528	6	diastole	9	B	500	diastole
132.21800000000007	0.105001353600528	6	diastole	10	B	500	diastole
133.06799999999998	0.105001353600528	6	diastole	11	B	500	diastole
134.02620000000002	0.105001353600528	6	diastole	12	B	500	diastole
134.9260999999999	0.105001353600528	6	diastole	13	B	500	diastole
139.14920000000006	0.1043703998439014	7	diastole	1	B	500	systole
139.86940000000004	0.1043703998439014	7	diastole	2	B	500	systole
140.5076999999999	0.1043703998439014	7	diastole	3	B	500	systole
141.07269999999994	0.1043703998439014	7	diastole	4	B	500	systole
141.71260000000007	0.1043703998439014	7	diastole	5	B	500	systole
142.31269999999995	0.1043703998439014	7	diastole	6	B	500	systole
143.0909999999999	0.1043703998439014	7	diastole	7	B	500	systole
143.91090000000008	0.1043703998439014	7	diastole	8	B	500	systole
144.7509	0.1043703998439014	7	diastole	9	B	500	systole
145.59089999999992	0.1043703998439014	7	diastole	10	B	500	systole
146.42090000000007	0.1043703998439014	7	diastole	11	B	500	systole
147.37889999999993	0.1043703998439014	7	diastole	12	B	500	systole
150.6208999999999	0.1006411439157091	8	systole	1	B	500	diastole
151.33079999999995	0.1006411439157091	8	systole	2	B	500	diastole
152.13069999999993	0.1006411439157091	8	systole	3	B	500	diastole
152.9308000000001	0.1006411439157091	8	systole	4	B	500	diastole
153.74080000000004	0.1006411439157091	8	systole	5	B	500	diastole
154.47170000000006	0.1006411439157091	8	systole	6	B	500	diastole
155.23170000000005	0.1006411439157091	8	systole	7	B	500	diastole
155.9858999999999	0.1006411439157091	8	systole	8	B	500	diastole
156.76160000000004	0.1006411439157091	8	systole	9	B	500	diastole
157.53160000000003	0.1006411439157091	8	systole	10	B	500	diastole
158.2699	0.1006411439157091	8	systole	11	B	500	diastole
159.01980000000003	0.1006411439157091	8	systole	12	B	500	diastole
159.72399999999993	0.1006411439157091	8	systole	13	B	500	diastole
163.3674000000001	0.0899924402474425	9	diastole	1	B	500	systole
164.1172999999999	0.0899924402474425	9	diastole	2	B	500	systole
164.8572999999999	0.0899924402474425	9	diastole	3	B	500	systole
165.6074000000001	0.0899924402474425	9	diastole	4	B	500	systole
166.3723	0.0899924402474425	9	diastole	5	B	500	systole
167.08230000000003	0.0899924402474425	9	diastole	6	B	500	systole
167.79230000000007	0.0899924402474425	9	diastole	7	B	500	systole
168.59079999999994	0.0899924402474425	9	diastole	8	B	500	systole
169.38100000000009	0.0899924402474425	9	diastole	9	B	500	systole
170.26099999999997	0.0899924402474425	9	diastole	10	B	500	systole
171.10950000000003	0.0899924402474425	9	diastole	11	B	500	systole
171.95789999999988	0.0899924402474425	9	diastole	12	B	500	systole
172.80629999999996	0.0899924402474425	9	diastole	13	B	500	systole
175.692	0.0987680313410237	10	systole	1	B	500	systole
176.36189999999988	0.0987680313410237	10	systole	2	B	500	systole
177.03189999999995	0.0987680313410237	10	systole	3	B	500	systole
177.65249999999992	0.0987680313410237	10	systole	4	B	500	systole
178.25009999999997	0.0987680313410237	10	systole	5	B	500	systole
178.95849999999996	0.0987680313410237	10	systole	6	B	500	systole
179.67849999999999	0.0987680313410237	10	systole	7	B	500	systole
180.3985	0.0987680313410237	10	systole	8	B	500	systole
181.11879999999996	0.0987680313410237	10	systole	9	B	500	systole
181.8393000000001	0.0987680313410237	10	systole	10	B	500	systole
182.6489999999999	0.0987680313410237	10	systole	11	B	500	systole
183.56050000000005	0.0987680313410237	10	systole	12	B	500	systole
184.41879999999992	0.0987680313410237	10	systole	13	B	500	systole
187.80050000000006	0.0999599048518575	11	systole	1	B	500	systole
188.44039999999995	0.0999599048518575	11	systole	2	B	500	systole
189.06749999999988	0.0999599048518575	11	systole	3	B	500	systole
189.72430000000008	0.0999599048518575	11	systole	4	B	500	systole
190.71409999999992	0.0999599048518575	11	systole	5	B	500	systole
191.5239999999999	0.0999599048518575	11	systole	6	B	500	systole
192.34400000000005	0.0999599048518575	11	systole	7	B	500	systole
193.1639	0.0999599048518575	11	systole	8	B	500	systole
193.914	0.0999599048518575	11	systole	9	B	500	systole
194.664	0.0999599048518575	11	systole	10	B	500	systole
195.40380000000005	0.0999599048518575	11	systole	11	B	500	systole
196.12390000000005	0.0999599048518575	11	systole	12	B	500	systole
196.81389999999988	0.0999599048518575	11	systole	13	B	500	systole
197.45399999999995	0.0999599048518575	11	systole	14	B	500	systole
203.20820000000003	0.0868786834180355	12	systole	1	B	500	diastole
204.04809999999998	0.0868786834180355	12	systole	2	B	500	diastole
204.90139999999997	0.0868786834180355	12	systole	3	B	500	diastole
205.66139999999996	0.0868786834180355	12	systole	4	B	500	diastole
206.37130000000002	0.0868786834180355	12	systole	5	B	500	diastole
207.03150000000005	0.0868786834180355	12	systole	6	B	500	diastole
207.69159999999988	0.0868786834180355	12	systole	7	B	500	diastole
208.36660000000006	0.0868786834180355	12	systole	8	B	500	diastole
209.1108999999999	0.0868786834180355	12	systole	9	B	500	diastole
209.86099999999988	0.0868786834180355	12	systole	10	B	500	diastole
210.71090000000004	0.0868786834180355	12	systole	11	B	500	diastole
211.5308	0.0868786834180355	12	systole	12	B	500	diastole
212.32079999999996	0.0868786834180355	12	systole	13	B	500	diastole
213.11069999999995	0.0868786834180355	12	systole	14	B	500	diastole
217.2449999999999	0.0956249064183794	13	systole	1	B	500	systole
217.9393	0.0956249064183794	13	systole	2	B	500	systole
218.63930000000005	0.0956249064183794	13	systole	3	B	500	systole
219.42920000000004	0.0956249064183794	13	systole	4	B	500	systole
220.21910000000003	0.0956249064183794	13	systole	5	B	500	systole
221.08069999999998	0.0956249064183794	13	systole	6	B	500	systole
221.94219999999996	0.0956249064183794	13	systole	7	B	500	systole
222.8206	0.0956249064183794	13	systole	8	B	500	systole
223.69550000000004	0.0956249064183794	13	systole	9	B	500	systole
224.56819999999993	0.0956249064183794	13	systole	10	B	500	systole
225.3182999999999	0.0956249064183794	13	systole	11	B	500	systole
226.06839999999988	0.0956249064183794	13	systole	12	B	500	systole
229.7125000000001	0.095625422138255	14	diastole	1	B	500	systole
230.4922999999999	0.095625422138255	14	diastole	2	B	500	systole
231.2720999999999	0.095625422138255	14	diastole	3	B	500	systole
232.05209999999988	0.095625422138255	14	diastole	4	B	500	systole
232.82420000000002	0.095625422138255	14	diastole	5	B	500	systole
233.56259999999997	0.095625422138255	14	diastole	6	B	500	systole
234.2820999999999	0.095625422138255	14	diastole	7	B	500	systole
234.81410000000005	0.095625422138255	14	diastole	8	B	500	systole
235.56220000000008	0.095625422138255	14	diastole	9	B	500	systole
236.18769999999995	0.095625422138255	14	diastole	10	B	500	systole
237.21630000000005	0.095625422138255	14	diastole	11	B	500	systole
238.24479999999994	0.095625422138255	14	diastole	12	B	500	systole
239.06629999999996	0.095625422138255	14	diastole	13	B	500	systole
243.039	0.1013512025238014	15	diastole	1	B	500	diastole
243.77929999999992	0.1013512025238014	15	diastole	2	B	500	diastole
244.51970000000006	0.1013512025238014	15	diastole	3	B	500	diastole
245.26	0.1013512025238014	15	diastole	4	B	500	diastole
245.7874999999999	0.1013512025238014	15	diastole	5	B	500	diastole
246.40769999999998	0.1013512025238014	15	diastole	6	B	500	diastole
246.96789999999987	0.1013512025238014	15	diastole	7	B	500	diastole
247.57780000000002	0.1013512025238014	15	diastole	8	B	500	diastole
248.18759999999997	0.1013512025238014	15	diastole	9	B	500	diastole
248.6289999999999	0.1013512025238014	15	diastole	10	B	500	diastole
249.26569999999992	0.1013512025238014	15	diastole	11	B	500	diastole
249.82850000000008	0.1013512025238014	15	diastole	12	B	500	diastole
250.44370000000004	0.1013512025238014	15	diastole	13	B	500	diastole
251.5936999999999	0.1013512025238014	15	diastole	14	B	500	diastole
255.30909999999994	0.0987566250842064	16	systole	1	B	500	systole
256.07899999999995	0.0987566250842064	16	systole	2	B	500	systole
256.81899999999996	0.0987566250842064	16	systole	3	B	500	systole
257.4991	0.0987566250842064	16	systole	4	B	500	systole
258.17910000000006	0.0987566250842064	16	systole	5	B	500	systole
258.8390999999999	0.0987566250842064	16	systole	6	B	500	systole
259.3454999999999	0.0987566250842064	16	systole	7	B	500	systole
259.94540000000006	0.0987566250842064	16	systole	8	B	500	systole
260.4886999999999	0.0987566250842064	16	systole	9	B	500	systole
261.1738	0.0987566250842064	16	systole	10	B	500	systole
261.7863	0.0987566250842064	16	systole	11	B	500	systole
262.4163000000001	0.0987566250842064	16	systole	12	B	500	systole
263.0463	0.0987566250842064	16	systole	13	B	500	systole
264.2264	0.0987566250842064	16	systole	14	B	500	systole
265.1962000000001	0.0987566250842064	16	systole	15	B	500	systole
268.19010000000003	0.1031197450938634	17	systole	1	B	500	systole
268.9202	0.1031197450938634	17	systole	2	B	500	systole
269.6299999999999	0.1031197450938634	17	systole	3	B	500	systole
270.33989999999994	0.1031197450938634	17	systole	4	B	500	systole
271.04970000000003	0.1031197450938634	17	systole	5	B	500	systole
271.7196999999999	0.1031197450938634	17	systole	6	B	500	systole
272.3133	0.1031197450938634	17	systole	7	B	500	systole
272.8767	0.1031197450938634	17	systole	8	B	500	systole
273.6322	0.1031197450938634	17	systole	9	B	500	systole
274.4521	0.1031197450938634	17	systole	10	B	500	systole
275.27199999999993	0.1031197450938634	17	systole	11	B	500	systole
276.1118999999999	0.1031197450938634	17	systole	12	B	500	systole
276.93190000000004	0.1031197450938634	17	systole	13	B	500	systole
279.36930000000007	0.0975118000060319	18	systole	1	B	500	systole
280.03780000000006	0.0975118000060319	18	systole	2	B	500	systole
280.69769999999994	0.0975118000060319	18	systole	3	B	500	systole
281.35760000000005	0.0975118000060319	18	systole	4	B	500	systole
281.8925999999999	0.0975118000060319	18	systole	5	B	500	systole
282.50260000000003	0.0975118000060319	18	systole	6	B	500	systole
283.0716	0.0975118000060319	18	systole	7	B	500	systole
283.66560000000004	0.0975118000060319	18	systole	8	B	500	systole
284.30539999999996	0.0975118000060319	18	systole	9	B	500	systole
284.9453000000001	0.0975118000060319	18	systole	10	B	500	systole
285.5852	0.0975118000060319	18	systole	11	B	500	systole
286.7352000000001	0.0975118000060319	18	systole	12	B	500	systole
287.7850000000001	0.0975118000060319	18	systole	13	B	500	systole
288.83490000000006	0.0975118000060319	18	systole	14	B	500	systole
294.6123	0.0950086588272824	19	diastole	1	B	500	diastole
295.17730000000006	0.0950086588272824	19	diastole	2	B	500	diastole
295.75749999999994	0.0950086588272824	19	diastole	3	B	500	diastole
296.3876	0.0950086588272824	19	diastole	4	B	500	diastole
297.0176999999999	0.0950086588272824	19	diastole	5	B	500	diastole
297.596	0.0950086588272824	19	diastole	6	B	500	diastole
298.2158999999999	0.0950086588272824	19	diastole	7	B	500	diastole
298.85580000000004	0.0950086588272824	19	diastole	8	B	500	diastole
299.49569999999994	0.0950086588272824	19	diastole	9	B	500	diastole
300.2856999999999	0.0950086588272824	19	diastole	10	B	500	diastole
301.2938999999999	0.0950086588272824	19	diastole	11	B	500	diastole
302.2940000000001	0.0950086588272824	19	diastole	12	B	500	diastole
303.29420000000005	0.0950086588272824	19	diastole	13	B	500	diastole
304.298	0.0950086588272824	19	diastole	14	B	500	diastole
307.3642	0.0950097854947671	20	diastole	1	B	500	diastole
307.9112	0.0950097854947671	20	diastole	2	B	500	diastole
308.5411999999999	0.0950097854947671	20	diastole	3	B	500	diastole
309.096	0.0950097854947671	20	diastole	4	B	500	diastole
309.7176999999999	0.0950097854947671	20	diastole	5	B	500	diastole
310.3462999999999	0.0950097854947671	20	diastole	6	B	500	diastole
311.0662	0.0950097854947671	20	diastole	7	B	500	diastole
311.7862	0.0950097854947671	20	diastole	8	B	500	diastole
312.5157999999999	0.0950097854947671	20	diastole	9	B	500	diastole
313.21260000000007	0.0950097854947671	20	diastole	10	B	500	diastole
313.9089999999999	0.0950097854947671	20	diastole	11	B	500	diastole
314.61390000000006	0.0950097854947671	20	diastole	12	B	500	diastole
315.44219999999996	0.0950097854947671	20	diastole	13	B	500	diastole
316.3255999999999	0.0950097854947671	20	diastole	14	B	500	diastole
319.6892	0.098748616524972	21	systole	1	B	500	systole
320.39920000000006	0.098748616524972	21	systole	2	B	500	systole
321.0592999999999	0.098748616524972	21	systole	3	B	500	systole
321.66419999999994	0.098748616524972	21	systole	4	B	500	systole
322.2536	0.098748616524972	21	systole	5	B	500	systole
322.8837000000001	0.098748616524972	21	systole	6	B	500	systole
323.4668999999999	0.098748616524972	21	systole	7	B	500	systole
324.0301999999999	0.098748616524972	21	systole	8	B	500	systole
324.64020000000005	0.098748616524972	21	systole	9	B	500	systole
325.2485999999999	0.098748616524972	21	systole	10	B	500	systole
325.86850000000004	0.098748616524972	21	systole	11	B	500	systole
326.5484999999999	0.098748616524972	21	systole	12	B	500	systole
327.22849999999994	0.098748616524972	21	systole	13	B	500	systole
328.03829999999994	0.098748616524972	21	systole	14	B	500	systole
328.96029999999996	0.098748616524972	21	systole	15	B	500	systole
332.22800000000007	0.0975209311582148	22	diastole	1	B	500	systole
332.8976	0.0975209311582148	22	diastole	2	B	500	systole
333.56719999999996	0.0975209311582148	22	diastole	3	B	500	systole
334.2174	0.0975209311582148	22	diastole	4	B	500	systole
334.8336999999999	0.0975209311582148	22	diastole	5	B	500	systole
335.3556000000001	0.0975209311582148	22	diastole	6	B	500	systole
335.9272000000001	0.0975209311582148	22	diastole	7	B	500	systole
336.55719999999997	0.0975209311582148	22	diastole	8	B	500	systole
337.3271	0.0975209311582148	22	diastole	9	B	500	systole
338.09719999999993	0.0975209311582148	22	diastole	10	B	500	systole
339.0171	0.0975209311582148	22	diastole	11	B	500	systole
339.8071	0.0975209311582148	22	diastole	12	B	500	systole
340.62429999999995	0.0975209311582148	22	diastole	13	B	500	systole
348.5212999999999	0.0912512562936171	23	diastole	1	B	500	diastole
349.2214999999999	0.0912512562936171	23	diastole	2	B	500	diastole
349.961	0.0912512562936171	23	diastole	3	B	500	diastole
350.70039999999995	0.0912512562936171	23	diastole	4	B	500	diastole
351.4830999999999	0.0912512562936171	23	diastole	5	B	500	diastole
352.2330999999999	0.0912512562936171	23	diastole	6	B	500	diastole
353.01800000000003	0.0912512562936171	23	diastole	7	B	500	diastole
353.7180000000001	0.0912512562936171	23	diastole	8	B	500	diastole
354.4179999999999	0.0912512562936171	23	diastole	9	B	500	diastole
355.2084	0.0912512562936171	23	diastole	10	B	500	diastole
356.0468000000001	0.0912512562936171	23	diastole	11	B	500	diastole
356.9370999999999	0.0912512562936171	23	diastole	12	B	500	diastole
357.81510000000003	0.0912512562936171	23	diastole	13	B	500	diastole
360.76829999999995	0.1018759153666906	24	systole	1	B	500	diastole
361.5182	0.1018759153666906	24	systole	2	B	500	diastole
362.2382	0.1018759153666906	24	systole	3	B	500	diastole
362.95820000000003	0.1018759153666906	24	systole	4	B	500	diastole
363.5790999999999	0.1018759153666906	24	systole	5	B	500	diastole
364.2292	0.1018759153666906	24	systole	6	B	500	diastole
364.7748999999999	0.1018759153666906	24	systole	7	B	500	diastole
365.3849	0.1018759153666906	24	systole	8	B	500	diastole
365.9341999999999	0.1018759153666906	24	systole	9	B	500	diastole
366.4933000000001	0.1018759153666906	24	systole	10	B	500	diastole
367.0933	0.1018759153666906	24	systole	11	B	500	diastole
367.67409999999995	0.1018759153666906	24	systole	12	B	500	diastole
368.3841	0.1018759153666906	24	systole	13	B	500	diastole
369.3442	0.1018759153666906	24	systole	14	B	500	diastole
370.15409999999997	0.1018759153666906	24	systole	15	B	500	diastole
373.8765000000001	0.1006218374241143	25	systole	1	B	500	diastole
374.6265000000001	0.1006218374241143	25	systole	2	B	500	diastole
375.2765999999999	0.1006218374241143	25	systole	3	B	500	diastole
375.9267	0.1006218374241143	25	systole	4	B	500	diastole
376.57680000000005	0.1006218374241143	25	systole	5	B	500	diastole
377.1383000000001	0.1006218374241143	25	systole	6	B	500	diastole
377.6917000000001	0.1006218374241143	25	systole	7	B	500	diastole
378.2234000000001	0.1006218374241143	25	systole	8	B	500	diastole
378.78430000000003	0.1006218374241143	25	systole	9	B	500	diastole
379.4027000000001	0.1006218374241143	25	systole	10	B	500	diastole
380.04279999999994	0.1006218374241143	25	systole	11	B	500	diastole
381.2026000000001	0.1006218374241143	25	systole	12	B	500	diastole
381.9927	0.1006218374241143	25	systole	13	B	500	diastole
382.7827	0.1006218374241143	25	systole	14	B	500	diastole
387.3633	0.0981219530222006	26	systole	1	B	500	diastole
388.0033000000001	0.0981219530222006	26	systole	2	B	500	diastole
388.6116999999999	0.0981219530222006	26	systole	3	B	500	diastole
389.10439999999994	0.0981219530222006	26	systole	4	B	500	diastole
389.6027999999999	0.0981219530222006	26	systole	5	B	500	diastole
390.18280000000004	0.0981219530222006	26	systole	6	B	500	diastole
390.83529999999996	0.0981219530222006	26	systole	7	B	500	diastole
391.5055	0.0981219530222006	26	systole	8	B	500	diastole
392.44550000000004	0.0981219530222006	26	systole	9	B	500	diastole
393.3028999999999	0.0981219530222006	26	systole	10	B	500	diastole
394.1428000000001	0.0981219530222006	26	systole	11	B	500	diastole
395.1428000000001	0.0981219530222006	26	systole	12	B	500	diastole
396.0620999999999	0.0981219530222006	26	systole	13	B	500	diastole
396.9638	0.0981219530222006	26	systole	14	B	500	diastole
400.2859000000001	0.1043638252886012	27	diastole	1	B	500	diastole
400.89609999999993	0.1043638252886012	27	diastole	2	B	500	diastole
401.4592	0.1043638252886012	27	diastole	3	B	500	diastole
401.9728	0.1043638252886012	27	diastole	4	B	500	diastole
402.65290000000005	0.1043638252886012	27	diastole	5	B	500	diastole
403.3330000000001	0.1043638252886012	27	diastole	6	B	500	diastole
404.0628999999999	0.1043638252886012	27	diastole	7	B	500	diastole
404.7627	0.1043638252886012	27	diastole	8	B	500	diastole
405.4526000000001	0.1043638252886012	27	diastole	9	B	500	diastole
406.0955999999999	0.1043638252886012	27	diastole	10	B	500	diastole
406.7664	0.1043638252886012	27	diastole	11	B	500	diastole
407.41589999999997	0.1043638252886012	27	diastole	12	B	500	diastole
408.0356999999999	0.1043638252886012	27	diastole	13	B	500	diastole
408.65560000000005	0.1043638252886012	27	diastole	14	B	500	diastole
409.23810000000003	0.1043638252886012	27	diastole	15	B	500	diastole
413.9915000000001	0.0800011462997645	28	diastole	1	B	500	diastole
414.8017	0.0800011462997645	28	diastole	2	B	500	diastole
415.7527	0.0800011462997645	28	diastole	3	B	500	diastole
416.5126	0.0800011462997645	28	diastole	4	B	500	diastole
417.21260000000007	0.0800011462997645	28	diastole	5	B	500	diastole
417.86259999999993	0.0800011462997645	28	diastole	6	B	500	diastole
418.50260000000003	0.0800011462997645	28	diastole	7	B	500	diastole
419.2627	0.0800011462997645	28	diastole	8	B	500	diastole
420.1944000000001	0.0800011462997645	28	diastole	9	B	500	diastole
421.03430000000003	0.0800011462997645	28	diastole	10	B	500	diastole
421.8243	0.0800011462997645	28	diastole	11	B	500	diastole
422.61439999999993	0.0800011462997645	28	diastole	12	B	500	diastole
423.3642	0.0800011462997645	28	diastole	13	B	500	diastole
427.0773999999999	0.0837526064715348	29	systole	1	B	500	diastole
427.6268	0.0837526064715348	29	systole	2	B	500	diastole
428.2050999999999	0.0837526064715348	29	systole	3	B	500	diastole
428.7472	0.0837526064715348	29	systole	4	B	500	diastole
429.30369999999994	0.0837526064715348	29	systole	5	B	500	diastole
430.1732999999999	0.0837526064715348	29	systole	6	B	500	diastole
430.88339999999994	0.0837526064715348	29	systole	7	B	500	diastole
431.63329999999996	0.0837526064715348	29	systole	8	B	500	diastole
432.33359999999993	0.0837526064715348	29	systole	9	B	500	diastole
433.0718999999999	0.0837526064715348	29	systole	10	B	500	diastole
433.7518	0.0837526064715348	29	systole	11	B	500	diastole
434.42190000000005	0.0837526064715348	29	systole	12	B	500	diastole
435.04189999999994	0.0837526064715348	29	systole	13	B	500	diastole
435.6217999999999	0.0837526064715348	29	systole	14	B	500	diastole
436.2017000000001	0.0837526064715348	29	systole	15	B	500	diastole
440.16419999999994	0.0799991437816061	30	diastole	1	B	500	diastole
441.0842	0.0799991437816061	30	diastole	2	B	500	diastole
441.9374	0.0799991437816061	30	diastole	3	B	500	diastole
442.7343000000001	0.0799991437816061	30	diastole	4	B	500	diastole
443.4643000000001	0.0799991437816061	30	diastole	5	B	500	diastole
444.1942999999999	0.0799991437816061	30	diastole	6	B	500	diastole
444.88429999999994	0.0799991437816061	30	diastole	7	B	500	diastole
445.53420000000006	0.0799991437816061	30	diastole	8	B	500	diastole
446.1841999999999	0.0799991437816061	30	diastole	9	B	500	diastole
446.82410000000004	0.0799991437816061	30	diastole	10	B	500	diastole
447.47080000000005	0.0799991437816061	30	diastole	11	B	500	diastole
448.3406	0.0799991437816061	30	diastole	12	B	500	diastole
449.3107	0.0799991437816061	30	diastole	13	B	500	diastole
450.2807	0.0799991437816061	30	diastole	14	B	500	diastole
453.4517000000001	0.0968692747410386	31	systole	1	B	500	systole
454.1316999999999	0.0968692747410386	31	systole	2	B	500	systole
454.7866999999999	0.0968692747410386	31	systole	3	B	500	systole
455.4335000000001	0.0968692747410386	31	systole	4	B	500	systole
455.8402000000001	0.0968692747410386	31	systole	5	B	500	systole
456.2702999999999	0.0968692747410386	31	systole	6	B	500	systole
456.8910000000001	0.0968692747410386	31	systole	7	B	500	systole
457.54089999999997	0.0968692747410386	31	systole	8	B	500	systole
458.16509999999994	0.0968692747410386	31	systole	9	B	500	systole
458.8448000000001	0.0968692747410386	31	systole	10	B	500	systole
459.57490000000007	0.0968692747410386	31	systole	11	B	500	systole
460.7649999999999	0.0968692747410386	31	systole	12	B	500	systole
461.61480000000006	0.0968692747410386	31	systole	13	B	500	systole
462.46479999999997	0.0968692747410386	31	systole	14	B	500	systole
466.3390999999999	0.0968565436196513	32	diastole	1	B	500	systole
467.0187000000001	0.0968565436196513	32	diastole	2	B	500	systole
467.6983	0.0968565436196513	32	diastole	3	B	500	systole
468.3883000000001	0.0968565436196513	32	diastole	4	B	500	systole
469.0468000000001	0.0968565436196513	32	diastole	5	B	500	systole
469.69929999999977	0.0968565436196513	32	diastole	6	B	500	systole
470.4094	0.0968565436196513	32	diastole	7	B	500	systole
471.0904999999998	0.0968565436196513	32	diastole	8	B	500	systole
471.7802999999999	0.0968565436196513	32	diastole	9	B	500	systole
472.3951000000002	0.0968565436196513	32	diastole	10	B	500	systole
473.03639999999996	0.0968565436196513	32	diastole	11	B	500	systole
474.0264000000002	0.0968565436196513	32	diastole	12	B	500	systole
474.7946999999999	0.0968565436196513	32	diastole	13	B	500	systole
480.2458999999999	0.0962596062454395	33	systole	1	B	500	diastole
480.904	0.0962596062454395	33	systole	2	B	500	diastole
481.57400000000007	0.0962596062454395	33	systole	3	B	500	diastole
482.1824999999999	0.0962596062454395	33	systole	4	B	500	diastole
482.65009999999984	0.0962596062454395	33	systole	5	B	500	diastole
483.2399999999998	0.0962596062454395	33	systole	6	B	500	diastole
483.9508999999998	0.0962596062454395	33	systole	7	B	500	diastole
484.6909999999998	0.0962596062454395	33	systole	8	B	500	diastole
485.33100000000013	0.0962596062454395	33	systole	9	B	500	diastole
485.971	0.0962596062454395	33	systole	10	B	500	diastole
487.21079999999984	0.0962596062454395	33	systole	11	B	500	diastole
488.44259999999986	0.0962596062454395	33	systole	12	B	500	diastole
489.66269999999986	0.0962596062454395	33	systole	13	B	500	diastole
493.6875	0.0975024687359109	34	diastole	1	B	500	systole
494.27750000000015	0.0975024687359109	34	diastole	2	B	500	systole
494.8656000000001	0.0975024687359109	34	diastole	3	B	500	systole
495.4241999999999	0.0975024687359109	34	diastole	4	B	500	systole
496.0243999999998	0.0975024687359109	34	diastole	5	B	500	systole
496.58280000000013	0.0975024687359109	34	diastole	6	B	500	systole
497.13110000000006	0.0975024687359109	34	diastole	7	B	500	systole
497.7211000000002	0.0975024687359109	34	diastole	8	B	500	systole
498.2325999999998	0.0975024687359109	34	diastole	9	B	500	systole
498.7775999999999	0.0975024687359109	34	diastole	10	B	500	systole
499.4490999999998	0.0975024687359109	34	diastole	11	B	500	systole
500.1291000000001	0.0975024687359109	34	diastole	12	B	500	systole
500.8892999999998	0.0975024687359109	34	diastole	13	B	500	systole
501.6392000000001	0.0975024687359109	34	diastole	14	B	500	systole
502.596	0.0975024687359109	34	diastole	15	B	500	systole
506.74609999999984	0.0943870812188834	35	diastole	1	B	500	systole
507.4063000000001	0.0943870812188834	35	diastole	2	B	500	systole
508.03639999999996	0.0943870812188834	35	diastole	3	B	500	systole
508.62300000000005	0.0943870812188834	35	diastole	4	B	500	systole
509.1707999999999	0.0943870812188834	35	diastole	5	B	500	systole
509.72440000000006	0.0943870812188834	35	diastole	6	B	500	systole
510.30319999999983	0.0943870812188834	35	diastole	7	B	500	systole
511.1147000000001	0.0943870812188834	35	diastole	8	B	500	systole
511.94320000000016	0.0943870812188834	35	diastole	9	B	500	systole
512.7347	0.0943870812188834	35	diastole	10	B	500	systole
513.5383000000002	0.0943870812188834	35	diastole	11	B	500	systole
514.2768000000001	0.0943870812188834	35	diastole	12	B	500	systole
515.0351	0.0943870812188834	35	diastole	13	B	500	systole
520.6590000000001	0.0900102586019784	36	diastole	1	B	500	diastole
521.3692000000001	0.0900102586019784	36	diastole	2	B	500	diastole
522.0792999999999	0.0900102586019784	36	diastole	3	B	500	diastole
522.7792	0.0900102586019784	36	diastole	4	B	500	diastole
523.431	0.0900102586019784	36	diastole	5	B	500	diastole
524.1008000000002	0.0900102586019784	36	diastole	6	B	500	diastole
524.781	0.0900102586019784	36	diastole	7	B	500	diastole
525.5509000000002	0.0900102586019784	36	diastole	8	B	500	diastole
526.0025	0.0900102586019784	36	diastole	9	B	500	diastole
526.8123999999998	0.0900102586019784	36	diastole	10	B	500	diastole
527.5927000000001	0.0900102586019784	36	diastole	11	B	500	diastole
528.3593999999998	0.0900102586019784	36	diastole	12	B	500	diastole
529.1812	0.0900102586019784	36	diastole	13	B	500	diastole
532.3042	0.0962517812731675	37	systole	1	B	500	systole
533.0140999999999	0.0962517812731675	37	systole	2	B	500	systole
533.6954999999998	0.0962517812731675	37	systole	3	B	500	systole
534.3618999999999	0.0962517812731675	37	systole	4	B	500	systole
535.0517	0.0962517812731675	37	systole	5	B	500	systole
535.7415999999998	0.0962517812731675	37	systole	6	B	500	systole
536.3915999999999	0.0962517812731675	37	systole	7	B	500	systole
537.0282000000002	0.0962517812731675	37	systole	8	B	500	systole
537.6774999999998	0.0962517812731675	37	systole	9	B	500	systole
538.3373999999999	0.0962517812731675	37	systole	10	B	500	systole
538.9270999999999	0.0962517812731675	37	systole	11	B	500	systole
539.6817000000001	0.0962517812731675	37	systole	12	B	500	systole
540.4317000000001	0.0962517812731675	37	systole	13	B	500	systole
541.1916999999999	0.0962517812731675	37	systole	14	B	500	systole
544.5990999999999	0.0893520125537179	38	diastole	1	B	500	diastole
545.3458	0.0893520125537179	38	diastole	2	B	500	diastole
546.1156999999998	0.0893520125537179	38	diastole	3	B	500	diastole
546.8654000000001	0.0893520125537179	38	diastole	4	B	500	diastole
547.6152000000002	0.0893520125537179	38	diastole	5	B	500	diastole
548.3555000000001	0.0893520125537179	38	diastole	6	B	500	diastole
549.0958999999998	0.0893520125537179	38	diastole	7	B	500	diastole
549.8067999999998	0.0893520125537179	38	diastole	8	B	500	diastole
550.4890999999998	0.0893520125537179	38	diastole	9	B	500	diastole
551.1406999999999	0.0893520125537179	38	diastole	10	B	500	diastole
551.7910999999999	0.0893520125537179	38	diastole	11	B	500	diastole
552.4310999999998	0.0893520125537179	38	diastole	12	B	500	diastole
553.0695999999998	0.0893520125537179	38	diastole	13	B	500	diastole
555.2577999999999	0.0837464212672784	39	systole	1	B	500	systole
555.9076	0.0837464212672784	39	systole	2	B	500	systole
556.5477999999998	0.0837464212672784	39	systole	3	B	500	systole
557.1880999999998	0.0837464212672784	39	systole	4	B	500	systole
557.8177999999998	0.0837464212672784	39	systole	5	B	500	systole
558.4474999999998	0.0837464212672784	39	systole	6	B	500	systole
559.0918000000001	0.0837464212672784	39	systole	7	B	500	systole
559.7919000000002	0.0837464212672784	39	systole	8	B	500	systole
560.4919	0.0837464212672784	39	systole	9	B	500	systole
561.2217999999998	0.0837464212672784	39	systole	10	B	500	systole
561.9378000000002	0.0837464212672784	39	systole	11	B	500	systole
562.6478999999999	0.0837464212672784	39	systole	12	B	500	systole
563.377	0.0837464212672784	39	systole	13	B	500	systole
564.0769	0.0837464212672784	39	systole	14	B	500	systole
564.7469999999998	0.0837464212672784	39	systole	15	B	500	systole
568.5392999999999	0.0856292537646368	40	diastole	1	B	500	systole
569.2676000000001	0.0856292537646368	40	diastole	2	B	500	systole
569.9958999999999	0.0856292537646368	40	diastole	3	B	500	systole
570.5709000000002	0.0856292537646368	40	diastole	4	B	500	systole
571.1707999999999	0.0856292537646368	40	diastole	5	B	500	systole
571.7707999999998	0.0856292537646368	40	diastole	6	B	500	systole
572.3706999999999	0.0856292537646368	40	diastole	7	B	500	systole
573.0050999999999	0.0856292537646368	40	diastole	8	B	500	systole
573.625	0.0856292537646368	40	diastole	9	B	500	systole
574.2033000000001	0.0856292537646368	40	diastole	10	B	500	systole
574.8463000000002	0.0856292537646368	40	diastole	11	B	500	systole
575.5160000000001	0.0856292537646368	40	diastole	12	B	500	systole
576.406	0.0856292537646368	40	diastole	13	B	500	systole
577.2959999999998	0.0856292537646368	40	diastole	14	B	500	systole
580.9295000000002	0.0987737035611644	41	systole	1	B	500	systole
581.6394999999998	0.0987737035611644	41	systole	2	B	500	systole
582.3494000000001	0.0987737035611644	41	systole	3	B	500	systole
583.0119	0.0987737035611644	41	systole	4	B	500	systole
583.6801999999998	0.0987737035611644	41	systole	5	B	500	systole
584.3227999999999	0.0987737035611644	41	systole	6	B	500	systole
584.9827999999998	0.0987737035611644	41	systole	7	B	500	systole
585.6035000000002	0.0987737035611644	41	systole	8	B	500	systole
586.1785	0.0987737035611644	41	systole	9	B	500	systole
586.8009999999999	0.0987737035611644	41	systole	10	B	500	systole
587.3993	0.0987737035611644	41	systole	11	B	500	systole
588.0117999999998	0.0987737035611644	41	systole	12	B	500	systole
588.6419000000001	0.0987737035611644	41	systole	13	B	500	systole
589.3719999999998	0.0987737035611644	41	systole	14	B	500	systole
590.0715999999998	0.0987737035611644	41	systole	15	B	500	systole
592.4639999999999	0.0867542937630787	42	systole	1	B	500	diastole
593.2197000000001	0.0867542937630787	42	systole	2	B	500	diastole
593.9694	0.0867542937630787	42	systole	3	B	500	diastole
594.6956	0.0867542937630787	42	systole	4	B	500	diastole
595.3829999999998	0.0867542937630787	42	systole	5	B	500	diastole
596.0628999999999	0.0867542937630787	42	systole	6	B	500	diastole
596.7428	0.0867542937630787	42	systole	7	B	500	diastole
597.4225999999999	0.0867542937630787	42	systole	8	B	500	diastole
598.0626000000002	0.0867542937630787	42	systole	9	B	500	diastole
598.7026000000001	0.0867542937630787	42	systole	10	B	500	diastole
599.3298	0.0867542937630787	42	systole	11	B	500	diastole
600.0695000000001	0.0867542937630787	42	systole	12	B	500	diastole
600.8298	0.0867542937630787	42	systole	13	B	500	diastole
601.5897	0.0867542937630787	42	systole	14	B	500	diastole
602.3497000000002	0.0867542937630787	42	systole	15	B	500	diastole
606.7993000000001	0.0894029390765354	43	diastole	1	B	500	diastole
607.4686999999999	0.0894029390765354	43	diastole	2	B	500	diastole
608.0237999999999	0.0894029390765354	43	diastole	3	B	500	diastole
608.9434000000001	0.0894029390765354	43	diastole	4	B	500	diastole
609.6938999999998	0.0894029390765354	43	diastole	5	B	500	diastole
610.4443999999999	0.0894029390765354	43	diastole	6	B	500	diastole
611.2039	0.0894029390765354	43	diastole	7	B	500	diastole
611.9459000000002	0.0894029390765354	43	diastole	8	B	500	diastole
612.6911	0.0894029390765354	43	diastole	9	B	500	diastole
613.3778000000002	0.0894029390765354	43	diastole	10	B	500	diastole
614.0479999999998	0.0894029390765354	43	diastole	11	B	500	diastole
614.6880000000001	0.0894029390765354	43	diastole	12	B	500	diastole
615.3081000000002	0.0894029390765354	43	diastole	13	B	500	diastole
615.8894	0.0894029390765354	43	diastole	14	B	500	diastole
619.4991	0.0850095563801005	44	diastole	1	B	500	systole
620.1592	0.0850095563801005	44	diastole	2	B	500	systole
620.8191000000002	0.0850095563801005	44	diastole	3	B	500	systole
621.4591	0.0850095563801005	44	diastole	4	B	500	systole
622.0990999999999	0.0850095563801005	44	diastole	5	B	500	systole
622.7291	0.0850095563801005	44	diastole	6	B	500	systole
623.3242	0.0850095563801005	44	diastole	7	B	500	systole
623.9007000000001	0.0850095563801005	44	diastole	8	B	500	systole
624.3757999999998	0.0850095563801005	44	diastole	9	B	500	systole
624.8759	0.0850095563801005	44	diastole	10	B	500	systole
625.3759	0.0850095563801005	44	diastole	11	B	500	systole
625.9591999999998	0.0850095563801005	44	diastole	12	B	500	systole
626.5711000000001	0.0850095563801005	44	diastole	13	B	500	systole
627.2311	0.0850095563801005	44	diastole	14	B	500	systole
627.9411	0.0850095563801005	44	diastole	15	B	500	systole
628.6309999999999	0.0850095563801005	44	diastole	16	B	500	systole
629.3643000000002	0.0850095563801005	44	diastole	17	B	500	systole
633.0241999999998	0.083748712495435	45	diastole	1	B	500	diastole
633.6442999999999	0.083748712495435	45	diastole	2	B	500	diastole
634.2644	0.083748712495435	45	diastole	3	B	500	diastole
634.8510999999999	0.083748712495435	45	diastole	4	B	500	diastole
635.4827999999998	0.083748712495435	45	diastole	5	B	500	diastole
636.1228000000001	0.083748712495435	45	diastole	6	B	500	diastole
636.7626999999998	0.083748712495435	45	diastole	7	B	500	diastole
637.4346	0.083748712495435	45	diastole	8	B	500	diastole
638.1046000000001	0.083748712495435	45	diastole	9	B	500	diastole
638.7746999999999	0.083748712495435	45	diastole	10	B	500	diastole
639.4425999999999	0.083748712495435	45	diastole	11	B	500	diastole
640.1293000000001	0.083748712495435	45	diastole	12	B	500	diastole
640.886	0.083748712495435	45	diastole	13	B	500	diastole
641.6945000000001	0.083748712495435	45	diastole	14	B	500	diastole
645.8391000000001	0.0912512873765081	46	systole	1	B	500	systole
646.4791	0.0912512873765081	46	systole	2	B	500	systole
647.0990999999999	0.0912512873765081	46	systole	3	B	500	systole
647.5940999999998	0.0912512873765081	46	systole	4	B	500	systole
648.2190999999998	0.0912512873765081	46	systole	5	B	500	systole
648.7973999999999	0.0912512873765081	46	systole	6	B	500	systole
649.4159	0.0912512873765081	46	systole	7	B	500	systole
650.2258999999999	0.0912512873765081	46	systole	8	B	500	systole
651.0057999999999	0.0912512873765081	46	systole	9	B	500	systole
651.7856999999999	0.0912512873765081	46	systole	10	B	500	systole
652.5655999999999	0.0912512873765081	46	systole	11	B	500	systole
653.3454999999999	0.0912512873765081	46	systole	12	B	500	systole
654.1855	0.0912512873765081	46	systole	13	B	500	systole
654.9180999999999	0.0912512873765081	46	systole	14	B	500	systole
657.9353000000001	0.0856268386123701	47	systole	1	B	500	diastole
658.5254	0.0856268386123701	47	systole	2	B	500	diastole
659.2051999999999	0.0856268386123701	47	systole	3	B	500	diastole
659.6093999999998	0.0856268386123701	47	systole	4	B	500	diastole
660.0194999999999	0.0856268386123701	47	systole	5	B	500	diastole
660.5841999999998	0.0856268386123701	47	systole	6	B	500	diastole
661.1837999999998	0.0856268386123701	47	systole	7	B	500	diastole
661.7368999999999	0.0856268386123701	47	systole	8	B	500	diastole
662.3368999999998	0.0856268386123701	47	systole	9	B	500	diastole
662.9092999999998	0.0856268386123701	47	systole	10	B	500	diastole
663.4964	0.0856268386123701	47	systole	11	B	500	diastole
664.2103999999999	0.0856268386123701	47	systole	12	B	500	diastole
664.9187000000002	0.0856268386123701	47	systole	13	B	500	diastole
665.7986999999998	0.0856268386123701	47	systole	14	B	500	diastole
666.6788000000001	0.0856268386123701	47	systole	15	B	500	diastole
667.2584000000002	0.0856268386123701	47	systole	16	B	500	diastole
671.3290999999999	0.0931255092145875	48	diastole	1	B	500	diastole
671.9692	0.0931255092145875	48	diastole	2	B	500	diastole
672.5140999999999	0.0931255092145875	48	diastole	3	B	500	diastole
673.134	0.0931255092145875	48	diastole	4	B	500	diastole
673.8624	0.0931255092145875	48	diastole	5	B	500	diastole
674.5908	0.0931255092145875	48	diastole	6	B	500	diastole
675.3908000000001	0.0931255092145875	48	diastole	7	B	500	diastole
676.1907999999999	0.0931255092145875	48	diastole	8	B	500	diastole
676.9908	0.0931255092145875	48	diastole	9	B	500	diastole
677.7148000000002	0.0931255092145875	48	diastole	10	B	500	diastole
678.3849	0.0931255092145875	48	diastole	11	B	500	diastole
679.0549999999998	0.0931255092145875	48	diastole	12	B	500	diastole
679.7249999999999	0.0931255092145875	48	diastole	13	B	500	diastole
683.1048999999998	0.0918610513908788	49	systole	1	B	500	systole
683.8447999999999	0.0918610513908788	49	systole	2	B	500	systole
684.5374000000002	0.0918610513908788	49	systole	3	B	500	systole
685.2073999999998	0.0918610513908788	49	systole	4	B	500	systole
685.8775	0.0918610513908788	49	systole	5	B	500	systole
686.5475999999999	0.0918610513908788	49	systole	6	B	500	systole
687.2076000000002	0.0918610513908788	49	systole	7	B	500	systole
687.8377	0.0918610513908788	49	systole	8	B	500	systole
688.4443999999999	0.0918610513908788	49	systole	9	B	500	systole
689.0958999999998	0.0918610513908788	49	systole	10	B	500	systole
689.7764000000002	0.0918610513908788	49	systole	11	B	500	systole
690.5358000000001	0.0918610513908788	49	systole	12	B	500	systole
691.2757999999999	0.0918610513908788	49	systole	13	B	500	systole
692.0158000000001	0.0918610513908788	49	systole	14	B	500	systole
692.6947999999998	0.0918610513908788	49	systole	15	B	500	systole
695.7646	0.0862918879720382	50	diastole	1	B	500	systole
696.4382	0.0862918879720382	50	diastole	2	B	500	systole
697.1282999999999	0.0862918879720382	50	diastole	3	B	500	systole
697.8546000000001	0.0862918879720382	50	diastole	4	B	500	systole
698.5628000000002	0.0862918879720382	50	diastole	5	B	500	systole
699.2343999999998	0.0862918879720382	50	diastole	6	B	500	systole
699.9061000000002	0.0862918879720382	50	diastole	7	B	500	systole
700.3944999999999	0.0862918879720382	50	diastole	8	B	500	systole
701.1529999999998	0.0862918879720382	50	diastole	9	B	500	systole
701.7842	0.0862918879720382	50	diastole	10	B	500	systole
702.3978999999999	0.0862918879720382	50	diastole	11	B	500	systole
702.991	0.0862918879720382	50	diastole	12	B	500	systole
703.6410000000001	0.0862918879720382	50	diastole	13	B	500	systole
704.2546000000002	0.0862918879720382	50	diastole	14	B	500	systole
707.0376999999999	0.0787777561927214	51	diastole	1	B	500	diastole
707.6675	0.0787777561927214	51	diastole	2	B	500	diastole
708.3676	0.0787777561927214	51	diastole	3	B	500	diastole
709.0675999999999	0.0787777561927214	51	diastole	4	B	500	diastole
710.1275999999998	0.0787777561927214	51	diastole	5	B	500	diastole
710.9376000000002	0.0787777561927214	51	diastole	6	B	500	diastole
711.8076999999998	0.0787777561927214	51	diastole	7	B	500	diastole
712.6527000000001	0.0787777561927214	51	diastole	8	B	500	diastole
713.4625000000001	0.0787777561927214	51	diastole	9	B	500	diastole
714.2224999999999	0.0787777561927214	51	diastole	10	B	500	diastole
714.9721	0.0787777561927214	51	diastole	11	B	500	diastole
715.7217999999998	0.0787777561927214	51	diastole	12	B	500	diastole
716.4825999999998	0.0787777561927214	51	diastole	13	B	500	diastole
719.0214999999998	0.0937330250162631	52	systole	1	B	500	systole
719.5967	0.0937330250162631	52	systole	2	B	500	systole
720.1765999999998	0.0937330250162631	52	systole	3	B	500	systole
720.8960000000002	0.0937330250162631	52	systole	4	B	500	systole
721.5385999999999	0.0937330250162631	52	systole	5	B	500	systole
722.1986000000002	0.0937330250162631	52	systole	6	B	500	systole
722.9784	0.0937330250162631	52	systole	7	B	500	systole
723.7984999999999	0.0937330250162631	52	systole	8	B	500	systole
724.6185999999998	0.0937330250162631	52	systole	9	B	500	systole
725.3784999999998	0.0937330250162631	52	systole	10	B	500	systole
726.0875000000001	0.0937330250162631	52	systole	11	B	500	systole
726.7975000000001	0.0937330250162631	52	systole	12	B	500	systole
727.5077000000001	0.0937330250162631	52	systole	13	B	500	systole
728.1977000000002	0.0937330250162631	52	systole	14	B	500	systole
731.2242999999999	0.0875025786808691	53	diastole	1	B	500	diastole
731.9944999999998	0.0875025786808691	53	diastole	2	B	500	diastole
732.8161	0.0875025786808691	53	diastole	3	B	500	diastole
733.5958999999998	0.0875025786808691	53	diastole	4	B	500	diastole
734.4875000000002	0.0875025786808691	53	diastole	5	B	500	diastole
735.3422	0.0875025786808691	53	diastole	6	B	500	diastole
736.2208	0.0875025786808691	53	diastole	7	B	500	diastole
737.049	0.0875025786808691	53	diastole	8	B	500	diastole
737.9254999999998	0.0875025786808691	53	diastole	9	B	500	diastole
738.7354	0.0875025786808691	53	diastole	10	B	500	diastole
739.3157000000001	0.0875025786808691	53	diastole	11	B	500	diastole
740.1819999999998	0.0875025786808691	53	diastole	12	B	500	diastole
742.9492999999998	0.0837486250093206	54	systole	1	B	500	systole
743.8393999999998	0.0837486250093206	54	systole	2	B	500	systole
744.6878000000002	0.0837486250093206	54	systole	3	B	500	systole
745.5270999999998	0.0837486250093206	54	systole	4	B	500	systole
746.337	0.0837486250093206	54	systole	5	B	500	systole
747.1480000000001	0.0837486250093206	54	systole	6	B	500	systole
747.9344000000001	0.0837486250093206	54	systole	7	B	500	systole
748.6745000000001	0.0837486250093206	54	systole	8	B	500	systole
749.4146000000001	0.0837486250093206	54	systole	9	B	500	systole
750.1046000000001	0.0837486250093206	54	systole	10	B	500	systole
750.7847000000002	0.0837486250093206	54	systole	11	B	500	systole
751.4672999999998	0.0837486250093206	54	systole	12	B	500	systole
752.2374	0.0837486250093206	54	systole	13	B	500	systole
756.1358	0.0906249210238456	55	diastole	1	B	500	systole
756.8957	0.0906249210238456	55	diastole	2	B	500	systole
757.6790000000001	0.0906249210238456	55	diastole	3	B	500	systole
758.3890999999999	0.0906249210238456	55	diastole	4	B	500	systole
759.0990999999999	0.0906249210238456	55	diastole	5	B	500	systole
759.7792	0.0906249210238456	55	diastole	6	B	500	systole
760.4225000000001	0.0906249210238456	55	diastole	7	B	500	systole
761.0574999999999	0.0906249210238456	55	diastole	8	B	500	systole
761.7174	0.0906249210238456	55	diastole	9	B	500	systole
762.4474999999998	0.0906249210238456	55	diastole	10	B	500	systole
763.1776	0.0906249210238456	55	diastole	11	B	500	systole
763.9975	0.0906249210238456	55	diastole	12	B	500	systole
764.7975999999999	0.0906249210238456	55	diastole	13	B	500	systole
768.0326	0.1012557192007079	56	systole	1	B	500	systole
768.8024999999998	0.1012557192007079	56	systole	2	B	500	systole
769.5322000000001	0.1012557192007079	56	systole	3	B	500	systole
770.2105000000001	0.1012557192007079	56	systole	4	B	500	systole
770.9005000000002	0.1012557192007079	56	systole	5	B	500	systole
771.5904999999998	0.1012557192007079	56	systole	6	B	500	systole
772.2530000000002	0.1012557192007079	56	systole	7	B	500	systole
772.8980999999999	0.1012557192007079	56	systole	8	B	500	systole
773.6363999999999	0.1012557192007079	56	systole	9	B	500	systole
774.4166	0.1012557192007079	56	systole	10	B	500	systole
775.3164999999999	0.1012557192007079	56	systole	11	B	500	systole
776.1480999999999	0.1012557192007079	56	systole	12	B	500	systole
776.9798000000001	0.1012557192007079	56	systole	13	B	500	systole
777.8629000000001	0.1012557192007079	56	systole	14	B	500	systole
780.7370999999998	0.1017504911287687	57	systole	1	B	500	diastole
781.3008	0.1017504911287687	57	systole	2	B	500	diastole
781.9508000000001	0.1017504911287687	57	systole	3	B	500	diastole
782.6007	0.1017504911287687	57	systole	4	B	500	diastole
783.7406999999998	0.1017504911287687	57	systole	5	B	500	diastole
784.5034999999998	0.1017504911287687	57	systole	6	B	500	diastole
785.3334	0.1017504911287687	57	systole	7	B	500	diastole
786.2093	0.1017504911287687	57	systole	8	B	500	diastole
787.0093000000002	0.1017504911287687	57	systole	9	B	500	diastole
787.7619	0.1017504911287687	57	systole	10	B	500	diastole
788.4816999999998	0.1017504911287687	57	systole	11	B	500	diastole
789.2015000000001	0.1017504911287687	57	systole	12	B	500	diastole
789.9515000000001	0.1017504911287687	57	systole	13	B	500	diastole
793.6477	0.1018746755435131	58	diastole	1	B	500	systole
794.4677000000001	0.1018746755435131	58	diastole	2	B	500	systole
795.2374	0.1018746755435131	58	diastole	3	B	500	systole
796.0072	0.1018746755435131	58	diastole	4	B	500	systole
796.4870999999998	0.1018746755435131	58	diastole	5	B	500	systole
797.1172000000001	0.1018746755435131	58	diastole	6	B	500	systole
797.797	0.1018746755435131	58	diastole	7	B	500	systole
798.3951999999999	0.1018746755435131	58	diastole	8	B	500	systole
798.9920999999999	0.1018746755435131	58	diastole	9	B	500	systole
800.2019999999998	0.1018746755435131	58	diastole	10	B	500	systole
801.4119000000001	0.1018746755435131	58	diastole	11	B	500	systole
802.4119000000001	0.1018746755435131	58	diastole	12	B	500	systole
805.7873	0.1087575686397031	59	diastole	1	B	500	systole
806.6273000000001	0.1087575686397031	59	diastole	2	B	500	systole
807.4272999999998	0.1087575686397031	59	diastole	3	B	500	systole
808.2273	0.1087575686397031	59	diastole	4	B	500	systole
808.9973	0.1087575686397031	59	diastole	5	B	500	systole
809.7055	0.1087575686397031	59	diastole	6	B	500	systole
810.3838000000001	0.1087575686397031	59	diastole	7	B	500	systole
811.0392000000002	0.1087575686397031	59	diastole	8	B	500	systole
811.7692999999999	0.1087575686397031	59	diastole	9	B	500	systole
812.5792000000001	0.1087575686397031	59	diastole	10	B	500	systole
813.7791000000002	0.1087575686397031	59	diastole	11	B	500	systole
814.4738000000002	0.1087575686397031	59	diastole	12	B	500	systole
815.1936000000001	0.1087575686397031	59	diastole	13	B	500	systole
820.1907000000001	0.1012446394888684	60	systole	1	B	500	diastole
820.9106999999999	0.1012446394888684	60	systole	2	B	500	diastole
821.3849999999998	0.1012446394888684	60	systole	3	B	500	diastole
821.935	0.1012446394888684	60	systole	4	B	500	diastole
822.5832	0.1012446394888684	60	systole	5	B	500	diastole
823.2314999999999	0.1012446394888684	60	systole	6	B	500	diastole
823.9672999999998	0.1012446394888684	60	systole	7	B	500	diastole
824.6853000000001	0.1012446394888684	60	systole	8	B	500	diastole
825.2593999999999	0.1012446394888684	60	systole	9	B	500	diastole
825.8393999999998	0.1012446394888684	60	systole	10	B	500	diastole
827.0493999999999	0.1012446394888684	60	systole	11	B	500	diastole
828.2593999999999	0.1012446394888684	60	systole	12	B	500	diastole
829.2294000000002	0.1012446394888684	60	systole	13	B	500	diastole
832.3607999999999	0.1075115812709555	61	systole	1	B	500	systole
833.1109999999999	0.1075115812709555	61	systole	2	B	500	systole
833.8409000000001	0.1075115812709555	61	systole	3	B	500	systole
834.5108999999998	0.1075115812709555	61	systole	4	B	500	systole
835.1041	0.1075115812709555	61	systole	5	B	500	systole
835.7440999999999	0.1075115812709555	61	systole	6	B	500	systole
836.2606999999998	0.1075115812709555	61	systole	7	B	500	systole
836.7615999999998	0.1075115812709555	61	systole	8	B	500	systole
837.3616000000002	0.1075115812709555	61	systole	9	B	500	systole
837.9524999999999	0.1075115812709555	61	systole	10	B	500	systole
838.8523999999998	0.1075115812709555	61	systole	11	B	500	systole
839.9823999999999	0.1075115812709555	61	systole	12	B	500	systole
840.9024	0.1075115812709555	61	systole	13	B	500	systole
841.8222999999998	0.1075115812709555	61	systole	14	B	500	systole
847.7060000000001	0.1161590194678865	62	diastole	1	B	500	diastole
848.4659999999999	0.1161590194678865	62	diastole	2	B	500	diastole
849.2260999999999	0.1161590194678865	62	diastole	3	B	500	diastole
849.9861000000001	0.1161590194678865	62	diastole	4	B	500	diastole
850.7107000000001	0.1161590194678865	62	diastole	5	B	500	diastole
851.3622999999998	0.1161590194678865	62	diastole	6	B	500	diastole
851.9322999999999	0.1161590194678865	62	diastole	7	B	500	diastole
852.5072999999998	0.1161590194678865	62	diastole	8	B	500	diastole
853.0776000000001	0.1161590194678865	62	diastole	9	B	500	diastole
853.6558	0.1161590194678865	62	diastole	10	B	500	diastole
854.3071	0.1161590194678865	62	diastole	11	B	500	diastole
855.0169999999998	0.1161590194678865	62	diastole	12	B	500	diastole
856.1574	0.1161590194678865	62	diastole	13	B	500	diastole
862.5367000000001	0.1087194273131899	63	diastole	1	B	500	systole
863.239	0.1087194273131899	63	diastole	2	B	500	systole
863.9991	0.1087194273131899	63	diastole	3	B	500	systole
864.7592	0.1087194273131899	63	diastole	4	B	500	systole
865.4611	0.1087194273131899	63	diastole	5	B	500	systole
866.1423	0.1087194273131899	63	diastole	6	B	500	systole
866.8443000000002	0.1087194273131899	63	diastole	7	B	500	systole
867.5544	0.1087194273131899	63	diastole	8	B	500	systole
868.2278000000001	0.1087194273131899	63	diastole	9	B	500	systole
868.8809999999999	0.1087194273131899	63	diastole	10	B	500	systole
869.5608000000002	0.1087194273131899	63	diastole	11	B	500	systole
870.3024999999998	0.1087194273131899	63	diastole	12	B	500	systole
871.3308999999999	0.1087194273131899	63	diastole	13	B	500	systole
878.6417000000001	0.1000050161383114	64	systole	1	B	500	systole
879.2716999999998	0.1000050161383114	64	systole	2	B	500	systole
879.9018000000001	0.1000050161383114	64	systole	3	B	500	systole
880.5319	0.1000050161383114	64	systole	4	B	500	systole
881.1307999999999	0.1000050161383114	64	systole	5	B	500	systole
881.7667000000001	0.1000050161383114	64	systole	6	B	500	systole
882.6666	0.1000050161383114	64	systole	7	B	500	systole
883.5464999999999	0.1000050161383114	64	systole	8	B	500	systole
884.4265999999998	0.1000050161383114	64	systole	9	B	500	systole
885.3978999999999	0.1000050161383114	64	systole	10	B	500	systole
886.2581	0.1000050161383114	64	systole	11	B	500	systole
887.2114999999999	0.1000050161383114	64	systole	12	B	500	systole
888.0715	0.1000050161383114	64	systole	13	B	500	systole
895.4605999999999	0.0981202812399715	65	diastole	1	B	500	diastole
896.2206999999999	0.0981202812399715	65	diastole	2	B	500	diastole
896.9809	0.0981202812399715	65	diastole	3	B	500	diastole
897.6956999999998	0.0981202812399715	65	diastole	4	B	500	diastole
898.3571999999999	0.0981202812399715	65	diastole	5	B	500	diastole
899.0171	0.0981202812399715	65	diastole	6	B	500	diastole
899.6768999999999	0.0981202812399715	65	diastole	7	B	500	diastole
900.3269	0.0981202812399715	65	diastole	8	B	500	diastole
900.9769000000001	0.0981202812399715	65	diastole	9	B	500	diastole
901.6269000000002	0.0981202812399715	65	diastole	10	B	500	diastole
902.3238999999999	0.0981202812399715	65	diastole	11	B	500	diastole
903.1039999999998	0.0981202812399715	65	diastole	12	B	500	diastole
903.8544000000002	0.0981202812399715	65	diastole	13	B	500	diastole
904.5693000000001	0.0981202812399715	65	diastole	14	B	500	diastole
908.0891000000001	0.0912519437260925	66	diastole	1	B	500	diastole
908.6523000000002	0.0912519437260925	66	diastole	2	B	500	diastole
909.2321999999999	0.0912519437260925	66	diastole	3	B	500	diastole
910.2222999999999	0.0912519437260925	66	diastole	4	B	500	diastole
911.0522000000001	0.0912519437260925	66	diastole	5	B	500	diastole
911.8822	0.0912519437260925	66	diastole	6	B	500	diastole
912.7121000000002	0.0912519437260925	66	diastole	7	B	500	diastole
913.5155	0.0912519437260925	66	diastole	8	B	500	diastole
914.4088999999999	0.0912519437260925	66	diastole	9	B	500	diastole
915.2188999999998	0.0912519437260925	66	diastole	10	B	500	diastole
916.0956999999999	0.0912519437260925	66	diastole	11	B	500	diastole
920.1887000000002	0.1006119836820289	67	diastole	1	B	500	systole
920.8485999999998	0.1006119836820289	67	diastole	2	B	500	systole
921.5084999999999	0.1006119836820289	67	diastole	3	B	500	systole
922.1167999999998	0.1006119836820289	67	diastole	4	B	500	systole
922.7669999999998	0.1006119836820289	67	diastole	5	B	500	systole
923.3888999999999	0.1006119836820289	67	diastole	6	B	500	systole
924.0574000000001	0.1006119836820289	67	diastole	7	B	500	systole
924.7139000000002	0.1006119836820289	67	diastole	8	B	500	systole
925.3872000000001	0.1006119836820289	67	diastole	9	B	500	systole
926.0772000000002	0.1006119836820289	67	diastole	10	B	500	systole
926.7289000000001	0.1006119836820289	67	diastole	11	B	500	systole
927.3888999999999	0.1006119836820289	67	diastole	12	B	500	systole
928.0288999999998	0.1006119836820289	67	diastole	13	B	500	systole
928.6788999999999	0.1006119836820289	67	diastole	14	B	500	systole
931.9238999999998	0.0837493875296786	68	diastole	1	B	500	diastole
932.6938999999998	0.0837493875296786	68	diastole	2	B	500	diastole
933.5205000000001	0.0837493875296786	68	diastole	3	B	500	diastole
934.3274999999999	0.0837493875296786	68	diastole	4	B	500	diastole
935.0675999999999	0.0837493875296786	68	diastole	5	B	500	diastole
935.5277000000001	0.0837493875296786	68	diastole	6	B	500	diastole
935.9877000000001	0.0837493875296786	68	diastole	7	B	500	diastole
936.6174000000001	0.0837493875296786	68	diastole	8	B	500	diastole
937.2379000000001	0.0837493875296786	68	diastole	9	B	500	diastole
937.8584000000001	0.0837493875296786	68	diastole	10	B	500	diastole
938.2797	0.0837493875296786	68	diastole	11	B	500	diastole
938.8598000000002	0.0837493875296786	68	diastole	12	B	500	diastole
939.44	0.0837493875296786	68	diastole	13	B	500	diastole
939.9899	0.0837493875296786	68	diastole	14	B	500	diastole
940.5895	0.0837493875296786	68	diastole	15	B	500	diastole
943.6451000000002	0.0868712475057691	69	systole	1	B	500	systole
944.5349999999999	0.0868712475057691	69	systole	2	B	500	systole
945.4983000000002	0.0868712475057691	69	systole	3	B	500	systole
946.3683000000001	0.0868712475057691	69	systole	4	B	500	systole
947.2503999999999	0.0868712475057691	69	systole	5	B	500	systole
948.0405999999998	0.0868712475057691	69	systole	6	B	500	systole
948.8307	0.0868712475057691	69	systole	7	B	500	systole
949.6106	0.0868712475057691	69	systole	8	B	500	systole
950.3905	0.0868712475057691	69	systole	9	B	500	systole
951.1605	0.0868712475057691	69	systole	10	B	500	systole
951.8870999999999	0.0868712475057691	69	systole	11	B	500	systole
952.5931999999998	0.0868712475057691	69	systole	12	B	500	systole
955.4319999999998	0.0881171444780193	70	systole	1	B	500	diastole
956.0545000000002	0.0881171444780193	70	systole	2	B	500	diastole
956.6945000000001	0.0881171444780193	70	systole	3	B	500	diastole
957.3227999999999	0.0881171444780193	70	systole	4	B	500	diastole
957.9773	0.0881171444780193	70	systole	5	B	500	diastole
958.6570000000002	0.0881171444780193	70	systole	6	B	500	diastole
959.3368	0.0881171444780193	70	systole	7	B	500	diastole
960.0165000000002	0.0881171444780193	70	systole	8	B	500	diastole
960.8564000000001	0.0881171444780193	70	systole	9	B	500	diastole
961.6981000000001	0.0881171444780193	70	systole	10	B	500	diastole
962.5283	0.0881171444780193	70	systole	11	B	500	diastole
963.4144000000001	0.0881171444780193	70	systole	12	B	500	diastole
964.2244000000001	0.0881171444780193	70	systole	13	B	500	diastole
965.0666999999999	0.0881171444780193	70	systole	14	B	500	diastole
968.4339	0.0949948574416339	71	diastole	1	B	500	systole
969.1271999999999	0.0949948574416339	71	diastole	2	B	500	systole
970.3272000000002	0.0949948574416339	71	diastole	3	B	500	systole
971.5272	0.0949948574416339	71	diastole	4	B	500	systole
972.4371999999998	0.0949948574416339	71	diastole	5	B	500	systole
973.2887999999998	0.0949948574416339	71	diastole	6	B	500	systole
974.1403	0.0949948574416339	71	diastole	7	B	500	systole
975.0826000000002	0.0949948574416339	71	diastole	8	B	500	systole
975.9189000000001	0.0949948574416339	71	diastole	9	B	500	systole
976.6885000000002	0.0949948574416339	71	diastole	10	B	500	systole
977.2984999999999	0.0949948574416339	71	diastole	11	B	500	systole
979.6772999999998	0.0981217749649658	72	systole	1	B	500	diastole
980.3914	0.0981217749649658	72	systole	2	B	500	diastole
981.0855999999999	0.0981217749649658	72	systole	3	B	500	diastole
981.7837	0.0981217749649658	72	systole	4	B	500	diastole
982.4546999999998	0.0981217749649658	72	systole	5	B	500	diastole
983.1547	0.0981217749649658	72	systole	6	B	500	diastole
983.9245000000001	0.0981217749649658	72	systole	7	B	500	diastole
984.6905000000002	0.0981217749649658	72	systole	8	B	500	diastole
985.4504999999999	0.0981217749649658	72	systole	9	B	500	diastole
986.1947	0.0981217749649658	72	systole	10	B	500	diastole
987.0769999999998	0.0981217749649658	72	systole	11	B	500	diastole
987.9769999999999	0.0981217749649658	72	systole	12	B	500	diastole
988.6929	0.0981217749649658	72	systole	13	B	500	diastole
989.4027999999998	0.0981217749649658	72	systole	14	B	500	diastole
992.1749	0.0918768062838353	73	systole	1	B	500	systole
992.9953	0.0918768062838353	73	systole	2	B	500	systole
993.8299000000002	0.0918768062838353	73	systole	3	B	500	systole
994.6297	0.0918768062838353	73	systole	4	B	500	systole
995.3566000000001	0.0918768062838353	73	systole	5	B	500	systole
996.0765999999999	0.0918768062838353	73	systole	6	B	500	systole
996.7466	0.0918768062838353	73	systole	7	B	500	systole
997.4166	0.0918768062838353	73	systole	8	B	500	systole
998.0866000000001	0.0918768062838353	73	systole	9	B	500	systole
998.7548999999999	0.0918768062838353	73	systole	10	B	500	systole
999.4349000000002	0.0918768062838353	73	systole	11	B	500	systole
1000.1853999999998	0.0918768062838353	73	systole	12	B	500	systole
1000.9753999999998	0.0918768062838353	73	systole	13	B	500	systole
1003.9290999999998	0.0912499125115573	74	systole	1	B	500	diastole
1004.6287000000002	0.0912499125115573	74	systole	2	B	500	diastole
1005.3283000000001	0.0912499125115573	74	systole	3	B	500	diastole
1005.9585999999999	0.0912499125115573	74	systole	4	B	500	diastole
1006.5889000000002	0.0912499125115573	74	systole	5	B	500	diastole
1007.3890000000001	0.0912499125115573	74	systole	6	B	500	diastole
1008.0356000000002	0.0912499125115573	74	systole	7	B	500	diastole
1008.6781000000001	0.0912499125115573	74	systole	8	B	500	diastole
1009.3380999999999	0.0912499125115573	74	systole	9	B	500	diastole
1009.9712	0.0912499125115573	74	systole	10	B	500	diastole
1010.5886999999998	0.0912499125115573	74	systole	11	B	500	diastole
1011.2229000000002	0.0912499125115573	74	systole	12	B	500	diastole
1011.8516	0.0912499125115573	74	systole	13	B	500	diastole
1012.4702000000002	0.0912499125115573	74	systole	14	B	500	diastole
1013.0999999999999	0.0912499125115573	74	systole	15	B	500	diastole
1015.2377000000001	0.0787796785589307	75	diastole	1	B	500	systole
1015.8676999999998	0.0787796785589307	75	diastole	2	B	500	systole
1016.5376999999999	0.0787796785589307	75	diastole	3	B	500	systole
1017.2076999999999	0.0787796785589307	75	diastole	4	B	500	systole
1017.8553000000002	0.0787796785589307	75	diastole	5	B	500	systole
1018.4949999999999	0.0787796785589307	75	diastole	6	B	500	systole
1019.1428000000001	0.0787796785589307	75	diastole	7	B	500	systole
1019.7631000000001	0.0787796785589307	75	diastole	8	B	500	systole
1020.3631999999998	0.0787796785589307	75	diastole	9	B	500	systole
1020.9629	0.0787796785589307	75	diastole	10	B	500	systole
1021.5772000000002	0.0787796785589307	75	diastole	11	B	500	systole
1022.2968999999998	0.0787796785589307	75	diastole	12	B	500	systole
1023.0754000000002	0.0787796785589307	75	diastole	13	B	500	systole
1023.9549999999999	0.0787796785589307	75	diastole	14	B	500	systole
1024.7456000000002	0.0787796785589307	75	diastole	15	B	500	systole
1027.9510999999998	0.0955222669872455	76	diastole	1	B	500	systole
1028.6509	0.0955222669872455	76	diastole	2	B	500	systole
1029.3508000000002	0.0955222669872455	76	diastole	3	B	500	systole
1030.0506999999998	0.0955222669872455	76	diastole	4	B	500	systole
1030.7507	0.0955222669872455	76	diastole	5	B	500	systole
1031.1010999999999	0.0955222669872455	76	diastole	6	B	500	systole
1031.7442999999998	0.0955222669872455	76	diastole	7	B	500	systole
1032.4044	0.0955222669872455	76	diastole	8	B	500	systole
1033.094	0.0955222669872455	76	diastole	9	B	500	systole
1033.8440999999998	0.0955222669872455	76	diastole	10	B	500	systole
1034.6443	0.0955222669872455	76	diastole	11	B	500	systole
1035.4243999999999	0.0955222669872455	76	diastole	12	B	500	systole
1036.161	0.0955222669872455	76	diastole	13	B	500	systole
1039.7572999999998	0.0900024434085935	77	diastole	1	B	500	systole
1040.4306000000001	0.0900024434085935	77	diastole	2	B	500	systole
1041.1206000000002	0.0900024434085935	77	diastole	3	B	500	systole
1041.7851999999998	0.0900024434085935	77	diastole	4	B	500	systole
1042.4573	0.0900024434085935	77	diastole	5	B	500	systole
1043.1378	0.0900024434085935	77	diastole	6	B	500	systole
1043.7974	0.0900024434085935	77	diastole	7	B	500	systole
1044.4573999999998	0.0900024434085935	77	diastole	8	B	500	systole
1045.1174	0.0900024434085935	77	diastole	9	B	500	systole
1045.7028999999998	0.0900024434085935	77	diastole	10	B	500	systole
1046.2811000000002	0.0900024434085935	77	diastole	11	B	500	systole
1046.9009999999998	0.0900024434085935	77	diastole	12	B	500	systole
1047.4776000000002	0.0900024434085935	77	diastole	13	B	500	systole
1048.0443	0.0900024434085935	77	diastole	14	B	500	systole
1051.1072	0.0756280898349359	78	systole	1	B	500	systole
1051.647	0.0756280898349359	78	systole	2	B	500	systole
1052.3171000000002	0.0756280898349359	78	systole	3	B	500	systole
1052.7489	0.0756280898349359	78	systole	4	B	500	systole
1053.1808	0.0756280898349359	78	systole	5	B	500	systole
1053.7087999999999	0.0756280898349359	78	systole	6	B	500	systole
1054.2988999999998	0.0756280898349359	78	systole	7	B	500	systole
1054.8889	0.0756280898349359	78	systole	8	B	500	systole
1055.4672	0.0756280898349359	78	systole	9	B	500	systole
1056.0773	0.0756280898349359	78	systole	10	B	500	systole
1056.6873	0.0756280898349359	78	systole	11	B	500	systole
1057.3773999999999	0.0756280898349359	78	systole	12	B	500	systole
1058.4032000000002	0.0756280898349359	78	systole	13	B	500	systole
1059.2133	0.0756280898349359	78	systole	14	B	500	systole
1060.0234999999998	0.0756280898349359	78	systole	15	B	500	systole
1062.9733999999999	0.0981465064105577	79	systole	1	B	500	systole
1063.6435999999999	0.0981465064105577	79	systole	2	B	500	systole
1064.3138	0.0981465064105577	79	systole	3	B	500	systole
1065.1736999999998	0.0981465064105577	79	systole	4	B	500	systole
1066.2992	0.0981465064105577	79	systole	5	B	500	systole
1067.1691999999998	0.0981465064105577	79	systole	6	B	500	systole
1068.0392000000002	0.0981465064105577	79	systole	7	B	500	systole
1068.9092999999998	0.0981465064105577	79	systole	8	B	500	systole
1069.6817	0.0981465064105577	79	systole	9	B	500	systole
1070.4058	0.0981465064105577	79	systole	10	B	500	systole
1071.0857	0.0981465064105577	79	systole	11	B	500	systole
1071.7656000000002	0.0981465064105577	79	systole	12	B	500	systole
1075.274	0.096878053213004	80	diastole	1	B	500	diastole
1076.0557	0.096878053213004	80	diastole	2	B	500	diastole
1076.8374	0.096878053213004	80	diastole	3	B	500	diastole
1077.5531	0.096878053213004	80	diastole	4	B	500	diastole
1078.2811000000002	0.096878053213004	80	diastole	5	B	500	diastole
1078.9811	0.096878053213004	80	diastole	6	B	500	diastole
1079.6810999999998	0.096878053213004	80	diastole	7	B	500	diastole
1080.3608	0.096878053213004	80	diastole	8	B	500	diastole
1081.0041	0.096878053213004	80	diastole	9	B	500	diastole
1081.6644000000001	0.096878053213004	80	diastole	10	B	500	diastole
1082.2666	0.096878053213004	80	diastole	11	B	500	diastole
1082.8822999999998	0.096878053213004	80	diastole	12	B	500	diastole
1083.4892	0.096878053213004	80	diastole	13	B	500	diastole
1086.1370000000002	0.0825016724411398	81	diastole	1	B	500	systole
1086.8469	0.0825016724411398	81	diastole	2	B	500	systole
1087.5569	0.0825016724411398	81	diastole	3	B	500	systole
1088.2669	0.0825016724411398	81	diastole	4	B	500	systole
1089.0720000000001	0.0825016724411398	81	diastole	5	B	500	systole
1089.7321000000002	0.0825016724411398	81	diastole	6	B	500	systole
1090.4104000000002	0.0825016724411398	81	diastole	7	B	500	systole
1091.0603999999998	0.0825016724411398	81	diastole	8	B	500	systole
1091.7003	0.0825016724411398	81	diastole	9	B	500	systole
1092.2854000000002	0.0825016724411398	81	diastole	10	B	500	systole
1092.9006	0.0825016724411398	81	diastole	11	B	500	systole
1093.5691000000002	0.0825016724411398	81	diastole	12	B	500	systole
1094.4944	0.0825016724411398	81	diastole	13	B	500	systole
1095.4044	0.0825016724411398	81	diastole	14	B	500	systole
1098.1571	0.0937481086002662	82	diastole	1	B	500	systole
1098.6170000000002	0.0937481086002662	82	diastole	2	B	500	systole
1099.2572	0.0937481086002662	82	diastole	3	B	500	systole
1099.8870000000002	0.0937481086002662	82	diastole	4	B	500	systole
1100.5169	0.0937481086002662	82	diastole	5	B	500	systole
1101.1102	0.0937481086002662	82	diastole	6	B	500	systole
1101.8201	0.0937481086002662	82	diastole	7	B	500	systole
1102.5701	0.0937481086002662	82	diastole	8	B	500	systole
1102.9719	0.0937481086002662	82	diastole	9	B	500	systole
1103.4319	0.0937481086002662	82	diastole	10	B	500	systole
1104.2401	0.0937481086002662	82	diastole	11	B	500	systole
1105.0418	0.0937481086002662	82	diastole	12	B	500	systole
1105.8220999999999	0.0937481086002662	82	diastole	13	B	500	systole
1106.6653999999999	0.0937481086002662	82	diastole	14	B	500	systole
1107.4753999999998	0.0937481086002662	82	diastole	15	B	500	systole
1110.8024999999998	0.0969802602194249	83	systole	1	B	500	systole
1111.5124999999998	0.0969802602194249	83	systole	2	B	500	systole
1112.1333	0.0969802602194249	83	systole	3	B	500	systole
1112.7833	0.0969802602194249	83	systole	4	B	500	systole
1113.4214000000002	0.0969802602194249	83	systole	5	B	500	systole
1114.049	0.0969802602194249	83	systole	6	B	500	systole
1114.7040000000002	0.0969802602194249	83	systole	7	B	500	systole
1115.6338	0.0969802602194249	83	systole	8	B	500	systole
1116.4839000000002	0.0969802602194249	83	systole	9	B	500	systole
1117.3138	0.0969802602194249	83	systole	10	B	500	systole
1118.1154999999999	0.0969802602194249	83	systole	11	B	500	systole
1118.8847	0.0969802602194249	83	systole	12	B	500	systole
1119.6246999999998	0.0969802602194249	83	systole	13	B	500	systole
1122.3296	0.0956245790002867	84	systole	1	B	500	systole
1122.9472	0.0956245790002867	84	systole	2	B	500	systole
1123.6172000000001	0.0956245790002867	84	systole	3	B	500	systole
1124.2322	0.0956245790002867	84	systole	4	B	500	systole
1124.8645999999999	0.0956245790002867	84	systole	5	B	500	systole
1125.5144999999998	0.0956245790002867	84	systole	6	B	500	systole
1126.1644000000001	0.0956245790002867	84	systole	7	B	500	systole
1126.7552999999998	0.0956245790002867	84	systole	8	B	500	systole
1127.3755999999998	0.0956245790002867	84	systole	9	B	500	systole
1128.0351	0.0956245790002867	84	systole	10	B	500	systole
1128.6945999999998	0.0956245790002867	84	systole	11	B	500	systole
1129.3951000000002	0.0956245790002867	84	systole	12	B	500	systole
1130.1666	0.0956245790002867	84	systole	13	B	500	systole
1130.9422	0.0956245790002867	84	systole	14	B	500	systole
1131.7122	0.0956245790002867	84	systole	15	B	500	systole
1136.2151	0.0925129071110859	85	systole	1	B	500	systole
1136.9546999999998	0.0925129071110859	85	systole	2	B	500	systole
1137.6945999999998	0.0925129071110859	85	systole	3	B	500	systole
1138.4344999999998	0.0925129071110859	85	systole	4	B	500	systole
1139.0929999999998	0.0925129071110859	85	systole	5	B	500	systole
1139.7631000000001	0.0925129071110859	85	systole	6	B	500	systole
1140.4326	0.0925129071110859	85	systole	7	B	500	systole
1140.9429	0.0925129071110859	85	systole	8	B	500	systole
1141.4532	0.0925129071110859	85	systole	9	B	500	systole
1142.4132	0.0925129071110859	85	systole	10	B	500	systole
1143.1848	0.0925129071110859	85	systole	11	B	500	systole
1143.9564999999998	0.0925129071110859	85	systole	12	B	500	systole
1144.9549000000002	0.0925129071110859	85	systole	13	B	500	systole
1150.2586000000001	0.1019020750536583	86	diastole	1	B	500	systole
1150.8971000000001	0.1019020750536583	86	diastole	2	B	500	systole
1151.5371	0.1019020750536583	86	diastole	3	B	500	systole
1152.1068999999998	0.1019020750536583	86	diastole	4	B	500	systole
1152.6144	0.1019020750536583	86	diastole	5	B	500	systole
1153.2547	0.1019020750536583	86	diastole	6	B	500	systole
1153.8111	0.1019020750536583	86	diastole	7	B	500	systole
1154.2446	0.1019020750536583	86	diastole	8	B	500	systole
1155.1846	0.1019020750536583	86	diastole	9	B	500	systole
1155.9445	0.1019020750536583	86	diastole	10	B	500	systole
1156.8144000000002	0.1019020750536583	86	diastole	11	B	500	systole
1157.6843	0.1019020750536583	86	diastole	12	B	500	systole
1158.7352999999998	0.1019020750536583	86	diastole	13	B	500	systole
1161.9396000000002	0.1031299488968215	87	systole	1	B	500	diastole
1162.7296999999999	0.1031299488968215	87	systole	2	B	500	diastole
1163.4778999999999	0.1031299488968215	87	systole	3	B	500	diastole
1164.2377999999999	0.1031299488968215	87	systole	4	B	500	diastole
1164.7519000000002	0.1031299488968215	87	systole	5	B	500	diastole
1165.5203999999999	0.1031299488968215	87	systole	6	B	500	diastole
1166.1430999999998	0.1031299488968215	87	systole	7	B	500	diastole
1166.7813	0.1031299488968215	87	systole	8	B	500	diastole
1167.4497000000001	0.1031299488968215	87	systole	9	B	500	diastole
1168.2361999999998	0.1031299488968215	87	systole	10	B	500	diastole
1169.0362	0.1031299488968215	87	systole	11	B	500	diastole
1169.8362000000002	0.1031299488968215	87	systole	12	B	500	diastole
1170.6163000000001	0.1031299488968215	87	systole	13	B	500	diastole
1173.5223	0.0981345562613569	88	diastole	1	B	500	diastole
1174.3622999999998	0.0981345562613569	88	diastole	2	B	500	diastole
1175.1688	0.0981345562613569	88	diastole	3	B	500	diastole
1175.9488000000001	0.0981345562613569	88	diastole	4	B	500	diastole
1176.7287999999999	0.0981345562613569	88	diastole	5	B	500	diastole
1177.4423000000002	0.0981345562613569	88	diastole	6	B	500	diastole
1178.1041999999998	0.0981345562613569	88	diastole	7	B	500	diastole
1178.7743	0.0981345562613569	88	diastole	8	B	500	diastole
1179.4443999999999	0.0981345562613569	88	diastole	9	B	500	diastole
1180.0558999999998	0.0981345562613569	88	diastole	10	B	500	diastole
1180.6044000000002	0.0981345562613569	88	diastole	11	B	500	diastole
1181.3644	0.0981345562613569	88	diastole	12	B	500	diastole
1181.9841000000001	0.0981345562613569	88	diastole	13	B	500	diastole
1182.6441	0.0981345562613569	88	diastole	14	B	500	diastole
1186.1707999999999	0.0837475032312795	89	systole	1	B	500	diastole
1186.9107	0.0837475032312795	89	systole	2	B	500	diastole
1187.6421999999998	0.0837475032312795	89	systole	3	B	500	diastole
1188.3622	0.0837475032312795	89	systole	4	B	500	diastole
1189.1172000000001	0.0837475032312795	89	systole	5	B	500	diastole
1189.8372	0.0837475032312795	89	systole	6	B	500	diastole
1190.5573	0.0837475032312795	89	systole	7	B	500	diastole
1191.2671999999998	0.0837475032312795	89	systole	8	B	500	diastole
1191.9771999999998	0.0837475032312795	89	systole	9	B	500	diastole
1192.6489000000001	0.0837475032312795	89	systole	10	B	500	diastole
1193.3172	0.0837475032312795	89	systole	11	B	500	diastole
1193.9472999999998	0.0837475032312795	89	systole	12	B	500	diastole
1194.5713	0.0837475032312795	89	systole	13	B	500	diastole
1195.159	0.0837475032312795	89	systole	14	B	500	diastole
1195.7992	0.0837475032312795	89	systole	15	B	500	diastole
1201.8019	0.0993515437585301	90	diastole	1	B	500	systole
1202.5021000000002	0.0993515437585301	90	diastole	2	B	500	systole
1203.2022000000002	0.0993515437585301	90	diastole	3	B	500	systole
1203.8921	0.0993515437585301	90	diastole	4	B	500	systole
1204.5517	0.0993515437585301	90	diastole	5	B	500	systole
1205.1594	0.0993515437585301	90	diastole	6	B	500	systole
1205.7345	0.0993515437585301	90	diastole	7	B	500	systole
1206.3254000000002	0.0993515437585301	90	diastole	8	B	500	systole
1206.9083999999998	0.0993515437585301	90	diastole	9	B	500	systole
1207.558	0.0993515437585301	90	diastole	10	B	500	systole
1208.2077	0.0993515437585301	90	diastole	11	B	500	systole
1208.9404	0.0993515437585301	90	diastole	12	B	500	systole
1209.6808	0.0993515437585301	90	diastole	13	B	500	systole
1210.3200000000002	0.0993515437585301	90	diastole	14	B	500	systole
1213.6878000000002	0.0856250394135713	91	systole	1	B	500	systole
1214.3878	0.0856250394135713	91	systole	2	B	500	systole
1215.0877	0.0856250394135713	91	systole	3	B	500	systole
1215.8353000000002	0.0856250394135713	91	systole	4	B	500	systole
1216.6828	0.0856250394135713	91	systole	5	B	500	systole
1217.4587999999999	0.0856250394135713	91	systole	6	B	500	systole
1218.2289	0.0856250394135713	91	systole	7	B	500	systole
1219.0063	0.0856250394135713	91	systole	8	B	500	systole
1219.6828999999998	0.0856250394135713	91	systole	9	B	500	systole
1220.3829	0.0856250394135713	91	systole	10	B	500	systole
1221.0470999999998	0.0856250394135713	91	systole	11	B	500	systole
1221.7069999999999	0.0856250394135713	91	systole	12	B	500	systole
1222.3452000000002	0.0856250394135713	91	systole	13	B	500	systole
1222.9951999999998	0.0856250394135713	91	systole	14	B	500	systole
1228.8464	0.0918780876672826	92	systole	1	B	500	diastole
1229.6662000000001	0.0918780876672826	92	systole	2	B	500	diastole
1230.3263000000002	0.0918780876672826	92	systole	3	B	500	diastole
1230.9645999999998	0.0918780876672826	92	systole	4	B	500	diastole
1231.6145000000001	0.0918780876672826	92	systole	5	B	500	diastole
1232.2644999999998	0.0918780876672826	92	systole	6	B	500	diastole
1232.9811	0.0918780876672826	92	systole	7	B	500	diastole
1233.7312000000002	0.0918780876672826	92	systole	8	B	500	diastole
1234.4813	0.0918780876672826	92	systole	9	B	500	diastole
1235.2413999999999	0.0918780876672826	92	systole	10	B	500	diastole
1236.0365000000002	0.0918780876672826	92	systole	11	B	500	diastole
1236.7965	0.0918780876672826	92	systole	12	B	500	diastole
1237.5564	0.0918780876672826	92	systole	13	B	500	diastole
1238.3163	0.0918780876672826	92	systole	14	B	500	diastole
1240.828	0.0900128026260063	93	systole	1	B	500	diastole
1241.498	0.0900128026260063	93	systole	2	B	500	diastole
1242.0762	0.0900128026260063	93	systole	3	B	500	diastole
1242.6662000000001	0.0900128026260063	93	systole	4	B	500	diastole
1243.4478	0.0900128026260063	93	systole	5	B	500	diastole
1244.1102999999998	0.0900128026260063	93	systole	6	B	500	diastole
1244.7543999999998	0.0900128026260063	93	systole	7	B	500	diastole
1245.4045	0.0900128026260063	93	systole	8	B	500	diastole
1246.0286	0.0900128026260063	93	systole	9	B	500	diastole
1246.6358999999998	0.0900128026260063	93	systole	10	B	500	diastole
1247.2559	0.0900128026260063	93	systole	11	B	500	diastole
1248.0693999999999	0.0900128026260063	93	systole	12	B	500	diastole
1248.8993	0.0900128026260063	93	systole	13	B	500	diastole
1249.6857	0.0900128026260063	93	systole	14	B	500	diastole
1253.8687	0.093126235762611	94	diastole	1	B	500	systole
1254.6089000000002	0.093126235762611	94	diastole	2	B	500	systole
1255.3491	0.093126235762611	94	diastole	3	B	500	systole
1256.0892	0.093126235762611	94	diastole	4	B	500	systole
1256.5409	0.093126235762611	94	diastole	5	B	500	systole
1257.2426	0.093126235762611	94	diastole	6	B	500	systole
1257.9456999999998	0.093126235762611	94	diastole	7	B	500	systole
1258.6655999999998	0.093126235762611	94	diastole	8	B	500	systole
1259.3573000000001	0.093126235762611	94	diastole	9	B	500	systole
1260.0373	0.093126235762611	94	diastole	10	B	500	systole
1260.609	0.093126235762611	94	diastole	11	B	500	systole
1261.4189999999999	0.093126235762611	94	diastole	12	B	500	systole
1262.1209	0.093126235762611	94	diastole	13	B	500	systole
1265.8193999999999	0.095619493687991	95	systole	1	B	500	diastole
1266.6592999999998	0.095619493687991	95	systole	2	B	500	diastole
1267.5010000000002	0.095619493687991	95	systole	3	B	500	diastole
1268.3310000000001	0.095619493687991	95	systole	4	B	500	diastole
1269.0711999999999	0.095619493687991	95	systole	5	B	500	diastole
1269.781	0.095619493687991	95	systole	6	B	500	diastole
1270.4694	0.095619493687991	95	systole	7	B	500	diastole
1271.1693	0.095619493687991	95	systole	8	B	500	diastole
1271.8870000000002	0.095619493687991	95	systole	9	B	500	diastole
1272.6571	0.095619493687991	95	systole	10	B	500	diastole
1273.4272	0.095619493687991	95	systole	11	B	500	diastole
1274.2671999999998	0.095619493687991	95	systole	12	B	500	diastole
1276.8757	0.0893634457606822	96	systole	1	B	500	systole
1277.5756999999999	0.0893634457606822	96	systole	2	B	500	systole
1278.2756	0.0893634457606822	96	systole	3	B	500	systole
1279.0931999999998	0.0893634457606822	96	systole	4	B	500	systole
1279.8932	0.0893634457606822	96	systole	5	B	500	systole
1280.7233	0.0893634457606822	96	systole	6	B	500	systole
1281.7033000000001	0.0893634457606822	96	systole	7	B	500	systole
1282.4693000000002	0.0893634457606822	96	systole	8	B	500	systole
1283.2295	0.0893634457606822	96	systole	9	B	500	systole
1283.9768	0.0893634457606822	96	systole	10	B	500	systole
1284.4368	0.0893634457606822	96	systole	11	B	500	systole
1284.8968	0.0893634457606822	96	systole	12	B	500	systole
1285.5268	0.0893634457606822	96	systole	13	B	500	systole
1286.0202	0.0893634457606822	96	systole	14	B	500	systole
1288.0320000000002	0.0787454055389389	97	systole	1	B	500	systole
1288.9220999999998	0.0787454055389389	97	systole	2	B	500	systole
1289.8121999999998	0.0787454055389389	97	systole	3	B	500	systole
1290.5356000000002	0.0787454055389389	97	systole	4	B	500	systole
1291.2356	0.0787454055389389	97	systole	5	B	500	systole
1291.9115000000002	0.0787454055389389	97	systole	6	B	500	systole
1292.589	0.0787454055389389	97	systole	7	B	500	systole
1293.2491	0.0787454055389389	97	systole	8	B	500	systole
1293.9506999999999	0.0787454055389389	97	systole	9	B	500	systole
1294.7096999999999	0.0787454055389389	97	systole	10	B	500	systole
1295.4396000000002	0.0787454055389389	97	systole	11	B	500	systole
1296.1079	0.0787454055389389	97	systole	12	B	500	systole
1296.7878999999998	0.0787454055389389	97	systole	13	B	500	systole
1297.4722000000002	0.0787454055389389	97	systole	14	B	500	systole
1298.1363000000001	0.0787454055389389	97	systole	15	B	500	systole
1300.6403999999998	0.0850068286526948	98	systole	1	B	500	systole
1301.3102	0.0850068286526948	98	systole	2	B	500	systole
1301.9800999999998	0.0850068286526948	98	systole	3	B	500	systole
1302.6243	0.0850068286526948	98	systole	4	B	500	systole
1303.2784000000001	0.0850068286526948	98	systole	5	B	500	systole
1303.9225999999999	0.0850068286526948	98	systole	6	B	500	systole
1304.5726	0.0850068286526948	98	systole	7	B	500	systole
1305.2068	0.0850068286526948	98	systole	8	B	500	systole
1305.8608	0.0850068286526948	98	systole	9	B	500	systole
1306.5210000000002	0.0850068286526948	98	systole	10	B	500	systole
1307.1813000000002	0.0850068286526948	98	systole	11	B	500	systole
1307.8811999999998	0.0850068286526948	98	systole	12	B	500	systole
1308.4953999999998	0.0850068286526948	98	systole	13	B	500	systole
1309.2911	0.0850068286526948	98	systole	14	B	500	systole
1310.0810000000001	0.0850068286526948	98	systole	15	B	500	systole
1313.0121	0.0806362188886851	99	systole	1	B	500	diastole
1313.6421999999998	0.0806362188886851	99	systole	2	B	500	diastole
1314.2721000000001	0.0806362188886851	99	systole	3	B	500	diastole
1314.9022	0.0806362188886851	99	systole	4	B	500	diastole
1316.0322	0.0806362188886851	99	systole	5	B	500	diastole
1317.1622000000002	0.0806362188886851	99	systole	6	B	500	diastole
1318.0621	0.0806362188886851	99	systole	7	B	500	diastole
1318.9506000000001	0.0806362188886851	99	systole	8	B	500	diastole
1319.7808	0.0806362188886851	99	systole	9	B	500	diastole
1320.6639999999998	0.0806362188886851	99	systole	10	B	500	diastole
1321.4411	0.0806362188886851	99	systole	11	B	500	diastole
1322.1511	0.0806362188886851	99	systole	12	B	500	diastole
1324.9564999999998	0.0843735161470249	100	systole	1	B	500	diastole
1325.6170000000002	0.0843735161470249	100	systole	2	B	500	diastole
1326.2775000000001	0.0843735161470249	100	systole	3	B	500	diastole
1326.9490999999998	0.0843735161470249	100	systole	4	B	500	diastole
1327.6207	0.0843735161470249	100	systole	5	B	500	diastole
1328.3107	0.0843735161470249	100	systole	6	B	500	diastole
1329.029	0.0843735161470249	100	systole	7	B	500	diastole
1329.7473	0.0843735161470249	100	systole	8	B	500	diastole
1330.5319	0.0843735161470249	100	systole	9	B	500	diastole
1331.2919000000002	0.0843735161470249	100	systole	10	B	500	diastole
1332.0902999999998	0.0843735161470249	100	systole	11	B	500	diastole
1332.8323	0.0843735161470249	100	systole	12	B	500	diastole
1333.5742999999998	0.0843735161470249	100	systole	13	B	500	diastole
