onset	duration	trial_num	trial_type	tone_num	tone_type	frequency	response
23.447000000000116	0.1387451316986698	1	diastole	1	B	500	diastole
24.577400000000125	0.1387451316986698	1	diastole	2	B	500	diastole
25.707800000000134	0.1387451316986698	1	diastole	3	B	500	diastole
26.807800000000043	0.1387451316986698	1	diastole	4	B	500	diastole
27.87790000000018	0.1387451316986698	1	diastole	5	B	500	diastole
29.016600000000153	0.1387451316986698	1	diastole	6	B	500	diastole
30.14650000000006	0.1387451316986698	1	diastole	7	B	500	diastole
31.276400000000194	0.1387451316986698	1	diastole	8	B	500	diastole
32.42610000000013	0.1387451316986698	1	diastole	9	B	500	diastole
37.9855	0.1412415686063468	2	diastole	1	B	500	diastole
39.05529999999999	0.1412415686063468	2	diastole	2	B	500	diastole
40.12520000000018	0.1412415686063468	2	diastole	3	B	500	diastole
41.19510000000014	0.1412415686063468	2	diastole	4	B	500	diastole
42.264900000000125	0.1412415686063468	2	diastole	5	B	500	diastole
43.318300000000136	0.1412415686063468	2	diastole	6	B	500	diastole
44.468399999999974	0.1412415686063468	2	diastole	7	B	500	diastole
45.59840000000008	0.1412415686063468	2	diastole	8	B	500	diastole
46.703700000000026	0.1412415686063468	2	diastole	9	B	500	diastole
50.770500000000084	0.1412443989829626	3	systole	1	B	500	systole
51.8904	0.1412443989829626	3	systole	2	B	500	systole
53.00450000000001	0.1412443989829626	3	systole	3	B	500	systole
54.114500000000135	0.1412443989829626	3	systole	4	B	500	systole
55.224500000000035	0.1412443989829626	3	systole	5	B	500	systole
56.33879999999999	0.1412443989829626	3	systole	6	B	500	systole
57.458900000000085	0.1412443989829626	3	systole	7	B	500	systole
58.558899999999994	0.1412443989829626	3	systole	8	B	500	systole
59.67900000000009	0.1412443989829626	3	systole	9	B	500	systole
64.12880000000018	0.1399918737297412	4	systole	1	B	500	systole
65.25900000000001	0.1399918737297412	4	systole	2	B	500	systole
66.38080000000014	0.1399918737297412	4	systole	3	B	500	systole
67.42880000000014	0.1399918737297412	4	systole	4	B	500	systole
68.5590000000002	0.1399918737297412	4	systole	5	B	500	systole
69.70000000000005	0.1399918737297412	4	systole	6	B	500	systole
70.83990000000017	0.1399918737297412	4	systole	7	B	500	systole
71.97580000000016	0.1399918737297412	4	systole	8	B	500	systole
73.06990000000019	0.1399918737297412	4	systole	9	B	500	systole
81.95550000000003	0.1337365697836503	5	diastole	1	B	500	diastole
83.08100000000013	0.1337365697836503	5	diastole	2	B	500	diastole
84.21050000000014	0.1337365697836503	5	diastole	3	B	500	diastole
85.34000000000015	0.1337365697836503	5	diastole	4	B	500	diastole
86.42250000000013	0.1337365697836503	5	diastole	5	B	500	diastole
87.44340000000011	0.1337365697836503	5	diastole	6	B	500	diastole
88.47390000000019	0.1337365697836503	5	diastole	7	B	500	diastole
89.51440000000002	0.1337365697836503	5	diastole	8	B	500	diastole
90.5141000000001	0.1337365697836503	5	diastole	9	B	500	diastole
95.92740000000003	0.1331538580125197	6	diastole	1	B	500	diastole
97.03700000000003	0.1331538580125197	6	diastole	2	B	500	diastole
98.15710000000013	0.1331538580125197	6	diastole	3	B	500	diastole
99.31220000000008	0.1331538580125197	6	diastole	4	B	500	diastole
100.42180000000008	0.1331538580125197	6	diastole	5	B	500	diastole
101.4701	0.1331538580125197	6	diastole	6	B	500	diastole
102.51840000000016	0.1331538580125197	6	diastole	7	B	500	diastole
103.60000000000014	0.1331538580125197	6	diastole	8	B	500	diastole
107.19479999999999	0.1331145908043254	7	systole	1	B	500	systole
108.30470000000014	0.1331145908043254	7	systole	2	B	500	systole
109.41450000000009	0.1331145908043254	7	systole	3	B	500	systole
110.52440000000001	0.1331145908043254	7	systole	4	B	500	systole
111.64430000000016	0.1331145908043254	7	systole	5	B	500	systole
112.76420000000007	0.1331145908043254	7	systole	6	B	500	systole
113.9049	0.1331145908043254	7	systole	7	B	500	systole
115.02510000000007	0.1331145908043254	7	systole	8	B	500	systole
116.14520000000016	0.1331145908043254	7	systole	9	B	500	systole
119.94569999999999	0.1374989985488355	8	diastole	1	B	500	diastole
121.07560000000012	0.1374989985488355	8	diastole	2	B	500	diastole
122.17550000000006	0.1374989985488355	8	diastole	3	B	500	diastole
123.27560000000017	0.1374989985488355	8	diastole	4	B	500	diastole
124.37560000000008	0.1374989985488355	8	diastole	5	B	500	diastole
125.49710000000005	0.1374989985488355	8	diastole	6	B	500	diastole
126.58570000000009	0.1374989985488355	8	diastole	7	B	500	diastole
127.64520000000016	0.1374989985488355	8	diastole	8	B	500	diastole
131.9755	0.1374989562900737	9	diastole	1	B	500	diastole
133.10540000000015	0.1374989562900737	9	diastole	2	B	500	diastole
134.23540000000003	0.1374989562900737	9	diastole	3	B	500	diastole
135.3637000000001	0.1374989562900737	9	diastole	4	B	500	diastole
136.37930000000006	0.1374989562900737	9	diastole	5	B	500	diastole
137.46929999999998	0.1374989562900737	9	diastole	6	B	500	diastole
138.52050000000008	0.1374989562900737	9	diastole	7	B	500	diastole
139.50060000000008	0.1374989562900737	9	diastole	8	B	500	diastole
146.16550000000007	0.1324929500406142	10	systole	1	B	500	systole
147.1956	0.1324929500406142	10	systole	2	B	500	systole
148.2256	0.1324929500406142	10	systole	3	B	500	systole
149.3406	0.1324929500406142	10	systole	4	B	500	systole
150.42050000000017	0.1324929500406142	10	systole	5	B	500	systole
151.55040000000008	0.1324929500406142	10	systole	6	B	500	systole
152.6803	0.1324929500406142	10	systole	7	B	500	systole
153.78030000000012	0.1324929500406142	10	systole	8	B	500	systole
154.8804	0.1324929500406142	10	systole	9	B	500	systole
163.04970000000003	0.1362479915260337	11	systole	1	B	500	systole
164.0398	0.1362479915260337	11	systole	2	B	500	systole
165.0299	0.1362479915260337	11	systole	3	B	500	systole
166.0150000000001	0.1362479915260337	11	systole	4	B	500	systole
167.03500000000008	0.1362479915260337	11	systole	5	B	500	systole
167.97160000000008	0.1362479915260337	11	systole	6	B	500	systole
168.9915000000001	0.1362479915260337	11	systole	7	B	500	systole
170.03160000000003	0.1362479915260337	11	systole	8	B	500	systole
171.0717000000002	0.1362479915260337	11	systole	9	B	500	systole
172.2125000000001	0.1362479915260337	11	systole	10	B	500	systole
183.2898	0.1362578105763532	12	systole	1	B	500	systole
184.4398000000001	0.1362578105763532	12	systole	2	B	500	systole
185.5897	0.1362578105763532	12	systole	3	B	500	systole
186.6893	0.1362578105763532	12	systole	4	B	500	systole
187.79520000000002	0.1362578105763532	12	systole	5	B	500	systole
188.87520000000018	0.1362578105763532	12	systole	6	B	500	systole
189.9652000000001	0.1362578105763532	12	systole	7	B	500	systole
191.04510000000005	0.1362578105763532	12	systole	8	B	500	systole
192.0951	0.1362578105763532	12	systole	9	B	500	systole
197.6196	0.1368780190241523	13	systole	1	B	500	diastole
198.74950000000013	0.1368780190241523	13	systole	2	B	500	diastole
199.89710000000014	0.1368780190241523	13	systole	3	B	500	diastole
201.02710000000002	0.1368780190241523	13	systole	4	B	500	diastole
202.16470000000004	0.1368780190241523	13	systole	5	B	500	diastole
203.28470000000016	0.1368780190241523	13	systole	6	B	500	diastole
204.26490000000013	0.1368780190241523	13	systole	7	B	500	diastole
205.24500000000012	0.1368780190241523	13	systole	8	B	500	diastole
206.33500000000004	0.1368780190241523	13	systole	9	B	500	diastole
211.71460000000002	0.1362566961615812	14	systole	1	B	500	diastole
212.77050000000008	0.1362566961615812	14	systole	2	B	500	diastole
213.82050000000004	0.1362566961615812	14	systole	3	B	500	diastole
214.93380000000002	0.1362566961615812	14	systole	4	B	500	diastole
216.02380000000016	0.1362566961615812	14	systole	5	B	500	diastole
216.99630000000002	0.1362566961615812	14	systole	6	B	500	diastole
217.91290000000004	0.1362566961615812	14	systole	7	B	500	diastole
218.96540000000005	0.1362566961615812	14	systole	8	B	500	diastole
220.03550000000018	0.1362566961615812	14	systole	9	B	500	diastole
221.17560000000003	0.1362566961615812	14	systole	10	B	500	diastole
227.51380000000017	0.1418604812934063	15	diastole	1	B	500	diastole
228.56349999999998	0.1418604812934063	15	diastole	2	B	500	diastole
229.6132	0.1418604812934063	15	diastole	3	B	500	diastole
230.6931000000002	0.1418604812934063	15	diastole	4	B	500	diastole
231.79640000000018	0.1418604812934063	15	diastole	5	B	500	diastole
232.92650000000003	0.1418604812934063	15	diastole	6	B	500	diastole
234.0382000000002	0.1418604812934063	15	diastole	7	B	500	diastole
235.15820000000008	0.1418604812934063	15	diastole	8	B	500	diastole
236.2781	0.1418604812934063	15	diastole	9	B	500	diastole
240.42230000000018	0.1362518389360048	16	diastole	1	B	500	diastole
241.54240000000004	0.1362518389360048	16	diastole	2	B	500	diastole
242.6789000000001	0.1362518389360048	16	diastole	3	B	500	diastole
243.6925000000001	0.1362518389360048	16	diastole	4	B	500	diastole
244.78060000000005	0.1362518389360048	16	diastole	5	B	500	diastole
245.91050000000018	0.1362518389360048	16	diastole	6	B	500	diastole
247.04050000000007	0.1362518389360048	16	diastole	7	B	500	diastole
248.20230000000015	0.1362518389360048	16	diastole	8	B	500	diastole
254.78570000000013	0.1381270948622841	17	systole	1	B	500	systole
255.88580000000002	0.1381270948622841	17	systole	2	B	500	systole
256.98590000000013	0.1381270948622841	17	systole	3	B	500	systole
258.1155000000001	0.1381270948622841	17	systole	4	B	500	systole
259.24580000000014	0.1381270948622841	17	systole	5	B	500	systole
260.36580000000004	0.1381270948622841	17	systole	6	B	500	systole
261.4955	0.1381270948622841	17	systole	7	B	500	systole
262.5956000000001	0.1381270948622841	17	systole	8	B	500	systole
263.6956	0.1381270948622841	17	systole	9	B	500	systole
272.48400000000015	0.0937468498013913	18	diastole	1	B	500	diastole
273.5757000000001	0.0937468498013913	18	diastole	2	B	500	diastole
274.72400000000016	0.0937468498013913	18	diastole	3	B	500	diastole
275.8040000000001	0.0937468498013913	18	diastole	4	B	500	diastole
277.0322000000001	0.0937468498013913	18	diastole	5	B	500	diastole
278.52570000000014	0.0937468498013913	18	diastole	6	B	500	diastole
279.64390000000003	0.0937468498013913	18	diastole	7	B	500	diastole
280.8122000000001	0.0937468498013913	18	diastole	8	B	500	diastole
287.25570000000016	0.1375237167521845	19	diastole	1	B	500	diastole
288.15890000000013	0.1375237167521845	19	diastole	2	B	500	diastole
289.0789	0.1375237167521845	19	diastole	3	B	500	diastole
289.904	0.1375237167521845	19	diastole	4	B	500	diastole
290.9539	0.1375237167521845	19	diastole	5	B	500	diastole
292.0038000000002	0.1375237167521845	19	diastole	6	B	500	diastole
293.1421	0.1375237167521845	19	diastole	7	B	500	diastole
294.2722000000001	0.1375237167521845	19	diastole	8	B	500	diastole
295.4340000000002	0.1375237167521845	19	diastole	9	B	500	diastole
301.4588000000001	0.1399985187454149	20	systole	1	B	500	diastole
302.3972000000001	0.1399985187454149	20	systole	2	B	500	diastole
303.4057	0.1399985187454149	20	systole	3	B	500	diastole
304.4426000000001	0.1399985187454149	20	systole	4	B	500	diastole
305.5028	0.1399985187454149	20	systole	5	B	500	diastole
306.6224000000002	0.1399985187454149	20	systole	6	B	500	diastole
307.7420000000002	0.1399985187454149	20	systole	7	B	500	diastole
308.85210000000006	0.1399985187454149	20	systole	8	B	500	diastole
309.96220000000017	0.1399985187454149	20	systole	9	B	500	diastole
313.2212000000002	0.1381219092872925	21	systole	1	B	500	systole
314.2211	0.1381219092872925	21	systole	2	B	500	systole
315.1413	0.1381219092872925	21	systole	3	B	500	systole
316.1564000000001	0.1381219092872925	21	systole	4	B	500	systole
317.2065	0.1381219092872925	21	systole	5	B	500	systole
318.27480000000014	0.1381219092872925	21	systole	6	B	500	systole
319.2776000000001	0.1381219092872925	21	systole	7	B	500	systole
320.2979	0.1381219092872925	21	systole	8	B	500	systole
321.40790000000015	0.1381219092872925	21	systole	9	B	500	systole
325.24530000000004	0.1337290186202153	22	diastole	1	B	500	diastole
326.2953	0.1337290186202153	22	diastole	2	B	500	diastole
327.3452	0.1337290186202153	22	diastole	3	B	500	diastole
328.2083	0.1337290186202153	22	diastole	4	B	500	diastole
329.08810000000017	0.1337290186202153	22	diastole	5	B	500	diastole
330.06650000000013	0.1337290186202153	22	diastole	6	B	500	diastole
331.0865000000001	0.1337290186202153	22	diastole	7	B	500	diastole
332.1382000000001	0.1337290186202153	22	diastole	8	B	500	diastole
333.2667000000001	0.1337290186202153	22	diastole	9	B	500	diastole
334.39530000000013	0.1337290186202153	22	diastole	10	B	500	diastole
338.6554000000001	0.1345029375806916	23	diastole	1	B	500	systole
339.48530000000005	0.1345029375806916	23	diastole	2	B	500	systole
340.0355000000002	0.1345029375806916	23	diastole	3	B	500	systole
340.5856000000001	0.1345029375806916	23	diastole	4	B	500	systole
341.13570000000004	0.1345029375806916	23	diastole	5	B	500	systole
341.9072000000001	0.1345029375806916	23	diastole	6	B	500	systole
342.99710000000005	0.1345029375806916	23	diastole	7	B	500	systole
344.087	0.1345029375806916	23	diastole	8	B	500	systole
345.17700000000013	0.1345029375806916	23	diastole	9	B	500	systole
346.3569	0.1345029375806916	23	diastole	10	B	500	systole
347.65200000000004	0.1345029375806916	23	diastole	11	B	500	systole
355.4521	0.143755324272206	24	systole	1	B	500	diastole
356.5020000000002	0.143755324272206	24	systole	2	B	500	diastole
357.43460000000005	0.143755324272206	24	systole	3	B	500	diastole
358.4755	0.143755324272206	24	systole	4	B	500	diastole
359.5455000000002	0.143755324272206	24	systole	5	B	500	diastole
360.65560000000005	0.143755324272206	24	systole	6	B	500	diastole
361.7755000000002	0.143755324272206	24	systole	7	B	500	diastole
362.8438000000001	0.143755324272206	24	systole	8	B	500	diastole
363.8964000000001	0.143755324272206	24	systole	9	B	500	diastole
370.0159000000001	0.1375055585813243	25	diastole	1	B	500	diastole
371.08550000000014	0.1375055585813243	25	diastole	2	B	500	diastole
372.1553000000001	0.1375055585813243	25	diastole	3	B	500	diastole
373.0987	0.1375055585813243	25	diastole	4	B	500	diastole
374.0821000000001	0.1375055585813243	25	diastole	5	B	500	diastole
375.08220000000006	0.1375055585813243	25	diastole	6	B	500	diastole
376.14390000000003	0.1375055585813243	25	diastole	7	B	500	diastole
377.26880000000006	0.1375055585813243	25	diastole	8	B	500	diastole
378.41560000000004	0.1375055585813243	25	diastole	9	B	500	diastole
385.45540000000005	0.1375038542610127	26	systole	1	B	500	systole
386.45510000000013	0.1375038542610127	26	systole	2	B	500	systole
387.45500000000015	0.1375038542610127	26	systole	3	B	500	systole
388.4187000000002	0.1375038542610127	26	systole	4	B	500	systole
389.48720000000003	0.1375038542610127	26	systole	5	B	500	systole
390.61670000000004	0.1375038542610127	26	systole	6	B	500	systole
391.7067000000002	0.1375038542610127	26	systole	7	B	500	systole
392.7551000000001	0.1375038542610127	26	systole	8	B	500	systole
393.7749000000001	0.1375038542610127	26	systole	9	B	500	systole
398.4422000000002	0.1312576285272371	27	diastole	1	B	500	diastole
399.4121	0.1312576285272371	27	diastole	2	B	500	diastole
400.3089	0.1312576285272371	27	diastole	3	B	500	diastole
401.28390000000013	0.1312576285272371	27	diastole	4	B	500	diastole
402.3638000000001	0.1312576285272371	27	diastole	5	B	500	diastole
403.4438	0.1312576285272371	27	diastole	6	B	500	diastole
404.59360000000015	0.1312576285272371	27	diastole	7	B	500	diastole
405.72360000000003	0.1312576285272371	27	diastole	8	B	500	diastole
406.91880000000015	0.1312576285272371	27	diastole	9	B	500	diastole
410.7397000000001	0.1368706447537988	28	systole	1	B	500	systole
411.69960000000015	0.1368706447537988	28	systole	2	B	500	systole
412.61480000000006	0.1368706447537988	28	systole	3	B	500	systole
413.5652	0.1368706447537988	28	systole	4	B	500	systole
414.64260000000013	0.1368706447537988	28	systole	5	B	500	systole
415.7925	0.1368706447537988	28	systole	6	B	500	systole
416.9425000000001	0.1368706447537988	28	systole	7	B	500	systole
418.07410000000004	0.1368706447537988	28	systole	8	B	500	systole
419.2332000000001	0.1368706447537988	28	systole	9	B	500	systole
427.25840000000017	0.1374985242728144	29	diastole	1	B	500	systole
428.06600000000003	0.1374985242728144	29	diastole	2	B	500	systole
429.0065000000002	0.1374985242728144	29	diastole	3	B	500	systole
429.93510000000015	0.1374985242728144	29	diastole	4	B	500	systole
431.0350000000001	0.1374985242728144	29	diastole	5	B	500	systole
432.1349	0.1374985242728144	29	diastole	6	B	500	systole
433.27480000000014	0.1374985242728144	29	diastole	7	B	500	systole
434.4148	0.1374985242728144	29	diastole	8	B	500	systole
435.60270000000014	0.1374985242728144	29	diastole	9	B	500	systole
440.70730000000003	0.1374973502242937	30	systole	1	B	500	systole
441.8274000000001	0.1374973502242937	30	systole	2	B	500	systole
442.9431000000002	0.1374973502242937	30	systole	3	B	500	systole
443.96140000000014	0.1374973502242937	30	systole	4	B	500	systole
444.9639000000002	0.1374973502242937	30	systole	5	B	500	systole
445.98400000000015	0.1374973502242937	30	systole	6	B	500	systole
447.11390000000006	0.1374973502242937	30	systole	7	B	500	systole
448.2438000000002	0.1374973502242937	30	systole	8	B	500	systole
449.39300000000003	0.1374973502242937	30	systole	9	B	500	systole
453.9746	0.1406225561513565	31	systole	1	B	500	diastole
455.07460000000015	0.1406225561513565	31	systole	2	B	500	diastole
456.0045	0.1406225561513565	31	systole	3	B	500	diastole
456.8745000000001	0.1406225561513565	31	systole	4	B	500	diastole
457.7446	0.1406225561513565	31	systole	5	B	500	diastole
458.7273	0.1406225561513565	31	systole	6	B	500	diastole
459.7274	0.1406225561513565	31	systole	7	B	500	diastole
460.9534000000001	0.1406225561513565	31	systole	8	B	500	diastole
462.1331	0.1406225561513565	31	systole	9	B	500	diastole
466.4190000000001	0.1437503148335963	32	diastole	1	B	500	diastole
467.5485000000001	0.1437503148335963	32	diastole	2	B	500	diastole
468.6780000000001	0.1437503148335963	32	diastole	3	B	500	diastole
469.72810000000004	0.1437503148335963	32	diastole	4	B	500	diastole
470.7781	0.1437503148335963	32	diastole	5	B	500	diastole
471.7677000000001	0.1437503148335963	32	diastole	6	B	500	diastole
472.7119	0.1437503148335963	32	diastole	7	B	500	diastole
473.6718000000001	0.1437503148335963	32	diastole	8	B	500	diastole
477.3579	0.1256700187223032	33	diastole	1	B	500	diastole
478.52740000000017	0.1256700187223032	33	diastole	2	B	500	diastole
479.69690000000014	0.1256700187223032	33	diastole	3	B	500	diastole
480.9049	0.1256700187223032	33	diastole	4	B	500	diastole
482.0549000000001	0.1256700187223032	33	diastole	5	B	500	diastole
483.2662	0.1256700187223032	33	diastole	6	B	500	diastole
484.2662	0.1256700187223032	33	diastole	7	B	500	diastole
485.2663	0.1256700187223032	33	diastole	8	B	500	diastole
492.92190000000005	0.1249994437384884	34	diastole	1	B	500	diastole
493.92190000000005	0.1249994437384884	34	diastole	2	B	500	diastole
494.92190000000005	0.1249994437384884	34	diastole	3	B	500	diastole
495.942	0.1249994437384884	34	diastole	4	B	500	diastole
496.8752000000002	0.1249994437384884	34	diastole	5	B	500	diastole
497.7934	0.1249994437384884	34	diastole	6	B	500	diastole
498.7533000000001	0.1249994437384884	34	diastole	7	B	500	diastole
499.71320000000014	0.1249994437384884	34	diastole	8	B	500	diastole
500.85170000000016	0.1249994437384884	34	diastole	9	B	500	diastole
505.2171000000001	0.1293827473709825	35	diastole	1	B	500	diastole
506.1591000000001	0.1293827473709825	35	diastole	2	B	500	diastole
507.1011000000001	0.1293827473709825	35	diastole	3	B	500	diastole
508.0430000000001	0.1293827473709825	35	diastole	4	B	500	diastole
508.97090000000003	0.1293827473709825	35	diastole	5	B	500	diastole
510.0856000000001	0.1293827473709825	35	diastole	6	B	500	diastole
511.1753000000001	0.1293827473709825	35	diastole	7	B	500	diastole
512.2953	0.1293827473709825	35	diastole	8	B	500	diastole
513.4056	0.1293827473709825	35	diastole	9	B	500	diastole
514.5255000000002	0.1293827473709825	35	diastole	10	B	500	diastole
517.2892000000002	0.1368476375064347	36	systole	1	B	500	diastole
518.2692999999999	0.1368476375064347	36	systole	2	B	500	diastole
519.2493	0.1368476375064347	36	systole	3	B	500	diastole
520.2792	0.1368476375064347	36	systole	4	B	500	diastole
521.4180000000001	0.1368476375064347	36	systole	5	B	500	diastole
522.5682000000002	0.1368476375064347	36	systole	6	B	500	diastole
523.6880000000001	0.1368476375064347	36	systole	7	B	500	diastole
524.8077000000003	0.1368476375064347	36	systole	8	B	500	diastole
525.9177	0.1368476375064347	36	systole	9	B	500	diastole
527.0376000000001	0.1368476375064347	36	systole	10	B	500	diastole
535.4102000000003	0.0531193859351333	37	diastole	1	B	500	diastole
536.5302000000001	0.0531193859351333	37	diastole	2	B	500	diastole
537.6102000000001	0.0531193859351333	37	diastole	3	B	500	diastole
539.3352	0.0531193859351333	37	diastole	4	B	500	diastole
540.4351999999999	0.0531193859351333	37	diastole	5	B	500	diastole
541.8937000000001	0.0531193859351333	37	diastole	6	B	500	diastole
543.0972000000002	0.0531193859351333	37	diastole	7	B	500	diastole
544.2485999999999	0.0531193859351333	37	diastole	8	B	500	diastole
547.4857999999999	0.1375215506704989	38	diastole	1	B	500	diastole
548.4653000000003	0.1375215506704989	38	diastole	2	B	500	diastole
549.4449	0.1375215506704989	38	diastole	3	B	500	diastole
550.4245000000001	0.1375215506704989	38	diastole	4	B	500	diastole
551.4079000000002	0.1375215506704989	38	diastole	5	B	500	diastole
552.5077999999999	0.1375215506704989	38	diastole	6	B	500	diastole
553.6078000000002	0.1375215506704989	38	diastole	7	B	500	diastole
554.7278000000001	0.1375215506704989	38	diastole	8	B	500	diastole
555.8479000000002	0.1375215506704989	38	diastole	9	B	500	diastole
560.6071999999999	0.1406324641429819	39	diastole	1	B	500	diastole
561.6556	0.1406324641429819	39	diastole	2	B	500	diastole
562.6555000000003	0.1406324641429819	39	diastole	3	B	500	diastole
563.6554000000001	0.1406324641429819	39	diastole	4	B	500	diastole
564.6552999999999	0.1406324641429819	39	diastole	5	B	500	diastole
565.6567	0.1406324641429819	39	diastole	6	B	500	diastole
566.7166000000002	0.1406324641429819	39	diastole	7	B	500	diastole
567.7184000000002	0.1406324641429819	39	diastole	8	B	500	diastole
568.7601	0.1406324641429819	39	diastole	9	B	500	diastole
573.1152999999999	0.1299976288573816	40	systole	1	B	500	systole
574.0452	0.1299976288573816	40	systole	2	B	500	systole
574.9751000000001	0.1299976288573816	40	systole	3	B	500	systole
576.0093999999999	0.1299976288573816	40	systole	4	B	500	systole
577.1394	0.1299976288573816	40	systole	5	B	500	systole
578.2694000000001	0.1299976288573816	40	systole	6	B	500	systole
579.4194000000002	0.1299976288573816	40	systole	7	B	500	systole
580.5493999999999	0.1299976288573816	40	systole	8	B	500	systole
581.7377999999999	0.1299976288573816	40	systole	9	B	500	systole
585.1904	0.1412448354822117	41	systole	1	B	500	diastole
586.1604000000002	0.1412448354822117	41	systole	2	B	500	diastole
587.1264000000001	0.1412448354822117	41	systole	3	B	500	diastole
588.1563000000001	0.1412448354822117	41	systole	4	B	500	diastole
589.1759000000002	0.1412448354822117	41	systole	5	B	500	diastole
590.1277	0.1412448354822117	41	systole	6	B	500	diastole
591.1076000000003	0.1412448354822117	41	systole	7	B	500	diastole
592.0288	0.1412448354822117	41	systole	8	B	500	diastole
592.9792000000002	0.1412448354822117	41	systole	9	B	500	diastole
594.0392000000002	0.1412448354822117	41	systole	10	B	500	diastole
602.9372000000003	0.1237426127190701	42	diastole	1	B	500	diastole
603.9173000000001	0.1237426127190701	42	diastole	2	B	500	diastole
604.9755	0.1237426127190701	42	diastole	3	B	500	diastole
606.0954999999999	0.1237426127190701	42	diastole	4	B	500	diastole
607.2258000000002	0.1237426127190701	42	diastole	5	B	500	diastole
608.3560000000002	0.1237426127190701	42	diastole	6	B	500	diastole
609.6008999999999	0.1237426127190701	42	diastole	7	B	500	diastole
610.8472000000002	0.1237426127190701	42	diastole	8	B	500	diastole
615.6388000000002	0.1400024470931384	43	systole	1	B	500	systole
616.5388000000003	0.1400024470931384	43	systole	2	B	500	systole
617.3839000000003	0.1400024470931384	43	systole	3	B	500	systole
618.2640000000001	0.1400024470931384	43	systole	4	B	500	systole
619.2314999999999	0.1400024470931384	43	systole	5	B	500	systole
620.4614000000001	0.1400024470931384	43	systole	6	B	500	systole
621.6914000000002	0.1400024470931384	43	systole	7	B	500	systole
622.9013	0.1400024470931384	43	systole	8	B	500	systole
624.1112000000003	0.1400024470931384	43	systole	9	B	500	systole
625.4160000000002	0.1400024470931384	43	systole	10	B	500	systole
629.8957	0.1450288878404535	44	systole	1	B	500	systole
630.884	0.1450288878404535	44	systole	2	B	500	systole
631.7813000000001	0.1450288878404535	44	systole	3	B	500	systole
632.6460000000002	0.1450288878404535	44	systole	4	B	500	systole
633.5457000000001	0.1450288878404535	44	systole	5	B	500	systole
634.5082000000002	0.1450288878404535	44	systole	6	B	500	systole
635.6366000000003	0.1450288878404535	44	systole	7	B	500	systole
636.7766000000001	0.1450288878404535	44	systole	8	B	500	systole
637.9182000000001	0.1450288878404535	44	systole	9	B	500	systole
642.5111999999999	0.1381227809470147	45	systole	1	B	500	diastole
643.5610999999999	0.1381227809470147	45	systole	2	B	500	diastole
644.6111000000001	0.1381227809470147	45	systole	3	B	500	diastole
645.5909999999999	0.1381227809470147	45	systole	4	B	500	diastole
646.6061	0.1381227809470147	45	systole	5	B	500	diastole
647.6561000000002	0.1381227809470147	45	systole	6	B	500	diastole
648.7060999999999	0.1381227809470147	45	systole	7	B	500	diastole
649.7570000000001	0.1381227809470147	45	systole	8	B	500	diastole
650.8369000000002	0.1381227809470147	45	systole	9	B	500	diastole
656.0059999999999	0.1343750711239408	46	systole	1	B	500	diastole
656.9457000000002	0.1343750711239408	46	systole	2	B	500	diastole
657.8358000000003	0.1343750711239408	46	systole	3	B	500	diastole
658.6460000000002	0.1343750711239408	46	systole	4	B	500	diastole
659.4560999999999	0.1343750711239408	46	systole	5	B	500	diastole
660.1851999999999	0.1343750711239408	46	systole	6	B	500	diastole
661.1390999999999	0.1343750711239408	46	systole	7	B	500	diastole
662.2092000000002	0.1343750711239408	46	systole	8	B	500	diastole
663.2792	0.1343750711239408	46	systole	9	B	500	diastole
664.3492000000001	0.1343750711239408	46	systole	10	B	500	diastole
665.4192000000003	0.1343750711239408	46	systole	11	B	500	diastole
672.0624000000003	0.1050245398364495	47	systole	1	B	500	diastole
673.0423000000001	0.1050245398364495	47	systole	2	B	500	diastole
674.1102000000001	0.1050245398364495	47	systole	3	B	500	diastole
675.1781000000001	0.1050245398364495	47	systole	4	B	500	diastole
676.2460000000001	0.1050245398364495	47	systole	5	B	500	diastole
677.2945	0.1050245398364495	47	systole	6	B	500	diastole
678.3189000000002	0.1050245398364495	47	systole	7	B	500	diastole
679.4450999999999	0.1050245398364495	47	systole	8	B	500	diastole
680.5691999999999	0.1050245398364495	47	systole	9	B	500	diastole
689.7494000000002	0.1362700773170218	48	diastole	1	B	500	diastole
690.8495000000003	0.1362700773170218	48	diastole	2	B	500	diastole
691.9495000000002	0.1362700773170218	48	diastole	3	B	500	diastole
693.0478000000003	0.1362700773170218	48	diastole	4	B	500	diastole
694.1102000000001	0.1362700773170218	48	diastole	5	B	500	diastole
695.0637999999999	0.1362700773170218	48	diastole	6	B	500	diastole
696.0437999999999	0.1362700773170218	48	diastole	7	B	500	diastole
697.0524	0.1362700773170218	48	diastole	8	B	500	diastole
698.1024000000002	0.1362700773170218	48	diastole	9	B	500	diastole
702.1594	0.1355313571984879	49	systole	1	B	500	diastole
703.1496000000002	0.1355313571984879	49	systole	2	B	500	diastole
704.1514999999999	0.1355313571984879	49	systole	3	B	500	diastole
705.1314000000002	0.1355313571984879	49	systole	4	B	500	diastole
706.1113	0.1355313571984879	49	systole	5	B	500	diastole
707.0912000000003	0.1355313571984879	49	systole	6	B	500	diastole
708.2620999999999	0.1355313571984879	49	systole	7	B	500	diastole
709.3980000000001	0.1355313571984879	49	systole	8	B	500	diastole
710.5480000000002	0.1355313571984879	49	systole	9	B	500	diastole
722.5786000000003	0.1220016857550945	50	diastole	1	B	500	diastole
723.4486000000002	0.1220016857550945	50	diastole	2	B	500	diastole
724.3971999999999	0.1220016857550945	50	diastole	3	B	500	diastole
725.3472000000002	0.1220016857550945	50	diastole	4	B	500	diastole
726.2972	0.1220016857550945	50	diastole	5	B	500	diastole
727.3056000000001	0.1220016857550945	50	diastole	6	B	500	diastole
728.3140000000003	0.1220016857550945	50	diastole	7	B	500	diastole
729.3224	0.1220016857550945	50	diastole	8	B	500	diastole
730.4583000000002	0.1220016857550945	50	diastole	9	B	500	diastole
731.5538000000001	0.1220016857550945	50	diastole	10	B	500	diastole
736.0529999999999	0.1255043624259997	51	systole	1	B	500	systole
736.8929000000003	0.1255043624259997	51	systole	2	B	500	systole
737.6062000000002	0.1255043624259997	51	systole	3	B	500	systole
738.3544999999999	0.1255043624259997	51	systole	4	B	500	systole
739.5744	0.1255043624259997	51	systole	5	B	500	systole
740.7608	0.1255043624259997	51	systole	6	B	500	systole
741.9461000000001	0.1255043624259997	51	systole	7	B	500	systole
743.1262000000002	0.1255043624259997	51	systole	8	B	500	systole
744.3062	0.1255043624259997	51	systole	9	B	500	systole
749.9920999999999	0.1412495515542104	52	diastole	1	B	500	diastole
751.0720999999999	0.1412495515542104	52	diastole	2	B	500	diastole
752.1521000000002	0.1412495515542104	52	diastole	3	B	500	diastole
753.1653999999999	0.1412495515542104	52	diastole	4	B	500	diastole
754.1269000000002	0.1412495515542104	52	diastole	5	B	500	diastole
755.0969	0.1412495515542104	52	diastole	6	B	500	diastole
756.2302	0.1412495515542104	52	diastole	7	B	500	diastole
757.3800000000001	0.1412495515542104	52	diastole	8	B	500	diastole
760.3331000000003	0.1381336346094031	53	systole	1	B	500	diastole
761.4611	0.1381336346094031	53	systole	2	B	500	diastole
762.4816000000001	0.1381336346094031	53	systole	3	B	500	diastole
763.4115999999999	0.1381336346094031	53	systole	4	B	500	diastole
764.3315000000002	0.1381336346094031	53	systole	5	B	500	diastole
764.7579000000001	0.1381336346094031	53	systole	6	B	500	diastole
765.0304000000001	0.1381336346094031	53	systole	7	B	500	diastole
765.8856000000001	0.1381336346094031	53	systole	8	B	500	diastole
766.9657000000002	0.1381336346094031	53	systole	9	B	500	diastole
768.1656000000003	0.1381336346094031	53	systole	10	B	500	diastole
769.3355999999999	0.1381336346094031	53	systole	11	B	500	diastole
772.3047000000001	0.1312807249196339	54	systole	1	B	500	systole
773.4830000000002	0.1312807249196339	54	systole	2	B	500	systole
774.6422000000002	0.1312807249196339	54	systole	3	B	500	systole
775.692	0.1312807249196339	54	systole	4	B	500	systole
776.7419	0.1312807249196339	54	systole	5	B	500	systole
777.7918	0.1312807249196339	54	systole	6	B	500	systole
778.8417	0.1312807249196339	54	systole	7	B	500	systole
779.962	0.1312807249196339	54	systole	8	B	500	systole
781.0714000000003	0.1312807249196339	54	systole	9	B	500	systole
784.5547000000001	0.1412580472242552	55	systole	1	B	500	systole
785.6548000000003	0.1412580472242552	55	systole	2	B	500	systole
786.7550000000001	0.1412580472242552	55	systole	3	B	500	systole
787.815	0.1412580472242552	55	systole	4	B	500	systole
788.9504999999999	0.1412580472242552	55	systole	5	B	500	systole
790.0904	0.1412580472242552	55	systole	6	B	500	systole
791.2303999999999	0.1412580472242552	55	systole	7	B	500	systole
792.3704000000002	0.1412580472242552	55	systole	8	B	500	systole
795.7805000000003	0.1412536130228545	56	systole	1	B	500	systole
796.8906000000002	0.1412536130228545	56	systole	2	B	500	systole
797.9904999999999	0.1412536130228545	56	systole	3	B	500	systole
799.1105000000002	0.1412536130228545	56	systole	4	B	500	systole
800.2303999999999	0.1412536130228545	56	systole	5	B	500	systole
801.3504000000003	0.1412536130228545	56	systole	6	B	500	systole
802.4805999999999	0.1412536130228545	56	systole	7	B	500	systole
803.6421	0.1412536130228545	56	systole	8	B	500	systole
807.5936999999999	0.1418809706519823	57	diastole	1	B	500	diastole
808.6737000000003	0.1418809706519823	57	diastole	2	B	500	diastole
809.7536	0.1418809706519823	57	diastole	3	B	500	diastole
810.8036000000002	0.1418809706519823	57	diastole	4	B	500	diastole
811.8535999999999	0.1418809706519823	57	diastole	5	B	500	diastole
812.9936000000002	0.1418809706519823	57	diastole	6	B	500	diastole
814.1235000000001	0.1418809706519823	57	diastole	7	B	500	diastole
815.2269999999999	0.1418809706519823	57	diastole	8	B	500	diastole
819.7386999999999	0.1400032917154021	58	diastole	1	B	500	diastole
820.7085999999999	0.1400032917154021	58	diastole	2	B	500	diastole
821.6786000000002	0.1400032917154021	58	diastole	3	B	500	diastole
822.6485000000002	0.1400032917154021	58	diastole	4	B	500	diastole
823.6903000000002	0.1400032917154021	58	diastole	5	B	500	diastole
824.7402000000002	0.1400032917154021	58	diastole	6	B	500	diastole
825.7868000000003	0.1400032917154021	58	diastole	7	B	500	diastole
826.8786	0.1400032917154021	58	diastole	8	B	500	diastole
830.5729000000001	0.1318718181573785	59	systole	1	B	500	systole
831.5433000000003	0.1318718181573785	59	systole	2	B	500	systole
832.4133000000002	0.1318718181573785	59	systole	3	B	500	systole
833.3077000000003	0.1318718181573785	59	systole	4	B	500	systole
834.2777000000001	0.1318718181573785	59	systole	5	B	500	systole
835.2773000000002	0.1318718181573785	59	systole	6	B	500	systole
836.3576000000003	0.1318718181573785	59	systole	7	B	500	systole
837.5071000000003	0.1318718181573785	59	systole	8	B	500	systole
838.6368000000002	0.1318718181573785	59	systole	9	B	500	systole
839.7665000000002	0.1318718181573785	59	systole	10	B	500	systole
844.2572	0.1331292736867908	60	diastole	1	B	500	systole
845.1071000000002	0.1331292736867908	60	diastole	2	B	500	systole
845.9569999999999	0.1331292736867908	60	diastole	3	B	500	systole
846.8856000000001	0.1331292736867908	60	diastole	4	B	500	systole
847.9656	0.1331292736867908	60	diastole	5	B	500	systole
849.1557000000003	0.1331292736867908	60	diastole	6	B	500	systole
850.3256999999999	0.1331292736867908	60	diastole	7	B	500	systole
851.4956000000002	0.1331292736867908	60	diastole	8	B	500	systole
852.6804999999999	0.1331292736867908	60	diastole	9	B	500	systole
856.3804	0.1437554294534493	61	diastole	1	B	500	diastole
857.3821000000003	0.1437554294534493	61	diastole	2	B	500	diastole
858.3301000000001	0.1437554294534493	61	diastole	3	B	500	diastole
859.2502	0.1437554294534493	61	diastole	4	B	500	diastole
860.2071000000001	0.1437554294534493	61	diastole	5	B	500	diastole
861.2553000000003	0.1437554294534493	61	diastole	6	B	500	diastole
862.4054000000001	0.1437554294534493	61	diastole	7	B	500	diastole
863.5554000000002	0.1437554294534493	61	diastole	8	B	500	diastole
864.6755000000003	0.1437554294534493	61	diastole	9	B	500	diastole
868.7618000000002	0.1349813062697649	62	diastole	1	B	500	diastole
869.6919000000003	0.1349813062697649	62	diastole	2	B	500	diastole
870.6922	0.1349813062697649	62	diastole	3	B	500	diastole
871.7273	0.1349813062697649	62	diastole	4	B	500	diastole
872.7873	0.1349813062697649	62	diastole	5	B	500	diastole
873.9270000000001	0.1349813062697649	62	diastole	6	B	500	diastole
875.1271999999999	0.1349813062697649	62	diastole	7	B	500	diastole
876.2773000000002	0.1349813062697649	62	diastole	8	B	500	diastole
885.6749	0.1181326500663999	63	diastole	1	B	500	diastole
886.6432	0.1181326500663999	63	diastole	2	B	500	diastole
887.723	0.1181326500663999	63	diastole	3	B	500	diastole
888.8630000000003	0.1181326500663999	63	diastole	4	B	500	diastole
890.0133000000001	0.1181326500663999	63	diastole	5	B	500	diastole
891.1233000000002	0.1181326500663999	63	diastole	6	B	500	diastole
892.2872000000002	0.1181326500663999	63	diastole	7	B	500	diastole
893.5100000000002	0.1181326500663999	63	diastole	8	B	500	diastole
901.2586999999999	0.1062628370418679	64	diastole	1	B	500	diastole
902.4386	0.1062628370418679	64	diastole	2	B	500	diastole
903.4387000000002	0.1062628370418679	64	diastole	3	B	500	diastole
904.4387000000002	0.1062628370418679	64	diastole	4	B	500	diastole
905.4387000000002	0.1062628370418679	64	diastole	5	B	500	diastole
906.5050000000001	0.1062628370418679	64	diastole	6	B	500	diastole
907.6702	0.1062628370418679	64	diastole	7	B	500	diastole
908.6602000000003	0.1062628370418679	64	diastole	8	B	500	diastole
909.6401000000001	0.1062628370418679	64	diastole	9	B	500	diastole
912.7570000000001	0.1237466551538091	65	systole	1	B	500	systole
913.6808000000001	0.1237466551538091	65	systole	2	B	500	systole
914.6104	0.1237466551538091	65	systole	3	B	500	systole
915.7604999999999	0.1237466551538091	65	systole	4	B	500	systole
916.9105	0.1237466551538091	65	systole	5	B	500	systole
918.0403999999999	0.1237466551538091	65	systole	6	B	500	systole
919.1703000000002	0.1237466551538091	65	systole	7	B	500	systole
920.3555999999999	0.1237466551538091	65	systole	8	B	500	systole
921.5676000000003	0.1237466551538091	65	systole	9	B	500	systole
924.7028	0.1393760459905024	66	systole	1	B	500	diastole
925.6025	0.1393760459905024	66	systole	2	B	500	diastole
926.5176999999999	0.1393760459905024	66	systole	3	B	500	diastole
927.4681	0.1393760459905024	66	systole	4	B	500	diastole
928.6089000000002	0.1393760459905024	66	systole	5	B	500	diastole
929.7789000000002	0.1393760459905024	66	systole	6	B	500	diastole
930.9086000000002	0.1393760459905024	66	systole	7	B	500	diastole
932.0383000000002	0.1393760459905024	66	systole	8	B	500	diastole
933.1885000000002	0.1393760459905024	66	systole	9	B	500	diastole
938.0064000000002	0.133141355792759	67	systole	1	B	500	systole
938.9920000000002	0.133141355792759	67	systole	2	B	500	systole
940.0125000000003	0.133141355792759	67	systole	3	B	500	systole
940.9789000000001	0.133141355792759	67	systole	4	B	500	systole
942.009	0.133141355792759	67	systole	5	B	500	systole
943.0392000000002	0.133141355792759	67	systole	6	B	500	systole
944.1687000000002	0.133141355792759	67	systole	7	B	500	systole
945.3206	0.133141355792759	67	systole	8	B	500	systole
946.4567999999999	0.133141355792759	67	systole	9	B	500	systole
951.6082999999999	0.1324796718254219	68	systole	1	B	500	systole
952.5383999999999	0.1324796718254219	68	systole	2	B	500	systole
953.4611	0.1324796718254219	68	systole	3	B	500	systole
954.4160000000002	0.1324796718254219	68	systole	4	B	500	systole
955.5359000000003	0.1324796718254219	68	systole	5	B	500	systole
956.6559000000002	0.1324796718254219	68	systole	6	B	500	systole
957.7557999999999	0.1324796718254219	68	systole	7	B	500	systole
958.8658	0.1324796718254219	68	systole	8	B	500	systole
959.9758000000002	0.1324796718254219	68	systole	9	B	500	systole
961.0633000000003	0.1324796718254219	68	systole	10	B	500	systole
967.0437000000002	0.1231497176631819	69	diastole	1	B	500	diastole
968.0516000000002	0.1231497176631819	69	diastole	2	B	500	diastole
969.1016	0.1231497176631819	69	diastole	3	B	500	diastole
970.1811000000002	0.1231497176631819	69	diastole	4	B	500	diastole
971.2606000000001	0.1231497176631819	69	diastole	5	B	500	diastole
972.3400999999999	0.1231497176631819	69	diastole	6	B	500	diastole
973.5018	0.1231497176631819	69	diastole	7	B	500	diastole
974.6318000000001	0.1231497176631819	69	diastole	8	B	500	diastole
975.7930000000001	0.1231497176631819	69	diastole	9	B	500	diastole
980.9654	0.1337821141933091	70	diastole	1	B	500	diastole
982.1201000000001	0.1337821141933091	70	diastole	2	B	500	diastole
983.2501000000002	0.1337821141933091	70	diastole	3	B	500	diastole
984.3702000000003	0.1337821141933091	70	diastole	4	B	500	diastole
985.4902999999999	0.1337821141933091	70	diastole	5	B	500	diastole
986.6206000000002	0.1337821141933091	70	diastole	6	B	500	diastole
987.7458000000001	0.1337821141933091	70	diastole	7	B	500	diastole
988.7959000000001	0.1337821141933091	70	diastole	8	B	500	diastole
992.6731	0.1374791991256643	71	diastole	1	B	500	diastole
993.5104999999999	0.1374791991256643	71	diastole	2	B	500	diastole
994.3688000000002	0.1374791991256643	71	diastole	3	B	500	diastole
995.2688000000003	0.1374791991256643	71	diastole	4	B	500	diastole
996.2819	0.1374791991256643	71	diastole	5	B	500	diastole
997.4118000000003	0.1374791991256643	71	diastole	6	B	500	diastole
998.5418	0.1374791991256643	71	diastole	7	B	500	diastole
999.7119000000002	0.1374791991256643	71	diastole	8	B	500	diastole
1000.8935000000001	0.1374791991256643	71	diastole	9	B	500	diastole
1003.8326999999999	0.139380927052116	72	systole	1	B	500	diastole
1004.7627000000002	0.139380927052116	72	systole	2	B	500	diastole
1005.6129000000001	0.139380927052116	72	systole	3	B	500	diastole
1006.4829	0.139380927052116	72	systole	4	B	500	diastole
1007.4045000000001	0.139380927052116	72	systole	5	B	500	diastole
1008.3843999999999	0.139380927052116	72	systole	6	B	500	diastole
1009.3643000000002	0.139380927052116	72	systole	7	B	500	diastole
1010.4967999999999	0.139380927052116	72	systole	8	B	500	diastole
1011.6468	0.139380927052116	72	systole	9	B	500	diastole
1012.7964999999999	0.139380927052116	72	systole	10	B	500	diastole
1015.8369000000002	0.1368761812918819	73	diastole	1	B	500	diastole
1016.7870000000003	0.1368761812918819	73	diastole	2	B	500	diastole
1017.6869000000002	0.1368761812918819	73	diastole	3	B	500	diastole
1018.5570000000002	0.1368761812918819	73	diastole	4	B	500	diastole
1019.5187000000001	0.1368761812918819	73	diastole	5	B	500	diastole
1020.4736000000003	0.1368761812918819	73	diastole	6	B	500	diastole
1021.5036	0.1368761812918819	73	diastole	7	B	500	diastole
1022.6035999999999	0.1368761812918819	73	diastole	8	B	500	diastole
1023.7336	0.1368761812918819	73	diastole	9	B	500	diastole
1024.8552	0.1368761812918819	73	diastole	10	B	500	diastole
1028.8755	0.1300097743514925	74	diastole	1	B	500	diastole
1029.8255	0.1300097743514925	74	diastole	2	B	500	diastole
1030.837	0.1300097743514925	74	diastole	3	B	500	diastole
1031.8032000000003	0.1300097743514925	74	diastole	4	B	500	diastole
1032.8031	0.1300097743514925	74	diastole	5	B	500	diastole
1033.7465000000002	0.1300097743514925	74	diastole	6	B	500	diastole
1034.7064	0.1300097743514925	74	diastole	7	B	500	diastole
1035.7584000000002	0.1300097743514925	74	diastole	8	B	500	diastole
1036.8182000000002	0.1300097743514925	74	diastole	9	B	500	diastole
1043.0387	0.1250044399348553	75	diastole	1	B	500	diastole
1043.7386999999999	0.1250044399348553	75	diastole	2	B	500	diastole
1044.3084	0.1250044399348553	75	diastole	3	B	500	diastole
1044.8921	0.1250044399348553	75	diastole	4	B	500	diastole
1045.7502	0.1250044399348553	75	diastole	5	B	500	diastole
1046.6504	0.1250044399348553	75	diastole	6	B	500	diastole
1047.6805	0.1250044399348553	75	diastole	7	B	500	diastole
1048.8205000000003	0.1250044399348553	75	diastole	8	B	500	diastole
1049.9605000000001	0.1250044399348553	75	diastole	9	B	500	diastole
1051.3612000000003	0.1250044399348553	75	diastole	10	B	500	diastole
1055.7847000000002	0.1406292971805669	76	systole	1	B	500	diastole
1056.7551000000003	0.1406292971805669	76	systole	2	B	500	diastole
1057.7247000000002	0.1406292971805669	76	systole	3	B	500	diastole
1058.7847000000002	0.1406292971805669	76	systole	4	B	500	diastole
1059.9349000000002	0.1406292971805669	76	systole	5	B	500	diastole
1061.0948000000003	0.1406292971805669	76	systole	6	B	500	diastole
1062.2546000000002	0.1406292971805669	76	systole	7	B	500	diastole
1063.4247	0.1406292971805669	76	systole	8	B	500	diastole
1067.3987000000002	0.1437578799668699	77	diastole	1	B	500	diastole
1068.3687	0.1437578799668699	77	diastole	2	B	500	diastole
1069.3987000000002	0.1437578799668699	77	diastole	3	B	500	diastole
1070.4287	0.1437578799668699	77	diastole	4	B	500	diastole
1071.542	0.1437578799668699	77	diastole	5	B	500	diastole
1072.7218000000003	0.1437578799668699	77	diastole	6	B	500	diastole
1073.8919	0.1437578799668699	77	diastole	7	B	500	diastole
1075.062	0.1437578799668699	77	diastole	8	B	500	diastole
1080.6868	0.1411492760526016	78	diastole	1	B	500	diastole
1081.5868	0.1411492760526016	78	diastole	2	B	500	diastole
1082.4186	0.1411492760526016	78	diastole	3	B	500	diastole
1083.4171000000001	0.1411492760526016	78	diastole	4	B	500	diastole
1084.587	0.1411492760526016	78	diastole	5	B	500	diastole
1085.7468	0.1411492760526016	78	diastole	6	B	500	diastole
1086.9067	0.1411492760526016	78	diastole	7	B	500	diastole
1088.0666	0.1411492760526016	78	diastole	8	B	500	diastole
1096.9081	0.1393771325529087	79	diastole	1	B	500	diastole
1097.8684000000003	0.1393771325529087	79	diastole	2	B	500	diastole
1098.8787000000002	0.1393771325529087	79	diastole	3	B	500	diastole
1099.8890999999999	0.1393771325529087	79	diastole	4	B	500	diastole
1100.9223000000002	0.1393771325529087	79	diastole	5	B	500	diastole
1102.0785	0.1393771325529087	79	diastole	6	B	500	diastole
1103.2586000000001	0.1393771325529087	79	diastole	7	B	500	diastole
1104.3885	0.1393771325529087	79	diastole	8	B	500	diastole
1105.5504	0.1393771325529087	79	diastole	9	B	500	diastole
1108.2427000000002	0.1349842061754316	80	systole	1	B	500	diastole
1109.3826	0.1349842061754316	80	systole	2	B	500	diastole
1110.5086000000001	0.1349842061754316	80	systole	3	B	500	diastole
1111.6028000000001	0.1349842061754316	80	systole	4	B	500	diastole
1112.6212	0.1349842061754316	80	systole	5	B	500	diastole
1113.5948000000003	0.1349842061754316	80	systole	6	B	500	diastole
1114.6149	0.1349842061754316	80	systole	7	B	500	diastole
1115.6350000000002	0.1349842061754316	80	systole	8	B	500	diastole
1116.6551	0.1349842061754316	80	systole	9	B	500	diastole
1117.7257	0.1349842061754316	80	systole	10	B	500	diastole
1122.9228000000003	0.1356964590377174	81	diastole	1	B	500	diastole
1123.9428000000003	0.1356964590377174	81	diastole	2	B	500	diastole
1124.9628000000002	0.1356964590377174	81	diastole	3	B	500	diastole
1125.9728	0.1356964590377174	81	diastole	4	B	500	diastole
1127.0636	0.1356964590377174	81	diastole	5	B	500	diastole
1128.1635999999999	0.1356964590377174	81	diastole	6	B	500	diastole
1129.2835	0.1356964590377174	81	diastole	7	B	500	diastole
1130.4033	0.1356964590377174	81	diastole	8	B	500	diastole
1131.5230999999999	0.1356964590377174	81	diastole	9	B	500	diastole
1141.5939000000003	0.1106424414901994	82	systole	1	B	500	systole
1142.4397	0.1106424414901994	82	systole	2	B	500	systole
1143.2462	0.1106424414901994	82	systole	3	B	500	systole
1144.0528	0.1106424414901994	82	systole	4	B	500	systole
1144.8827999999999	0.1106424414901994	82	systole	5	B	500	systole
1145.9179	0.1106424414901994	82	systole	6	B	500	systole
1146.9737	0.1106424414901994	82	systole	7	B	500	systole
1148.029	0.1106424414901994	82	systole	8	B	500	systole
1149.0985	0.1106424414901994	82	systole	9	B	500	systole
1150.1974	0.1106424414901994	82	systole	10	B	500	systole
1153.7015999999999	0.1237600419262889	83	diastole	1	B	500	diastole
1154.6513	0.1237600419262889	83	diastole	2	B	500	diastole
1155.4314	0.1237600419262889	83	diastole	3	B	500	diastole
1155.8101000000001	0.1237600419262889	83	diastole	4	B	500	diastole
1156.5493000000001	0.1237600419262889	83	diastole	5	B	500	diastole
1157.6190000000001	0.1237600419262889	83	diastole	6	B	500	diastole
1158.7391000000002	0.1237600419262889	83	diastole	7	B	500	diastole
1159.9207000000001	0.1237600419262889	83	diastole	8	B	500	diastole
1161.1023	0.1237600419262889	83	diastole	9	B	500	diastole
1162.4732	0.1237600419262889	83	diastole	10	B	500	diastole
1165.1085000000003	0.1437816354737151	84	systole	1	B	500	diastole
1166.2883000000002	0.1437816354737151	84	systole	2	B	500	diastole
1167.4680000000003	0.1437816354737151	84	systole	3	B	500	diastole
1168.6081	0.1437816354737151	84	systole	4	B	500	diastole
1169.7481000000002	0.1437816354737151	84	systole	5	B	500	diastole
1170.7779	0.1437816354737151	84	systole	6	B	500	diastole
1171.7780000000002	0.1437816354737151	84	systole	7	B	500	diastole
1172.8445000000002	0.1437816354737151	84	systole	8	B	500	diastole
1173.8804	0.1437816354737151	84	systole	9	B	500	diastole
1177.5653000000002	0.1375154390989337	85	diastole	1	B	500	diastole
1178.6752999999999	0.1375154390989337	85	diastole	2	B	500	diastole
1179.7653	0.1375154390989337	85	diastole	3	B	500	diastole
1180.7954	0.1375154390989337	85	diastole	4	B	500	diastole
1181.8951000000002	0.1375154390989337	85	diastole	5	B	500	diastole
1183.0152000000003	0.1375154390989337	85	diastole	6	B	500	diastole
1184.1352000000002	0.1375154390989337	85	diastole	7	B	500	diastole
1185.2735000000002	0.1375154390989337	85	diastole	8	B	500	diastole
1196.5135	0.1193811749399174	86	diastole	1	B	500	systole
1197.6602000000003	0.1193811749399174	86	diastole	2	B	500	systole
1198.8101000000001	0.1193811749399174	86	diastole	3	B	500	systole
1199.9599000000003	0.1193811749399174	86	diastole	4	B	500	systole
1201.2584000000002	0.1193811749399174	86	diastole	5	B	500	systole
1202.4798	0.1193811749399174	86	diastole	6	B	500	systole
1203.5564	0.1193811749399174	86	diastole	7	B	500	systole
1207.0810000000001	0.1387527383340057	87	systole	1	B	500	diastole
1207.9277000000002	0.1387527383340057	87	systole	2	B	500	diastole
1208.7977	0.1387527383340057	87	systole	3	B	500	diastole
1209.69	0.1387527383340057	87	systole	4	B	500	diastole
1210.6924	0.1387527383340057	87	systole	5	B	500	diastole
1211.7927	0.1387527383340057	87	systole	6	B	500	diastole
1212.9926	0.1387527383340057	87	systole	7	B	500	diastole
1214.1742	0.1387527383340057	87	systole	8	B	500	diastole
1215.3262	0.1387527383340057	87	systole	9	B	500	diastole
1221.1104	0.1393925599113572	88	diastole	1	B	500	diastole
1221.9885	0.1393925599113572	88	diastole	2	B	500	diastole
1222.9086000000002	0.1393925599113572	88	diastole	3	B	500	diastole
1223.8000000000002	0.1393925599113572	88	diastole	4	B	500	diastole
1224.7999	0.1393925599113572	88	diastole	5	B	500	diastole
1225.8501	0.1393925599113572	88	diastole	6	B	500	diastole
1226.9999000000003	0.1393925599113572	88	diastole	7	B	500	diastole
1228.1497	0.1393925599113572	88	diastole	8	B	500	diastole
1229.2797	0.1393925599113572	88	diastole	9	B	500	diastole
1234.0138000000002	0.13198809674941	89	systole	1	B	500	diastole
1234.9102000000003	0.13198809674941	89	systole	2	B	500	diastole
1235.8299000000002	0.13198809674941	89	systole	3	B	500	diastole
1236.9182	0.13198809674941	89	systole	4	B	500	diastole
1238.0181000000002	0.13198809674941	89	systole	5	B	500	diastole
1239.1531	0.13198809674941	89	systole	6	B	500	diastole
1240.333	0.13198809674941	89	systole	7	B	500	diastole
1241.4614000000001	0.13198809674941	89	systole	8	B	500	diastole
1242.5137	0.13198809674941	89	systole	9	B	500	diastole
1246.5875	0.135613726451993	90	systole	1	B	500	systole
1247.6877	0.135613726451993	90	systole	2	B	500	systole
1248.8177	0.135613726451993	90	systole	3	B	500	systole
1249.9477000000002	0.135613726451993	90	systole	4	B	500	systole
1251.0876000000003	0.135613726451993	90	systole	5	B	500	systole
1252.2276000000002	0.135613726451993	90	systole	6	B	500	systole
1253.3692	0.135613726451993	90	systole	7	B	500	systole
1254.5107000000003	0.135613726451993	90	systole	8	B	500	systole
1255.5891000000001	0.135613726451993	90	systole	9	B	500	systole
1258.5665	0.1386798814928624	91	systole	1	B	500	systole
1259.5319	0.1386798814928624	91	systole	2	B	500	systole
1260.4728	0.1386798814928624	91	systole	3	B	500	systole
1261.4432000000002	0.1386798814928624	91	systole	4	B	500	systole
1262.5080000000003	0.1386798814928624	91	systole	5	B	500	systole
1263.6379000000002	0.1386798814928624	91	systole	6	B	500	systole
1264.7637	0.1386798814928624	91	systole	7	B	500	systole
1265.7644	0.1386798814928624	91	systole	8	B	500	systole
1266.7648	0.1386798814928624	91	systole	9	B	500	systole
1267.7646	0.1386798814928624	91	systole	10	B	500	systole
1271.6147	0.1281325482123065	92	diastole	1	B	500	diastole
1272.7048	0.1281325482123065	92	diastole	2	B	500	diastole
1273.7048	0.1281325482123065	92	diastole	3	B	500	diastole
1274.6075	0.1281325482123065	92	diastole	4	B	500	diastole
1275.6177000000002	0.1281325482123065	92	diastole	5	B	500	diastole
1276.6892000000003	0.1281325482123065	92	diastole	6	B	500	diastole
1277.7759	0.1281325482123065	92	diastole	7	B	500	diastole
1278.7458000000001	0.1281325482123065	92	diastole	8	B	500	diastole
1279.7157000000002	0.1281325482123065	92	diastole	9	B	500	diastole
1284.5057000000002	0.1193713582179043	93	systole	1	B	500	diastole
1285.5656	0.1193713582179043	93	systole	2	B	500	diastole
1286.4694	0.1193713582179043	93	systole	3	B	500	diastole
1287.3975	0.1193713582179043	93	systole	4	B	500	diastole
1288.3256999999999	0.1193713582179043	93	systole	5	B	500	diastole
1289.3627999999999	0.1193713582179043	93	systole	6	B	500	diastole
1290.4178000000002	0.1193713582179043	93	systole	7	B	500	diastole
1291.4841999999999	0.1193713582179043	93	systole	8	B	500	diastole
1292.4843	0.1193713582179043	93	systole	9	B	500	diastole
1296.8510999999999	0.1306306975602638	94	systole	1	B	500	systole
1297.8011000000001	0.1306306975602638	94	systole	2	B	500	systole
1298.7511	0.1306306975602638	94	systole	3	B	500	systole
1299.701	0.1306306975602638	94	systole	4	B	500	systole
1300.8524000000002	0.1306306975602638	94	systole	5	B	500	systole
1301.9624	0.1306306975602638	94	systole	6	B	500	systole
1303.1127000000001	0.1306306975602638	94	systole	7	B	500	systole
1304.2627000000002	0.1306306975602638	94	systole	8	B	500	systole
1305.4128	0.1306306975602638	94	systole	9	B	500	systole
1308.6583	0.1400009937351569	95	systole	1	B	500	diastole
1309.6181000000001	0.1400009937351569	95	systole	2	B	500	diastole
1310.5083	0.1400009937351569	95	systole	3	B	500	diastole
1311.4559	0.1400009937351569	95	systole	4	B	500	diastole
1312.4559	0.1400009937351569	95	systole	5	B	500	diastole
1313.5027	0.1400009937351569	95	systole	6	B	500	diastole
1314.6528000000003	0.1400009937351569	95	systole	7	B	500	diastole
1315.7927	0.1400009937351569	95	systole	8	B	500	diastole
1316.9027	0.1400009937351569	95	systole	9	B	500	diastole
1322.9685	0.1337557562510483	96	systole	1	B	500	diastole
1323.9085	0.1337557562510483	96	systole	2	B	500	diastole
1324.8359	0.1337557562510483	96	systole	3	B	500	diastole
1325.9359	0.1337557562510483	96	systole	4	B	500	diastole
1327.0657	0.1337557562510483	96	systole	5	B	500	diastole
1328.1956	0.1337557562510483	96	systole	6	B	500	diastole
1329.2991000000002	0.1337557562510483	96	systole	7	B	500	diastole
1330.4049	0.1337557562510483	96	systole	8	B	500	diastole
1331.5048000000002	0.1337557562510483	96	systole	9	B	500	diastole
1338.5587	0.136877450189786	97	diastole	1	B	500	diastole
1339.6088	0.136877450189786	97	diastole	2	B	500	diastole
1340.7669	0.136877450189786	97	diastole	3	B	500	diastole
1341.9169000000002	0.136877450189786	97	diastole	4	B	500	diastole
1343.0538000000001	0.136877450189786	97	diastole	5	B	500	diastole
1344.1739000000002	0.136877450189786	97	diastole	6	B	500	diastole
1345.2521000000002	0.136877450189786	97	diastole	7	B	500	diastole
1346.2186000000002	0.136877450189786	97	diastole	8	B	500	diastole
1351.1217000000001	0.1312650062318425	98	diastole	1	B	500	diastole
1352.0548	0.1312650062318425	98	diastole	2	B	500	diastole
1353.0048000000002	0.1312650062318425	98	diastole	3	B	500	diastole
1353.8136	0.1312650062318425	98	diastole	4	B	500	diastole
1354.7137000000002	0.1312650062318425	98	diastole	5	B	500	diastole
1355.6703000000002	0.1312650062318425	98	diastole	6	B	500	diastole
1356.8153000000002	0.1312650062318425	98	diastole	7	B	500	diastole
1358.0149999999999	0.1312650062318425	98	diastole	8	B	500	diastole
1359.165	0.1312650062318425	98	diastole	9	B	500	diastole
1360.315	0.1312650062318425	98	diastole	10	B	500	diastole
1365.5533	0.1287519506004173	99	systole	1	B	500	systole
1366.5532000000003	0.1287519506004173	99	systole	2	B	500	systole
1367.5183000000002	0.1287519506004173	99	systole	3	B	500	systole
1368.5182	0.1287519506004173	99	systole	4	B	500	systole
1369.5183000000002	0.1287519506004173	99	systole	5	B	500	systole
1370.5682000000002	0.1287519506004173	99	systole	6	B	500	systole
1371.6882	0.1287519506004173	99	systole	7	B	500	systole
1372.7981	0.1287519506004173	99	systole	8	B	500	systole
1373.8975	0.1287519506004173	99	systole	9	B	500	systole
1381.8953000000001	0.1032293626631144	100	systole	1	B	500	diastole
1382.7953000000002	0.1032293626631144	100	systole	2	B	500	diastole
1383.6952	0.1032293626631144	100	systole	3	B	500	diastole
1384.6635999999999	0.1032293626631144	100	systole	4	B	500	diastole
1385.6434	0.1032293626631144	100	systole	5	B	500	diastole
1386.5908	0.1032293626631144	100	systole	6	B	500	diastole
1387.6190000000001	0.1032293626631144	100	systole	7	B	500	diastole
1388.5753	0.1032293626631144	100	systole	8	B	500	diastole
1389.5257000000001	0.1032293626631144	100	systole	9	B	500	diastole
1390.5372000000002	0.1032293626631144	100	systole	10	B	500	diastole
