onset	duration	trial_num	trial_type	tone_num	tone_type	frequency	response
133.1706	0.0987492624262813	1	diastole	1	A	1578.5670027440333	coherent
133.3753	0.0987492624262813	1	diastole	2	B	500.0	coherent
133.5807	0.0987492624262813	1	diastole	3	A	1578.5670027440333	coherent
134.112	0.0987492624262813	1	diastole	4	A	1578.5670027440333	coherent
134.3203	0.0987492624262813	1	diastole	5	B	500.0	coherent
134.5294	0.0987492624262813	1	diastole	6	A	1578.5670027440333	coherent
135.0019	0.0987492624262813	1	diastole	7	A	1578.5670027440333	coherent
135.2103	0.0987492624262813	1	diastole	8	B	500.0	coherent
135.4194	0.0987492624262813	1	diastole	9	A	1578.5670027440333	coherent
135.8919	0.0987492624262813	1	diastole	10	A	1578.5670027440333	coherent
136.1003	0.0987492624262813	1	diastole	11	B	500.0	coherent
136.3093	0.0987492624262813	1	diastole	12	A	1578.5670027440333	coherent
136.9259	0.0987492624262813	1	diastole	13	A	1578.5670027440333	coherent
137.1455	0.0987492624262813	1	diastole	14	B	500.0	coherent
137.3659	0.0987492624262813	1	diastole	15	A	1578.5670027440333	coherent
137.8959	0.0987492624262813	1	diastole	16	A	1578.5670027440333	coherent
138.1155	0.0987492624262813	1	diastole	17	B	500.0	coherent
138.3359	0.0987492624262813	1	diastole	18	A	1578.5670027440333	coherent
138.8659	0.0987492624262813	1	diastole	19	A	1578.5670027440333	coherent
139.0855	0.0987492624262813	1	diastole	20	B	500.0	coherent
139.3059	0.0987492624262813	1	diastole	21	A	1578.5670027440333	coherent
139.7801	0.0987492624262813	1	diastole	22	A	1578.5670027440333	coherent
140.0023	0.0987492624262813	1	diastole	23	B	500.0	coherent
140.2251	0.0987492624262813	1	diastole	24	A	1578.5670027440333	coherent
140.6802	0.0987492624262813	1	diastole	25	A	1578.5670027440333	coherent
140.9023	0.0987492624262813	1	diastole	26	B	500.0	coherent
141.1252	0.0987492624262813	1	diastole	27	A	1578.5670027440333	coherent
141.5019	0.0987492624262813	1	diastole	28	A	1578.5670027440333	coherent
141.719	0.0987492624262813	1	diastole	29	B	500.0	coherent
141.9369	0.0987492624262813	1	diastole	30	A	1578.5670027440333	coherent
149.86	0.1023793705971911	2	systole	1	A	1578.5670027440333	coherent
150.0672	0.1023793705971911	2	systole	2	B	500.0	coherent
150.275	0.1023793705971911	2	systole	3	A	1578.5670027440333	coherent
150.7092	0.1023793705971911	2	systole	4	A	1578.5670027440333	coherent
150.9188	0.1023793705971911	2	systole	5	B	500.0	coherent
151.1291	0.1023793705971911	2	systole	6	A	1578.5670027440333	coherent
151.5492	0.1023793705971911	2	systole	7	A	1578.5670027440333	coherent
151.7588	0.1023793705971911	2	systole	8	B	500.0	coherent
151.9691	0.1023793705971911	2	systole	9	A	1578.5670027440333	coherent
152.3192	0.1023793705971911	2	systole	10	A	1578.5670027440333	coherent
152.5288	0.1023793705971911	2	systole	11	B	500.0	coherent
152.7391	0.1023793705971911	2	systole	12	A	1578.5670027440333	coherent
153.08	0.1023793705971911	2	systole	13	A	1578.5670027440333	coherent
153.2872	0.1023793705971911	2	systole	14	B	500.0	coherent
153.495	0.1023793705971911	2	systole	15	A	1578.5670027440333	coherent
153.8764	0.1023793705971911	2	systole	16	A	1578.5670027440333	coherent
154.0798	0.1023793705971911	2	systole	17	B	500.0	coherent
154.2839	0.1023793705971911	2	systole	18	A	1578.5670027440333	coherent
154.7264	0.1023793705971911	2	systole	19	A	1578.5670027440333	coherent
154.9298	0.1023793705971911	2	systole	20	B	500.0	coherent
155.1339	0.1023793705971911	2	systole	21	A	1578.5670027440333	coherent
155.5318	0.1023793705971911	2	systole	22	A	1578.5670027440333	coherent
155.734	0.1023793705971911	2	systole	23	B	500.0	coherent
155.9368	0.1023793705971911	2	systole	24	A	1578.5670027440333	coherent
156.3419	0.1023793705971911	2	systole	25	A	1578.5670027440333	coherent
156.5441	0.1023793705971911	2	systole	26	B	500.0	coherent
156.7469	0.1023793705971911	2	systole	27	A	1578.5670027440333	coherent
157.1519	0.1023793705971911	2	systole	28	A	1578.5670027440333	coherent
157.3541	0.1023793705971911	2	systole	29	B	500.0	coherent
157.5569	0.1023793705971911	2	systole	30	A	1578.5670027440333	coherent
158.0119	0.1023793705971911	2	systole	31	A	1578.5670027440333	coherent
158.2141	0.1023793705971911	2	systole	32	B	500.0	coherent
158.4169	0.1023793705971911	2	systole	33	A	1578.5670027440333	coherent
158.7818	0.1023793705971911	2	systole	34	A	1578.5670027440333	coherent
158.984	0.1023793705971911	2	systole	35	B	500.0	coherent
159.1869	0.1023793705971911	2	systole	36	A	1578.5670027440333	coherent
159.5518	0.1023793705971911	2	systole	37	A	1578.5670027440333	coherent
159.754	0.1023793705971911	2	systole	38	B	500.0	coherent
159.9568	0.1023793705971911	2	systole	39	A	1578.5670027440333	coherent
165.6317	0.1068692750122863	3	systole	1	A	2180.0224995339627	coherent
165.848	0.1068692750122863	3	systole	2	B	500.0	coherent
166.0641	0.1068692750122863	3	systole	3	A	2180.0224995339627	coherent
166.5517	0.1068692750122863	3	systole	4	A	2180.0224995339627	coherent
166.768	0.1068692750122863	3	systole	5	B	500.0	coherent
166.9842	0.1068692750122863	3	systole	6	A	2180.0224995339627	coherent
167.441	0.1068692750122863	3	systole	7	A	2180.0224995339627	coherent
167.6598	0.1068692750122863	3	systole	8	B	500.0	coherent
167.8785	0.1068692750122863	3	systole	9	A	2180.0224995339627	coherent
168.3255	0.1068692750122863	3	systole	10	A	2180.0224995339627	coherent
168.5456	0.1068692750122863	3	systole	11	B	500.0	coherent
168.7656	0.1068692750122863	3	systole	12	A	2180.0224995339627	coherent
169.2157	0.1068692750122863	3	systole	13	A	2180.0224995339627	coherent
169.4358	0.1068692750122863	3	systole	14	B	500.0	coherent
169.6557	0.1068692750122863	3	systole	15	A	2180.0224995339627	coherent
170.0557	0.1068692750122863	3	systole	16	A	2180.0224995339627	coherent
170.2758	0.1068692750122863	3	systole	17	B	500.0	coherent
170.4957	0.1068692750122863	3	systole	18	A	2180.0224995339627	coherent
170.9073	0.1068692750122863	3	systole	19	A	2180.0224995339627	coherent
171.1274	0.1068692750122863	3	systole	20	B	500.0	coherent
171.3473	0.1068692750122863	3	systole	21	A	2180.0224995339627	coherent
171.759	0.1068692750122863	3	systole	22	A	2180.0224995339627	coherent
171.9791	0.1068692750122863	3	systole	23	B	500.0	coherent
172.199	0.1068692750122863	3	systole	24	A	2180.0224995339627	coherent
172.669	0.1068692750122863	3	systole	25	A	2180.0224995339627	coherent
172.8891	0.1068692750122863	3	systole	26	B	500.0	coherent
173.1091	0.1068692750122863	3	systole	27	A	2180.0224995339627	coherent
173.5295	0.1068692750122863	3	systole	28	A	2180.0224995339627	coherent
173.7495	0.1068692750122863	3	systole	29	B	500.0	coherent
173.9695	0.1068692750122863	3	systole	30	A	2180.0224995339627	coherent
174.31	0.1068692750122863	3	systole	31	A	2180.0224995339627	coherent
174.5276	0.1068692750122863	3	systole	32	B	500.0	coherent
174.7451	0.1068692750122863	3	systole	33	A	2180.0224995339627	coherent
179.7388	0.1100472985999658	4	systole	1	A	1987.9452401467304	coherent
179.965	0.1100472985999658	4	systole	2	B	500.0	coherent
180.1913	0.1100472985999658	4	systole	3	A	1987.9452401467304	coherent
180.663	0.1100472985999658	4	systole	4	A	1987.9452401467304	coherent
180.8906	0.1100472985999658	4	systole	5	B	500.0	coherent
181.1181	0.1100472985999658	4	systole	6	A	1987.9452401467304	coherent
181.5829	0.1100472985999658	4	systole	7	A	1987.9452401467304	coherent
181.8103	0.1100472985999658	4	systole	8	B	500.0	coherent
182.0379	0.1100472985999658	4	systole	9	A	1987.9452401467304	coherent
182.4446	0.1100472985999658	4	systole	10	A	1987.9452401467304	coherent
182.6672	0.1100472985999658	4	systole	11	B	500.0	coherent
182.8897	0.1100472985999658	4	systole	12	A	1987.9452401467304	coherent
183.3537	0.1100472985999658	4	systole	13	A	1987.9452401467304	coherent
183.5788	0.1100472985999658	4	systole	14	B	500.0	coherent
183.8038	0.1100472985999658	4	systole	15	A	1987.9452401467304	coherent
184.2229	0.1100472985999658	4	systole	16	A	1987.9452401467304	coherent
184.4503	0.1100472985999658	4	systole	17	B	500.0	coherent
184.6779	0.1100472985999658	4	systole	18	A	1987.9452401467304	coherent
185.0037	0.1100472985999658	4	systole	19	A	1987.9452401467304	coherent
185.2287	0.1100472985999658	4	systole	20	B	500.0	coherent
185.4538	0.1100472985999658	4	systole	21	A	1987.9452401467304	coherent
185.7937	0.1100472985999658	4	systole	22	A	1987.9452401467304	coherent
186.0187	0.1100472985999658	4	systole	23	B	500.0	coherent
186.2438	0.1100472985999658	4	systole	24	A	1987.9452401467304	coherent
186.5837	0.1100472985999658	4	systole	25	A	1987.9452401467304	coherent
186.8087	0.1100472985999658	4	systole	26	B	500.0	coherent
187.0337	0.1100472985999658	4	systole	27	A	1987.9452401467304	coherent
187.3736	0.1100472985999658	4	systole	28	A	1987.9452401467304	coherent
187.5986	0.1100472985999658	4	systole	29	B	500.0	coherent
187.8237	0.1100472985999658	4	systole	30	A	1987.9452401467304	coherent
188.3136	0.1100472985999658	4	systole	31	A	1987.9452401467304	coherent
188.5386	0.1100472985999658	4	systole	32	B	500.0	coherent
188.7636	0.1100472985999658	4	systole	33	A	1987.9452401467304	coherent
192.2137	0.1137525403755717	5	systole	1	A	2942.014383864825	coherent
192.4387	0.1137525403755717	5	systole	2	B	500.0	coherent
192.6636	0.1137525403755717	5	systole	3	A	2942.014383864825	coherent
193.0836	0.1137525403755717	5	systole	4	A	2942.014383864825	coherent
193.3086	0.1137525403755717	5	systole	5	B	500.0	coherent
193.5336	0.1137525403755717	5	systole	6	A	2942.014383864825	coherent
193.9535	0.1137525403755717	5	systole	7	A	2942.014383864825	coherent
194.1786	0.1137525403755717	5	systole	8	B	500.0	coherent
194.4035	0.1137525403755717	5	systole	9	A	2942.014383864825	coherent
194.8728	0.1137525403755717	5	systole	10	A	2942.014383864825	coherent
195.1003	0.1137525403755717	5	systole	11	B	500.0	coherent
195.3277	0.1137525403755717	5	systole	12	A	2942.014383864825	coherent
195.7427	0.1137525403755717	5	systole	13	A	2942.014383864825	coherent
195.9703	0.1137525403755717	5	systole	14	B	500.0	coherent
196.1977	0.1137525403755717	5	systole	15	A	2942.014383864825	coherent
196.6438	0.1137525403755717	5	systole	16	A	2942.014383864825	coherent
196.8689	0.1137525403755717	5	systole	17	B	500.0	coherent
197.0938	0.1137525403755717	5	systole	18	A	2942.014383864825	coherent
197.613	0.1137525403755717	5	systole	19	A	2942.014383864825	coherent
197.8406	0.1137525403755717	5	systole	20	B	500.0	coherent
198.068	0.1137525403755717	5	systole	21	A	2942.014383864825	coherent
198.573	0.1137525403755717	5	systole	22	A	2942.014383864825	coherent
198.8006	0.1137525403755717	5	systole	23	B	500.0	coherent
199.028	0.1137525403755717	5	systole	24	A	2942.014383864825	coherent
199.533	0.1137525403755717	5	systole	25	A	2942.014383864825	coherent
199.7606	0.1137525403755717	5	systole	26	B	500.0	coherent
199.988	0.1137525403755717	5	systole	27	A	2942.014383864825	coherent
200.3547	0.1137525403755717	5	systole	28	A	2942.014383864825	coherent
200.5773	0.1137525403755717	5	systole	29	B	500.0	coherent
200.7997	0.1137525403755717	5	systole	30	A	2942.014383864825	coherent
201.1764	0.1137525403755717	5	systole	31	A	2942.014383864825	coherent
201.3939	0.1137525403755717	5	systole	32	B	500.0	coherent
201.6113	0.1137525403755717	5	systole	33	A	2942.014383864825	coherent
205.0906	0.1112191874999553	6	diastole	1	A	2180.0224995339627	coherent
205.3169	0.1112191874999553	6	diastole	2	B	500.0	coherent
205.543	0.1112191874999553	6	diastole	3	A	2180.0224995339627	coherent
205.9907	0.1112191874999553	6	diastole	4	A	2180.0224995339627	coherent
206.2169	0.1112191874999553	6	diastole	5	B	500.0	coherent
206.4431	0.1112191874999553	6	diastole	6	A	2180.0224995339627	coherent
206.931	0.1112191874999553	6	diastole	7	A	2180.0224995339627	coherent
207.1573	0.1112191874999553	6	diastole	8	B	500.0	coherent
207.3834	0.1112191874999553	6	diastole	9	A	2180.0224995339627	coherent
207.7329	0.1112191874999553	6	diastole	10	A	2180.0224995339627	coherent
207.9543	0.1112191874999553	6	diastole	11	B	500.0	coherent
208.1754	0.1112191874999553	6	diastole	12	A	2180.0224995339627	coherent
208.5629	0.1112191874999553	6	diastole	13	A	2180.0224995339627	coherent
208.7842	0.1112191874999553	6	diastole	14	B	500.0	coherent
209.0054	0.1112191874999553	6	diastole	15	A	2180.0224995339627	coherent
209.4671	0.1112191874999553	6	diastole	16	A	2180.0224995339627	coherent
209.6909	0.1112191874999553	6	diastole	17	B	500.0	coherent
209.9146	0.1112191874999553	6	diastole	18	A	2180.0224995339627	coherent
210.367	0.1112191874999553	6	diastole	19	A	2180.0224995339627	coherent
210.5909	0.1112191874999553	6	diastole	20	B	500.0	coherent
210.8146	0.1112191874999553	6	diastole	21	A	2180.0224995339627	coherent
211.1475	0.1112191874999553	6	diastole	22	A	2180.0224995339627	coherent
211.3675	0.1112191874999553	6	diastole	23	B	500.0	coherent
211.5875	0.1112191874999553	6	diastole	24	A	2180.0224995339627	coherent
211.9756	0.1112191874999553	6	diastole	25	A	2180.0224995339627	coherent
212.1957	0.1112191874999553	6	diastole	26	B	500.0	coherent
212.4156	0.1112191874999553	6	diastole	27	A	2180.0224995339627	coherent
212.8798	0.1112191874999553	6	diastole	28	A	2180.0224995339627	coherent
213.1024	0.1112191874999553	6	diastole	29	B	500.0	coherent
213.3248	0.1112191874999553	6	diastole	30	A	2180.0224995339627	coherent
213.7698	0.1112191874999553	6	diastole	31	A	2180.0224995339627	coherent
213.9924	0.1112191874999553	6	diastole	32	B	500.0	coherent
214.2148	0.1112191874999553	6	diastole	33	A	2180.0224995339627	coherent
218.9601	0.1068764732335694	7	diastole	1	A	1987.9452401467304	coherent
219.1739	0.1068764732335694	7	diastole	2	B	500.0	coherent
219.3876	0.1068764732335694	7	diastole	3	A	1987.9452401467304	coherent
219.8742	0.1068764732335694	7	diastole	4	A	1987.9452401467304	coherent
220.0904	0.1068764732335694	7	diastole	5	B	500.0	coherent
220.3066	0.1068764732335694	7	diastole	6	A	1987.9452401467304	coherent
220.8355	0.1068764732335694	7	diastole	7	A	1987.9452401467304	coherent
221.0554	0.1068764732335694	7	diastole	8	B	500.0	coherent
221.2754	0.1068764732335694	7	diastole	9	A	1987.9452401467304	coherent
221.7755	0.1068764732335694	7	diastole	10	A	1987.9452401467304	coherent
221.9954	0.1068764732335694	7	diastole	11	B	500.0	coherent
222.2155	0.1068764732335694	7	diastole	12	A	1987.9452401467304	coherent
222.6142	0.1068764732335694	7	diastole	13	A	1987.9452401467304	coherent
222.8304	0.1068764732335694	7	diastole	14	B	500.0	coherent
223.0467	0.1068764732335694	7	diastole	15	A	1987.9452401467304	coherent
223.4742	0.1068764732335694	7	diastole	16	A	1987.9452401467304	coherent
223.6904	0.1068764732335694	7	diastole	17	B	500.0	coherent
223.9067	0.1068764732335694	7	diastole	18	A	1987.9452401467304	coherent
224.2871	0.1068764732335694	7	diastole	19	A	1987.9452401467304	coherent
224.5021	0.1068764732335694	7	diastole	20	B	500.0	coherent
224.7171	0.1068764732335694	7	diastole	21	A	1987.9452401467304	coherent
225.1942	0.1068764732335694	7	diastole	22	A	1987.9452401467304	coherent
225.4104	0.1068764732335694	7	diastole	23	B	500.0	coherent
225.6267	0.1068764732335694	7	diastole	24	A	1987.9452401467304	coherent
226.1255	0.1068764732335694	7	diastole	25	A	1987.9452401467304	coherent
226.3455	0.1068764732335694	7	diastole	26	B	500.0	coherent
226.5655	0.1068764732335694	7	diastole	27	A	1987.9452401467304	coherent
226.9242	0.1068764732335694	7	diastole	28	A	1987.9452401467304	coherent
227.1404	0.1068764732335694	7	diastole	29	B	500.0	coherent
227.3567	0.1068764732335694	7	diastole	30	A	1987.9452401467304	coherent
229.7838	0.1075031499494798	8	systole	1	A	2446.423693900757	coherent
229.9949	0.1075031499494798	8	systole	2	B	500.0	coherent
230.2064	0.1075031499494798	8	systole	3	A	2446.423693900757	coherent
230.6965	0.1075031499494798	8	systole	4	A	2446.423693900757	coherent
230.9138	0.1075031499494798	8	systole	5	B	500.0	coherent
231.1315	0.1075031499494798	8	systole	6	A	2446.423693900757	coherent
231.6601	0.1075031499494798	8	systole	7	A	2446.423693900757	coherent
231.8812	0.1075031499494798	8	systole	8	B	500.0	coherent
232.1026	0.1075031499494798	8	systole	9	A	2446.423693900757	coherent
232.5601	0.1075031499494798	8	systole	10	A	2446.423693900757	coherent
232.7812	0.1075031499494798	8	systole	11	B	500.0	coherent
233.0026	0.1075031499494798	8	systole	12	A	2446.423693900757	coherent
233.3229	0.1075031499494798	8	systole	13	A	2446.423693900757	coherent
233.5365	0.1075031499494798	8	systole	14	B	500.0	coherent
233.7504	0.1075031499494798	8	systole	15	A	2446.423693900757	coherent
234.1328	0.1075031499494798	8	systole	16	A	2446.423693900757	coherent
234.3464	0.1075031499494798	8	systole	17	B	500.0	coherent
234.5604	0.1075031499494798	8	systole	18	A	2446.423693900757	coherent
234.9428	0.1075031499494798	8	systole	19	A	2446.423693900757	coherent
235.1564	0.1075031499494798	8	systole	20	B	500.0	coherent
235.3703	0.1075031499494798	8	systole	21	A	2446.423693900757	coherent
235.7527	0.1075031499494798	8	systole	22	A	2446.423693900757	coherent
235.9663	0.1075031499494798	8	systole	23	B	500.0	coherent
236.1802	0.1075031499494798	8	systole	24	A	2446.423693900757	coherent
236.6318	0.1075031499494798	8	systole	25	A	2446.423693900757	coherent
236.8479	0.1075031499494798	8	systole	26	B	500.0	coherent
237.0643	0.1075031499494798	8	systole	27	A	2446.423693900757	coherent
237.5018	0.1075031499494798	8	systole	28	A	2446.423693900757	coherent
237.7179	0.1075031499494798	8	systole	29	B	500.0	coherent
237.9344	0.1075031499494798	8	systole	30	A	2446.423693900757	coherent
238.4171	0.1075031499494798	8	systole	31	A	2446.423693900757	coherent
238.637	0.1075031499494798	8	systole	32	B	500.0	coherent
238.8571	0.1075031499494798	8	systole	33	A	2446.423693900757	coherent
248.6432	0.1150005816307384	9	systole	1	A	3538.000656405778	coherent
248.8707	0.1150005816307384	9	systole	2	B	500.0	coherent
249.0982	0.1150005816307384	9	systole	3	A	3538.000656405778	coherent
249.5531	0.1150005816307384	9	systole	4	A	3538.000656405778	coherent
249.7807	0.1150005816307384	9	systole	5	B	500.0	coherent
250.0082	0.1150005816307384	9	systole	6	A	3538.000656405778	coherent
250.4532	0.1150005816307384	9	systole	7	A	3538.000656405778	coherent
250.6807	0.1150005816307384	9	systole	8	B	500.0	coherent
250.9082	0.1150005816307384	9	systole	9	A	3538.000656405778	coherent
251.3533	0.1150005816307384	9	systole	10	A	3538.000656405778	coherent
251.5808	0.1150005816307384	9	systole	11	B	500.0	coherent
251.8083	0.1150005816307384	9	systole	12	A	3538.000656405778	coherent
252.2919	0.1150005816307384	9	systole	13	A	3538.000656405778	coherent
252.5218	0.1150005816307384	9	systole	14	B	500.0	coherent
252.7518	0.1150005816307384	9	systole	15	A	3538.000656405778	coherent
253.2214	0.1150005816307384	9	systole	16	A	3538.000656405778	coherent
253.4514	0.1150005816307384	9	systole	17	B	500.0	coherent
253.6813	0.1150005816307384	9	systole	18	A	3538.000656405778	coherent
254.0631	0.1150005816307384	9	systole	19	A	3538.000656405778	coherent
254.293	0.1150005816307384	9	systole	20	B	500.0	coherent
254.523	0.1150005816307384	9	systole	21	A	3538.000656405778	coherent
254.9047	0.1150005816307384	9	systole	22	A	3538.000656405778	coherent
255.1346	0.1150005816307384	9	systole	23	B	500.0	coherent
255.3646	0.1150005816307384	9	systole	24	A	3538.000656405778	coherent
255.7631	0.1150005816307384	9	systole	25	A	3538.000656405778	coherent
255.993	0.1150005816307384	9	systole	26	B	500.0	coherent
256.223	0.1150005816307384	9	systole	27	A	3538.000656405778	coherent
256.6557	0.1150005816307384	9	systole	28	A	3538.000656405778	coherent
256.8832	0.1150005816307384	9	systole	29	B	500.0	coherent
257.1107	0.1150005816307384	9	systole	30	A	3538.000656405778	coherent
259.4336	0.1124979868473019	10	systole	1	A	2942.014383864825	coherent
259.6587	0.1124979868473019	10	systole	2	B	500.0	coherent
259.8836	0.1124979868473019	10	systole	3	A	2942.014383864825	coherent
260.3637	0.1124979868473019	10	systole	4	A	2942.014383864825	coherent
260.5887	0.1124979868473019	10	systole	5	B	500.0	coherent
260.8136	0.1124979868473019	10	systole	6	A	2942.014383864825	coherent
261.2937	0.1124979868473019	10	systole	7	A	2942.014383864825	coherent
261.5187	0.1124979868473019	10	systole	8	B	500.0	coherent
261.7436	0.1124979868473019	10	systole	9	A	2942.014383864825	coherent
262.12	0.1124979868473019	10	systole	10	A	2942.014383864825	coherent
262.3386	0.1124979868473019	10	systole	11	B	500.0	coherent
262.5571	0.1124979868473019	10	systole	12	A	2942.014383864825	coherent
263.0383	0.1124979868473019	10	systole	13	A	2942.014383864825	coherent
263.2619	0.1124979868473019	10	systole	14	B	500.0	coherent
263.4854	0.1124979868473019	10	systole	15	A	2942.014383864825	coherent
263.9383	0.1124979868473019	10	systole	16	A	2942.014383864825	coherent
264.1619	0.1124979868473019	10	systole	17	B	500.0	coherent
264.3854	0.1124979868473019	10	systole	18	A	2942.014383864825	coherent
264.7783	0.1124979868473019	10	systole	19	A	2942.014383864825	coherent
265.0019	0.1124979868473019	10	systole	20	B	500.0	coherent
265.2254	0.1124979868473019	10	systole	21	A	2942.014383864825	coherent
265.6183	0.1124979868473019	10	systole	22	A	2942.014383864825	coherent
265.8419	0.1124979868473019	10	systole	23	B	500.0	coherent
266.0654	0.1124979868473019	10	systole	24	A	2942.014383864825	coherent
266.3862	0.1124979868473019	10	systole	25	A	2942.014383864825	coherent
266.6037	0.1124979868473019	10	systole	26	B	500.0	coherent
266.8212	0.1124979868473019	10	systole	27	A	2942.014383864825	coherent
267.1762	0.1124979868473019	10	systole	28	A	2942.014383864825	coherent
267.3938	0.1124979868473019	10	systole	29	B	500.0	coherent
267.6112	0.1124979868473019	10	systole	30	A	2942.014383864825	coherent
268.0371	0.1124979868473019	10	systole	31	A	2942.014383864825	coherent
268.2521	0.1124979868473019	10	systole	32	B	500.0	coherent
268.4671	0.1124979868473019	10	systole	33	A	2942.014383864825	coherent
270.6865	0.1087570090021472	11	systole	1	A	3152.7331318609326	coherent
270.9039	0.1087570090021472	11	systole	2	B	500.0	coherent
271.1215	0.1087570090021472	11	systole	3	A	3152.7331318609326	coherent
271.5665	0.1087570090021472	11	systole	4	A	3152.7331318609326	coherent
271.7839	0.1087570090021472	11	systole	5	B	500.0	coherent
272.0015	0.1087570090021472	11	systole	6	A	3152.7331318609326	coherent
272.4465	0.1087570090021472	11	systole	7	A	3152.7331318609326	coherent
272.6639	0.1087570090021472	11	systole	8	B	500.0	coherent
272.8815	0.1087570090021472	11	systole	9	A	3152.7331318609326	coherent
273.2565	0.1087570090021472	11	systole	10	A	3152.7331318609326	coherent
273.4738	0.1087570090021472	11	systole	11	B	500.0	coherent
273.6915	0.1087570090021472	11	systole	12	A	3152.7331318609326	coherent
274.0865	0.1087570090021472	11	systole	13	A	3152.7331318609326	coherent
274.3039	0.1087570090021472	11	systole	14	B	500.0	coherent
274.5215	0.1087570090021472	11	systole	15	A	3152.7331318609326	coherent
274.9165	0.1087570090021472	11	systole	16	A	3152.7331318609326	coherent
275.1339	0.1087570090021472	11	systole	17	B	500.0	coherent
275.3516	0.1087570090021472	11	systole	18	A	3152.7331318609326	coherent
275.7865	0.1087570090021472	11	systole	19	A	3152.7331318609326	coherent
276.0039	0.1087570090021472	11	systole	20	B	500.0	coherent
276.2215	0.1087570090021472	11	systole	21	A	3152.7331318609326	coherent
276.681	0.1087570090021472	11	systole	22	A	3152.7331318609326	coherent
276.8996	0.1087570090021472	11	systole	23	B	500.0	coherent
277.1186	0.1087570090021472	11	systole	24	A	3152.7331318609326	coherent
277.571	0.1087570090021472	11	systole	25	A	3152.7331318609326	coherent
277.7896	0.1087570090021472	11	systole	26	B	500.0	coherent
278.0085	0.1087570090021472	11	systole	27	A	3152.7331318609326	coherent
278.4756	0.1087570090021472	11	systole	28	A	3152.7331318609326	coherent
278.6955	0.1087570090021472	11	systole	29	B	500.0	coherent
278.9156	0.1087570090021472	11	systole	30	A	3152.7331318609326	coherent
279.3756	0.1087570090021472	11	systole	31	A	3152.7331318609326	coherent
279.5955	0.1087570090021472	11	systole	32	B	500.0	coherent
279.8157	0.1087570090021472	11	systole	33	A	3152.7331318609326	coherent
282.9146	0.1099971497314982	12	systole	1	A	4062.961875947593	coherent
283.1371	0.1099971497314982	12	systole	2	B	500.0	coherent
283.3596	0.1099971497314982	12	systole	3	A	4062.961875947593	coherent
283.7754	0.1099971497314982	12	systole	4	A	4062.961875947593	coherent
283.9953	0.1099971497314982	12	systole	5	B	500.0	coherent
284.2154	0.1099971497314982	12	systole	6	A	4062.961875947593	coherent
284.6453	0.1099971497314982	12	systole	7	A	4062.961875947593	coherent
284.8652	0.1099971497314982	12	systole	8	B	500.0	coherent
285.0853	0.1099971497314982	12	systole	9	A	4062.961875947593	coherent
285.4916	0.1099971497314982	12	systole	10	A	4062.961875947593	coherent
285.7078	0.1099971497314982	12	systole	11	B	500.0	coherent
285.9241	0.1099971497314982	12	systole	12	A	4062.961875947593	coherent
286.3516	0.1099971497314982	12	systole	13	A	4062.961875947593	coherent
286.5678	0.1099971497314982	12	systole	14	B	500.0	coherent
286.7841	0.1099971497314982	12	systole	15	A	4062.961875947593	coherent
287.2516	0.1099971497314982	12	systole	16	A	4062.961875947593	coherent
287.4678	0.1099971497314982	12	systole	17	B	500.0	coherent
287.6841	0.1099971497314982	12	systole	18	A	4062.961875947593	coherent
288.0579	0.1099971497314982	12	systole	19	A	4062.961875947593	coherent
288.2704	0.1099971497314982	12	systole	20	B	500.0	coherent
288.4829	0.1099971497314982	12	systole	21	A	4062.961875947593	coherent
288.8779	0.1099971497314982	12	systole	22	A	4062.961875947593	coherent
289.0903	0.1099971497314982	12	systole	23	B	500.0	coherent
289.3029	0.1099971497314982	12	systole	24	A	4062.961875947593	coherent
289.6979	0.1099971497314982	12	systole	25	A	4062.961875947593	coherent
289.9103	0.1099971497314982	12	systole	26	B	500.0	coherent
290.1229	0.1099971497314982	12	systole	27	A	4062.961875947593	coherent
290.5818	0.1099971497314982	12	systole	28	A	4062.961875947593	coherent
290.798	0.1099971497314982	12	systole	29	B	500.0	coherent
291.0143	0.1099971497314982	12	systole	30	A	4062.961875947593	coherent
291.4964	0.1099971497314982	12	systole	31	A	4062.961875947593	coherent
291.7138	0.1099971497314982	12	systole	32	B	500.0	coherent
291.9314	0.1099971497314982	12	systole	33	A	4062.961875947593	coherent
302.6725	0.1068845740810502	13	systole	1	A	3538.000656405778	coherent
302.8863	0.1068845740810502	13	systole	2	B	500.0	coherent
303.1001	0.1068845740810502	13	systole	3	A	3538.000656405778	coherent
303.4882	0.1068845740810502	13	systole	4	A	3538.000656405778	coherent
303.7007	0.1068845740810502	13	systole	5	B	500.0	coherent
303.9131	0.1068845740810502	13	systole	6	A	3538.000656405778	coherent
304.3084	0.1068845740810502	13	systole	7	A	3538.000656405778	coherent
304.5209	0.1068845740810502	13	systole	8	B	500.0	coherent
304.7334	0.1068845740810502	13	systole	9	A	3538.000656405778	coherent
305.0837	0.1068845740810502	13	systole	10	A	3538.000656405778	coherent
305.295	0.1068845740810502	13	systole	11	B	500.0	coherent
305.5062	0.1068845740810502	13	systole	12	A	3538.000656405778	coherent
305.8837	0.1068845740810502	13	systole	13	A	3538.000656405778	coherent
306.095	0.1068845740810502	13	systole	14	B	500.0	coherent
306.3062	0.1068845740810502	13	systole	15	A	3538.000656405778	coherent
306.6837	0.1068845740810502	13	systole	16	A	3538.000656405778	coherent
306.895	0.1068845740810502	13	systole	17	B	500.0	coherent
307.1062	0.1068845740810502	13	systole	18	A	3538.000656405778	coherent
307.5683	0.1068845740810502	13	systole	19	A	3538.000656405778	coherent
307.7808	0.1068845740810502	13	systole	20	B	500.0	coherent
307.9933	0.1068845740810502	13	systole	21	A	3538.000656405778	coherent
308.4581	0.1068845740810502	13	systole	22	A	3538.000656405778	coherent
308.6707	0.1068845740810502	13	systole	23	B	500.0	coherent
308.8832	0.1068845740810502	13	systole	24	A	3538.000656405778	coherent
309.2545	0.1068845740810502	13	systole	25	A	3538.000656405778	coherent
309.4633	0.1068845740810502	13	systole	26	B	500.0	coherent
309.672	0.1068845740810502	13	systole	27	A	3538.000656405778	coherent
310.0754	0.1068845740810502	13	systole	28	A	3538.000656405778	coherent
310.2817	0.1068845740810502	13	systole	29	B	500.0	coherent
310.488	0.1068845740810502	13	systole	30	A	3538.000656405778	coherent
310.9055	0.1068845740810502	13	systole	31	A	3538.000656405778	coherent
311.1118	0.1068845740810502	13	systole	32	B	500.0	coherent
311.3181	0.1068845740810502	13	systole	33	A	3538.000656405778	coherent
311.7455	0.1068845740810502	13	systole	34	A	3538.000656405778	coherent
311.9518	0.1068845740810502	13	systole	35	B	500.0	coherent
312.1581	0.1068845740810502	13	systole	36	A	3538.000656405778	coherent
314.1403	0.1025047999864909	14	systole	1	A	3704.9827347719142	streaming
314.3454	0.1025047999864909	14	systole	2	B	500.0	streaming
314.5503	0.1025047999864909	14	systole	3	A	3704.9827347719142	streaming
315.0203	0.1025047999864909	14	systole	4	A	3704.9827347719142	streaming
315.2253	0.1025047999864909	14	systole	5	B	500.0	streaming
315.4303	0.1025047999864909	14	systole	6	A	3704.9827347719142	streaming
315.7911	0.1025047999864909	14	systole	7	A	3704.9827347719142	streaming
315.9936	0.1025047999864909	14	systole	8	B	500.0	streaming
316.1961	0.1025047999864909	14	systole	9	A	3704.9827347719142	streaming
316.674	0.1025047999864909	14	systole	10	A	3704.9827347719142	streaming
316.8828	0.1025047999864909	14	systole	11	B	500.0	streaming
317.0915	0.1025047999864909	14	systole	12	A	3704.9827347719142	streaming
317.534	0.1025047999864909	14	systole	13	A	3704.9827347719142	streaming
317.7428	0.1025047999864909	14	systole	14	B	500.0	streaming
317.9515	0.1025047999864909	14	systole	15	A	3704.9827347719142	streaming
318.3249	0.1025047999864909	14	systole	16	A	3704.9827347719142	streaming
318.5311	0.1025047999864909	14	systole	17	B	500.0	streaming
318.7374	0.1025047999864909	14	systole	18	A	3704.9827347719142	streaming
319.1249	0.1025047999864909	14	systole	19	A	3704.9827347719142	streaming
319.3312	0.1025047999864909	14	systole	20	B	500.0	streaming
319.5374	0.1025047999864909	14	systole	21	A	3704.9827347719142	streaming
319.9145	0.1025047999864909	14	systole	22	A	3704.9827347719142	streaming
320.1208	0.1025047999864909	14	systole	23	B	500.0	streaming
320.327	0.1025047999864909	14	systole	24	A	3704.9827347719142	streaming
320.7436	0.1025047999864909	14	systole	25	A	3704.9827347719142	streaming
320.9524	0.1025047999864909	14	systole	26	B	500.0	streaming
321.1611	0.1025047999864909	14	systole	27	A	3704.9827347719142	streaming
321.5645	0.1025047999864909	14	systole	28	A	3704.9827347719142	streaming
321.7708	0.1025047999864909	14	systole	29	B	500.0	streaming
321.977	0.1025047999864909	14	systole	30	A	3704.9827347719142	streaming
322.3408	0.1025047999864909	14	systole	31	A	3704.9827347719142	streaming
322.5434	0.1025047999864909	14	systole	32	B	500.0	streaming
322.7458	0.1025047999864909	14	systole	33	A	3704.9827347719142	streaming
323.1309	0.1025047999864909	14	systole	34	A	3704.9827347719142	streaming
323.3334	0.1025047999864909	14	systole	35	B	500.0	streaming
323.5359	0.1025047999864909	14	systole	36	A	3704.9827347719142	streaming
323.9208	0.1025047999864909	14	systole	37	A	3704.9827347719142	streaming
324.1234	0.1025047999864909	14	systole	38	B	500.0	streaming
324.3258	0.1025047999864909	14	systole	39	A	3704.9827347719142	streaming
332.4033	0.1043820694321766	15	systole	1	A	2682.7996005075997	coherent
332.6145	0.1043820694321766	15	systole	2	B	500.0	coherent
332.8258	0.1043820694321766	15	systole	3	A	2682.7996005075997	coherent
333.2733	0.1043820694321766	15	systole	4	A	2682.7996005075997	coherent
333.4845	0.1043820694321766	15	systole	5	B	500.0	coherent
333.6958	0.1043820694321766	15	systole	6	A	2682.7996005075997	coherent
334.1432	0.1043820694321766	15	systole	7	A	2682.7996005075997	coherent
334.3544	0.1043820694321766	15	systole	8	B	500.0	coherent
334.5657	0.1043820694321766	15	systole	9	A	2682.7996005075997	coherent
335.0032	0.1043820694321766	15	systole	10	A	2682.7996005075997	coherent
335.2144	0.1043820694321766	15	systole	11	B	500.0	coherent
335.4257	0.1043820694321766	15	systole	12	A	2682.7996005075997	coherent
335.8823	0.1043820694321766	15	systole	13	A	2682.7996005075997	coherent
336.096	0.1043820694321766	15	systole	14	B	500.0	coherent
336.3098	0.1043820694321766	15	systole	15	A	2682.7996005075997	coherent
336.7267	0.1043820694321766	15	systole	16	A	2682.7996005075997	coherent
336.9417	0.1043820694321766	15	systole	17	B	500.0	coherent
337.1568	0.1043820694321766	15	systole	18	A	2682.7996005075997	coherent
337.5663	0.1043820694321766	15	systole	19	A	2682.7996005075997	coherent
337.7813	0.1043820694321766	15	systole	20	B	500.0	coherent
337.9964	0.1043820694321766	15	systole	21	A	2682.7996005075997	coherent
338.2968	0.1043820694321766	15	systole	22	A	2682.7996005075997	coherent
338.5091	0.1043820694321766	15	systole	23	B	500.0	coherent
338.7217	0.1043820694321766	15	systole	24	A	2682.7996005075997	coherent
339.0372	0.1043820694321766	15	systole	25	A	2682.7996005075997	coherent
339.2496	0.1043820694321766	15	systole	26	B	500.0	coherent
339.4621	0.1043820694321766	15	systole	27	A	2682.7996005075997	coherent
339.7776	0.1043820694321766	15	systole	28	A	2682.7996005075997	coherent
339.99	0.1043820694321766	15	systole	29	B	500.0	coherent
340.2025	0.1043820694321766	15	systole	30	A	2682.7996005075997	coherent
340.5573	0.1043820694321766	15	systole	31	A	2682.7996005075997	coherent
340.7697	0.1043820694321766	15	systole	32	B	500.0	coherent
340.9822	0.1043820694321766	15	systole	33	A	2682.7996005075997	coherent
341.3448	0.1043820694321766	15	systole	34	A	2682.7996005075997	coherent
341.551	0.1043820694321766	15	systole	35	B	500.0	coherent
341.7573	0.1043820694321766	15	systole	36	A	2682.7996005075997	coherent
345.3278	0.0993758424010593	16	systole	1	A	2809.4189815191617	coherent
345.5265	0.0993758424010593	16	systole	2	B	500.0	coherent
345.7253	0.0993758424010593	16	systole	3	A	2809.4189815191617	coherent
346.1077	0.0993758424010593	16	systole	4	A	2809.4189815191617	coherent
346.3065	0.0993758424010593	16	systole	5	B	500.0	coherent
346.5053	0.0993758424010593	16	systole	6	A	2809.4189815191617	coherent
346.8877	0.0993758424010593	16	systole	7	A	2809.4189815191617	coherent
347.0865	0.0993758424010593	16	systole	8	B	500.0	coherent
347.2852	0.0993758424010593	16	systole	9	A	2809.4189815191617	coherent
347.6677	0.0993758424010593	16	systole	10	A	2809.4189815191617	coherent
347.8664	0.0993758424010593	16	systole	11	B	500.0	coherent
348.0652	0.0993758424010593	16	systole	12	A	2809.4189815191617	coherent
348.3939	0.0993758424010593	16	systole	13	A	2809.4189815191617	coherent
348.5889	0.0993758424010593	16	systole	14	B	500.0	coherent
348.784	0.0993758424010593	16	systole	15	A	2809.4189815191617	coherent
349.1856	0.0993758424010593	16	systole	16	A	2809.4189815191617	coherent
349.3806	0.0993758424010593	16	systole	17	B	500.0	coherent
349.5756	0.0993758424010593	16	systole	18	A	2809.4189815191617	coherent
349.9773	0.0993758424010593	16	systole	19	A	2809.4189815191617	coherent
350.1723	0.0993758424010593	16	systole	20	B	500.0	coherent
350.3673	0.0993758424010593	16	systole	21	A	2809.4189815191617	coherent
350.8056	0.0993758424010593	16	systole	22	A	2809.4189815191617	coherent
351.0006	0.0993758424010593	16	systole	23	B	500.0	coherent
351.1957	0.0993758424010593	16	systole	24	A	2809.4189815191617	coherent
351.634	0.0993758424010593	16	systole	25	A	2809.4189815191617	coherent
351.829	0.0993758424010593	16	systole	26	B	500.0	coherent
352.024	0.0993758424010593	16	systole	27	A	2809.4189815191617	coherent
352.4139	0.0993758424010593	16	systole	28	A	2809.4189815191617	coherent
352.6089	0.0993758424010593	16	systole	29	B	500.0	coherent
352.8039	0.0993758424010593	16	systole	30	A	2809.4189815191617	coherent
353.1939	0.0993758424010593	16	systole	31	A	2809.4189815191617	coherent
353.3889	0.0993758424010593	16	systole	32	B	500.0	coherent
353.5839	0.0993758424010593	16	systole	33	A	2809.4189815191617	coherent
353.974	0.0993758424010593	16	systole	34	A	2809.4189815191617	coherent
354.169	0.0993758424010593	16	systole	35	B	500.0	coherent
354.364	0.0993758424010593	16	systole	36	A	2809.4189815191617	coherent
358.5449	0.1005222706007771	17	diastole	1	A	2942.014383864825	coherent
358.7437	0.1005222706007771	17	diastole	2	B	500.0	coherent
358.9424	0.1005222706007771	17	diastole	3	A	2942.014383864825	coherent
359.3597	0.1005222706007771	17	diastole	4	A	2942.014383864825	coherent
359.561	0.1005222706007771	17	diastole	5	B	500.0	coherent
359.7623	0.1005222706007771	17	diastole	6	A	2942.014383864825	coherent
360.1758	0.1005222706007771	17	diastole	7	A	2942.014383864825	coherent
360.3784	0.1005222706007771	17	diastole	8	B	500.0	coherent
360.5807	0.1005222706007771	17	diastole	9	A	2942.014383864825	coherent
360.9855	0.1005222706007771	17	diastole	10	A	2942.014383864825	coherent
361.188	0.1005222706007771	17	diastole	11	B	500.0	coherent
361.3904	0.1005222706007771	17	diastole	12	A	2942.014383864825	coherent
361.9055	0.1005222706007771	17	diastole	13	A	2942.014383864825	coherent
362.108	0.1005222706007771	17	diastole	14	B	500.0	coherent
362.3104	0.1005222706007771	17	diastole	15	A	2942.014383864825	coherent
362.8054	0.1005222706007771	17	diastole	16	A	2942.014383864825	coherent
363.0079	0.1005222706007771	17	diastole	17	B	500.0	coherent
363.2103	0.1005222706007771	17	diastole	18	A	2942.014383864825	coherent
363.6255	0.1005222706007771	17	diastole	19	A	2942.014383864825	coherent
363.828	0.1005222706007771	17	diastole	20	B	500.0	coherent
364.0304	0.1005222706007771	17	diastole	21	A	2942.014383864825	coherent
364.4256	0.1005222706007771	17	diastole	22	A	2942.014383864825	coherent
364.6281	0.1005222706007771	17	diastole	23	B	500.0	coherent
364.8305	0.1005222706007771	17	diastole	24	A	2942.014383864825	coherent
365.2256	0.1005222706007771	17	diastole	25	A	2942.014383864825	coherent
365.4281	0.1005222706007771	17	diastole	26	B	500.0	coherent
365.6305	0.1005222706007771	17	diastole	27	A	2942.014383864825	coherent
366.0358	0.1005222706007771	17	diastole	28	A	2942.014383864825	coherent
366.2383	0.1005222706007771	17	diastole	29	B	500.0	coherent
366.4407	0.1005222706007771	17	diastole	30	A	2942.014383864825	coherent
366.9132	0.1005222706007771	17	diastole	31	A	2942.014383864825	coherent
367.117	0.1005222706007771	17	diastole	32	B	500.0	coherent
367.3207	0.1005222706007771	17	diastole	33	A	2942.014383864825	coherent
370.4179	0.1062695506261661	18	diastole	1	A	2446.423693900757	coherent
370.624	0.1062695506261661	18	diastole	2	B	500.0	coherent
370.8304	0.1062695506261661	18	diastole	3	A	2446.423693900757	coherent
371.2036	0.1062695506261661	18	diastole	4	A	2446.423693900757	coherent
371.4072	0.1062695506261661	18	diastole	5	B	500.0	coherent
371.6111	0.1062695506261661	18	diastole	6	A	2446.423693900757	coherent
372.0406	0.1062695506261661	18	diastole	7	A	2446.423693900757	coherent
372.2455	0.1062695506261661	18	diastole	8	B	500.0	coherent
372.4506	0.1062695506261661	18	diastole	9	A	2446.423693900757	coherent
372.8706	0.1062695506261661	18	diastole	10	A	2446.423693900757	coherent
373.0754	0.1062695506261661	18	diastole	11	B	500.0	coherent
373.2806	0.1062695506261661	18	diastole	12	A	2446.423693900757	coherent
373.7448	0.1062695506261661	18	diastole	13	A	2446.423693900757	coherent
373.9522	0.1062695506261661	18	diastole	14	B	500.0	coherent
374.1599	0.1062695506261661	18	diastole	15	A	2446.423693900757	coherent
374.6561	0.1062695506261661	18	diastole	16	A	2446.423693900757	coherent
374.8672	0.1062695506261661	18	diastole	17	B	500.0	coherent
375.0786	0.1062695506261661	18	diastole	18	A	2446.423693900757	coherent
375.4248	0.1062695506261661	18	diastole	19	A	2446.423693900757	coherent
375.6322	0.1062695506261661	18	diastole	20	B	500.0	coherent
375.8398	0.1062695506261661	18	diastole	21	A	2446.423693900757	coherent
376.1948	0.1062695506261661	18	diastole	22	A	2446.423693900757	coherent
376.4022	0.1062695506261661	18	diastole	23	B	500.0	coherent
376.6098	0.1062695506261661	18	diastole	24	A	2446.423693900757	coherent
376.9606	0.1062695506261661	18	diastole	25	A	2446.423693900757	coherent
377.1654	0.1062695506261661	18	diastole	26	B	500.0	coherent
377.3706	0.1062695506261661	18	diastole	27	A	2446.423693900757	coherent
377.7738	0.1062695506261661	18	diastole	28	A	2446.423693900757	coherent
377.9774	0.1062695506261661	18	diastole	29	B	500.0	coherent
378.1813	0.1062695506261661	18	diastole	30	A	2446.423693900757	coherent
378.5932	0.1062695506261661	18	diastole	31	A	2446.423693900757	coherent
378.7967	0.1062695506261661	18	diastole	32	B	500.0	coherent
379.0006	0.1062695506261661	18	diastole	33	A	2446.423693900757	coherent
383.1756	0.1018561125092674	19	systole	1	A	4999.999999999997	streaming
383.3793	0.1018561125092674	19	systole	2	B	500.0	streaming
383.583	0.1018561125092674	19	systole	3	A	4999.999999999997	streaming
384.0003	0.1018561125092674	19	systole	4	A	4999.999999999997	streaming
384.2052	0.1018561125092674	19	systole	5	B	500.0	streaming
384.4102	0.1018561125092674	19	systole	6	A	4999.999999999997	streaming
384.8203	0.1018561125092674	19	systole	7	A	4999.999999999997	streaming
385.0253	0.1018561125092674	19	systole	8	B	500.0	streaming
385.2302	0.1018561125092674	19	systole	9	A	4999.999999999997	streaming
385.6503	0.1018561125092674	19	systole	10	A	4999.999999999997	streaming
385.8553	0.1018561125092674	19	systole	11	B	500.0	streaming
386.0602	0.1018561125092674	19	systole	12	A	4999.999999999997	streaming
386.4358	0.1018561125092674	19	systole	13	A	4999.999999999997	streaming
386.6396	0.1018561125092674	19	systole	14	B	500.0	streaming
386.8434	0.1018561125092674	19	systole	15	A	4999.999999999997	streaming
387.2258	0.1018561125092674	19	systole	16	A	4999.999999999997	streaming
387.4296	0.1018561125092674	19	systole	17	B	500.0	streaming
387.6334	0.1018561125092674	19	systole	18	A	4999.999999999997	streaming
388.0358	0.1018561125092674	19	systole	19	A	4999.999999999997	streaming
388.2395	0.1018561125092674	19	systole	20	B	500.0	streaming
388.4433	0.1018561125092674	19	systole	21	A	4999.999999999997	streaming
388.9158	0.1018561125092674	19	systole	22	A	4999.999999999997	streaming
389.1195	0.1018561125092674	19	systole	23	B	500.0	streaming
389.3233	0.1018561125092674	19	systole	24	A	4999.999999999997	streaming
389.7958	0.1018561125092674	19	systole	25	A	4999.999999999997	streaming
389.9995	0.1018561125092674	19	systole	26	B	500.0	streaming
390.2033	0.1018561125092674	19	systole	27	A	4999.999999999997	streaming
390.6558	0.1018561125092674	19	systole	28	A	4999.999999999997	streaming
390.8595	0.1018561125092674	19	systole	29	B	500.0	streaming
391.0633	0.1018561125092674	19	systole	30	A	4999.999999999997	streaming
391.4412	0.1018561125092674	19	systole	31	A	4999.999999999997	streaming
391.6437	0.1018561125092674	19	systole	32	B	500.0	streaming
391.8462	0.1018561125092674	19	systole	33	A	4999.999999999997	streaming
392.2313	0.1018561125092674	19	systole	34	A	4999.999999999997	streaming
392.4338	0.1018561125092674	19	systole	35	B	500.0	streaming
392.6363	0.1018561125092674	19	systole	36	A	4999.999999999997	streaming
394.7551	0.1024991999147459	20	systole	1	A	4999.999999999997	streaming
394.9613	0.1024991999147459	20	systole	2	B	500.0	streaming
395.1676	0.1024991999147459	20	systole	3	A	4999.999999999997	streaming
395.5852	0.1024991999147459	20	systole	4	A	4999.999999999997	streaming
395.7914	0.1024991999147459	20	systole	5	B	500.0	streaming
395.9977	0.1024991999147459	20	systole	6	A	4999.999999999997	streaming
396.3852	0.1024991999147459	20	systole	7	A	4999.999999999997	streaming
396.5914	0.1024991999147459	20	systole	8	B	500.0	streaming
396.7977	0.1024991999147459	20	systole	9	A	4999.999999999997	streaming
397.1852	0.1024991999147459	20	systole	10	A	4999.999999999997	streaming
397.3915	0.1024991999147459	20	systole	11	B	500.0	streaming
397.5977	0.1024991999147459	20	systole	12	A	4999.999999999997	streaming
398.0151	0.1024991999147459	20	systole	13	A	4999.999999999997	streaming
398.2213	0.1024991999147459	20	systole	14	B	500.0	streaming
398.4275	0.1024991999147459	20	systole	15	A	4999.999999999997	streaming
398.845	0.1024991999147459	20	systole	16	A	4999.999999999997	streaming
399.0512	0.1024991999147459	20	systole	17	B	500.0	streaming
399.2575	0.1024991999147459	20	systole	18	A	4999.999999999997	streaming
399.6749	0.1024991999147459	20	systole	19	A	4999.999999999997	streaming
399.8811	0.1024991999147459	20	systole	20	B	500.0	streaming
400.0874	0.1024991999147459	20	systole	21	A	4999.999999999997	streaming
400.5295	0.1024991999147459	20	systole	22	A	4999.999999999997	streaming
400.737	0.1024991999147459	20	systole	23	B	500.0	streaming
400.9445	0.1024991999147459	20	systole	24	A	4999.999999999997	streaming
401.3595	0.1024991999147459	20	systole	25	A	4999.999999999997	streaming
401.567	0.1024991999147459	20	systole	26	B	500.0	streaming
401.7745	0.1024991999147459	20	systole	27	A	4999.999999999997	streaming
402.1995	0.1024991999147459	20	systole	28	A	4999.999999999997	streaming
402.407	0.1024991999147459	20	systole	29	B	500.0	streaming
402.6145	0.1024991999147459	20	systole	30	A	4999.999999999997	streaming
403.0199	0.1024991999147459	20	systole	31	A	4999.999999999997	streaming
403.2274	0.1024991999147459	20	systole	32	B	500.0	streaming
403.4349	0.1024991999147459	20	systole	33	A	4999.999999999997	streaming
403.8051	0.1024991999147459	20	systole	34	A	4999.999999999997	streaming
404.0113	0.1024991999147459	20	systole	35	B	500.0	streaming
404.2176	0.1024991999147459	20	systole	36	A	4999.999999999997	streaming
406.6282	0.1031489890592638	21	diastole	1	A	3538.000656405778	coherent
406.8345	0.1031489890592638	21	diastole	2	B	500.0	coherent
407.0408	0.1031489890592638	21	diastole	3	A	3538.000656405778	coherent
407.4574	0.1031489890592638	21	diastole	4	A	3538.000656405778	coherent
407.6637	0.1031489890592638	21	diastole	5	B	500.0	coherent
407.8699	0.1031489890592638	21	diastole	6	A	3538.000656405778	coherent
408.2136	0.1031489890592638	21	diastole	7	A	3538.000656405778	coherent
408.4174	0.1031489890592638	21	diastole	8	B	500.0	coherent
408.6211	0.1031489890592638	21	diastole	9	A	3538.000656405778	coherent
408.984	0.1031489890592638	21	diastole	10	A	3538.000656405778	coherent
409.1877	0.1031489890592638	21	diastole	11	B	500.0	coherent
409.3915	0.1031489890592638	21	diastole	12	A	3538.000656405778	coherent
409.8038	0.1031489890592638	21	diastole	13	A	3538.000656405778	coherent
410.0075	0.1031489890592638	21	diastole	14	B	500.0	coherent
410.2113	0.1031489890592638	21	diastole	15	A	3538.000656405778	coherent
410.6439	0.1031489890592638	21	diastole	16	A	3538.000656405778	coherent
410.8476	0.1031489890592638	21	diastole	17	B	500.0	coherent
411.0513	0.1031489890592638	21	diastole	18	A	3538.000656405778	coherent
411.4838	0.1031489890592638	21	diastole	19	A	3538.000656405778	coherent
411.6875	0.1031489890592638	21	diastole	20	B	500.0	coherent
411.8913	0.1031489890592638	21	diastole	21	A	3538.000656405778	coherent
412.2393	0.1031489890592638	21	diastole	22	A	3538.000656405778	coherent
412.4405	0.1031489890592638	21	diastole	23	B	500.0	coherent
412.6416	0.1031489890592638	21	diastole	24	A	3538.000656405778	coherent
413.0093	0.1031489890592638	21	diastole	25	A	3538.000656405778	coherent
413.2104	0.1031489890592638	21	diastole	26	B	500.0	coherent
413.4116	0.1031489890592638	21	diastole	27	A	3538.000656405778	coherent
413.8267	0.1031489890592638	21	diastole	28	A	3538.000656405778	coherent
414.0291	0.1031489890592638	21	diastole	29	B	500.0	coherent
414.2316	0.1031489890592638	21	diastole	30	A	3538.000656405778	coherent
414.6367	0.1031489890592638	21	diastole	31	A	3538.000656405778	coherent
414.8391	0.1031489890592638	21	diastole	32	B	500.0	coherent
415.0416	0.1031489890592638	21	diastole	33	A	3538.000656405778	coherent
415.4742	0.1031489890592638	21	diastole	34	A	3538.000656405778	coherent
415.6779	0.1031489890592638	21	diastole	35	B	500.0	coherent
415.8817	0.1031489890592638	21	diastole	36	A	3538.000656405778	coherent
417.7721	0.100012940383749	22	diastole	1	A	2942.014383864825	coherent
417.9722	0.100012940383749	22	diastole	2	B	500.0	coherent
418.1722	0.100012940383749	22	diastole	3	A	2942.014383864825	coherent
418.612	0.100012940383749	22	diastole	4	A	2942.014383864825	coherent
418.8121	0.100012940383749	22	diastole	5	B	500.0	coherent
419.0121	0.100012940383749	22	diastole	6	A	2942.014383864825	coherent
419.4518	0.100012940383749	22	diastole	7	A	2942.014383864825	coherent
419.6519	0.100012940383749	22	diastole	8	B	500.0	coherent
419.8519	0.100012940383749	22	diastole	9	A	2942.014383864825	coherent
420.2198	0.100012940383749	22	diastole	10	A	2942.014383864825	coherent
420.4199	0.100012940383749	22	diastole	11	B	500.0	coherent
420.6199	0.100012940383749	22	diastole	12	A	2942.014383864825	coherent
421.0997	0.100012940383749	22	diastole	13	A	2942.014383864825	coherent
421.2998	0.100012940383749	22	diastole	14	B	500.0	coherent
421.4998	0.100012940383749	22	diastole	15	A	2942.014383864825	coherent
422.0496	0.100012940383749	22	diastole	16	A	2942.014383864825	coherent
422.2498	0.100012940383749	22	diastole	17	B	500.0	coherent
422.4498	0.100012940383749	22	diastole	18	A	2942.014383864825	coherent
422.9996	0.100012940383749	22	diastole	19	A	2942.014383864825	coherent
423.1997	0.100012940383749	22	diastole	20	B	500.0	coherent
423.3997	0.100012940383749	22	diastole	21	A	2942.014383864825	coherent
423.9181	0.100012940383749	22	diastole	22	A	2942.014383864825	coherent
424.1197	0.100012940383749	22	diastole	23	B	500.0	coherent
424.3211	0.100012940383749	22	diastole	24	A	2942.014383864825	coherent
424.7292	0.100012940383749	22	diastole	25	A	2942.014383864825	coherent
424.9345	0.100012940383749	22	diastole	26	B	500.0	coherent
425.1397	0.100012940383749	22	diastole	27	A	2942.014383864825	coherent
425.5308	0.100012940383749	22	diastole	28	A	2942.014383864825	coherent
425.7361	0.100012940383749	22	diastole	29	B	500.0	coherent
425.9413	0.100012940383749	22	diastole	30	A	2942.014383864825	coherent
426.3148	0.100012940383749	22	diastole	31	A	2942.014383864825	coherent
426.5176	0.100012940383749	22	diastole	32	B	500.0	coherent
426.7203	0.100012940383749	22	diastole	33	A	2942.014383864825	coherent
427.0695	0.100012940383749	22	diastole	34	A	2942.014383864825	coherent
427.2695	0.100012940383749	22	diastole	35	B	500.0	coherent
427.4695	0.100012940383749	22	diastole	36	A	2942.014383864825	coherent
434.0106	0.1025014232145622	23	systole	1	A	4774.652015515508	streaming
434.2156	0.1025014232145622	23	systole	2	B	500.0	streaming
434.4206	0.1025014232145622	23	systole	3	A	4774.652015515508	streaming
434.7406	0.1025014232145622	23	systole	4	A	4774.652015515508	streaming
434.9455	0.1025014232145622	23	systole	5	B	500.0	streaming
435.1506	0.1025014232145622	23	systole	6	A	4774.652015515508	streaming
435.4706	0.1025014232145622	23	systole	7	A	4774.652015515508	streaming
435.6755	0.1025014232145622	23	systole	8	B	500.0	streaming
435.8806	0.1025014232145622	23	systole	9	A	4774.652015515508	streaming
436.217	0.1025014232145622	23	systole	10	A	4774.652015515508	streaming
436.4182	0.1025014232145622	23	systole	11	B	500.0	streaming
436.6195	0.1025014232145622	23	systole	12	A	4774.652015515508	streaming
437.0767	0.1025014232145622	23	systole	13	A	4774.652015515508	streaming
437.2778	0.1025014232145622	23	systole	14	B	500.0	streaming
437.4792	0.1025014232145622	23	systole	15	A	4774.652015515508	streaming
438.047	0.1025014232145622	23	systole	16	A	4774.652015515508	streaming
438.2482	0.1025014232145622	23	systole	17	B	500.0	streaming
438.4495	0.1025014232145622	23	systole	18	A	4774.652015515508	streaming
439.0173	0.1025014232145622	23	systole	19	A	4774.652015515508	streaming
439.2185	0.1025014232145622	23	systole	20	B	500.0	streaming
439.4198	0.1025014232145622	23	systole	21	A	4774.652015515508	streaming
439.8876	0.1025014232145622	23	systole	22	A	4774.652015515508	streaming
440.0888	0.1025014232145622	23	systole	23	B	500.0	streaming
440.2902	0.1025014232145622	23	systole	24	A	4774.652015515508	streaming
440.758	0.1025014232145622	23	systole	25	A	4774.652015515508	streaming
440.9591	0.1025014232145622	23	systole	26	B	500.0	streaming
441.1605	0.1025014232145622	23	systole	27	A	4774.652015515508	streaming
441.7326	0.1025014232145622	23	systole	28	A	4774.652015515508	streaming
441.9487	0.1025014232145622	23	systole	29	B	500.0	streaming
442.1651	0.1025014232145622	23	systole	30	A	4774.652015515508	streaming
442.6522	0.1025014232145622	23	systole	31	A	4774.652015515508	streaming
442.8684	0.1025014232145622	23	systole	32	B	500.0	streaming
443.0847	0.1025014232145622	23	systole	33	A	4774.652015515508	streaming
445.393	0.1088939861801918	24	diastole	1	A	3152.7331318609326	coherent
445.6106	0.1088939861801918	24	diastole	2	B	500.0	coherent
445.8286	0.1088939861801918	24	diastole	3	A	3152.7331318609326	coherent
446.1931	0.1088939861801918	24	diastole	4	A	3152.7331318609326	coherent
446.4107	0.1088939861801918	24	diastole	5	B	500.0	coherent
446.6286	0.1088939861801918	24	diastole	6	A	3152.7331318609326	coherent
446.9932	0.1088939861801918	24	diastole	7	A	3152.7331318609326	coherent
447.2108	0.1088939861801918	24	diastole	8	B	500.0	coherent
447.4288	0.1088939861801918	24	diastole	9	A	3152.7331318609326	coherent
447.7364	0.1088939861801918	24	diastole	10	A	3152.7331318609326	coherent
447.9476	0.1088939861801918	24	diastole	11	B	500.0	coherent
448.159	0.1088939861801918	24	diastole	12	A	3152.7331318609326	coherent
448.4166	0.1088939861801918	24	diastole	13	A	3152.7331318609326	coherent
448.619	0.1088939861801918	24	diastole	14	B	500.0	coherent
448.8216	0.1088939861801918	24	diastole	15	A	3152.7331318609326	coherent
449.1771	0.1088939861801918	24	diastole	16	A	3152.7331318609326	coherent
449.3742	0.1088939861801918	24	diastole	17	B	500.0	coherent
449.5717	0.1088939861801918	24	diastole	18	A	3152.7331318609326	coherent
449.9671	0.1088939861801918	24	diastole	19	A	3152.7331318609326	coherent
450.1642	0.1088939861801918	24	diastole	20	B	500.0	coherent
450.3617	0.1088939861801918	24	diastole	21	A	3152.7331318609326	coherent
450.8971	0.1088939861801918	24	diastole	22	A	3152.7331318609326	coherent
451.0943	0.1088939861801918	24	diastole	23	B	500.0	coherent
451.2917	0.1088939861801918	24	diastole	24	A	3152.7331318609326	coherent
451.7354	0.1088939861801918	24	diastole	25	A	3152.7331318609326	coherent
451.934	0.1088939861801918	24	diastole	26	B	500.0	coherent
452.1329	0.1088939861801918	24	diastole	27	A	3152.7331318609326	coherent
452.5654	0.1088939861801918	24	diastole	28	A	3152.7331318609326	coherent
452.764	0.1088939861801918	24	diastole	29	B	500.0	coherent
452.9629	0.1088939861801918	24	diastole	30	A	3152.7331318609326	coherent
453.4266	0.1088939861801918	24	diastole	31	A	3152.7331318609326	coherent
453.629	0.1088939861801918	24	diastole	32	B	500.0	coherent
453.8316	0.1088939861801918	24	diastole	33	A	3152.7331318609326	coherent
454.2666	0.1088939861801918	24	diastole	34	A	3152.7331318609326	coherent
454.469	0.1088939861801918	24	diastole	35	B	500.0	coherent
454.6717	0.1088939861801918	24	diastole	36	A	3152.7331318609326	coherent
458.0597	0.1037495169439353	25	systole	1	A	4774.652015515508	streaming
458.2671	0.1037495169439353	25	systole	2	B	500.0	streaming
458.4747	0.1037495169439353	25	systole	3	A	4774.652015515508	streaming
458.9297	0.1037495169439353	25	systole	4	A	4774.652015515508	streaming
459.1372	0.1037495169439353	25	systole	5	B	500.0	streaming
459.3447	0.1037495169439353	25	systole	6	A	4774.652015515508	streaming
459.6851	0.1037495169439353	25	systole	7	A	4774.652015515508	streaming
459.8913	0.1037495169439353	25	systole	8	B	500.0	streaming
460.0976	0.1037495169439353	25	systole	9	A	4774.652015515508	streaming
460.4451	0.1037495169439353	25	systole	10	A	4774.652015515508	streaming
460.6513	0.1037495169439353	25	systole	11	B	500.0	streaming
460.8576	0.1037495169439353	25	systole	12	A	4774.652015515508	streaming
461.2051	0.1037495169439353	25	systole	13	A	4774.652015515508	streaming
461.4113	0.1037495169439353	25	systole	14	B	500.0	streaming
461.6176	0.1037495169439353	25	systole	15	A	4774.652015515508	streaming
462.0022	0.1037495169439353	25	systole	16	A	4774.652015515508	streaming
462.2021	0.1037495169439353	25	systole	17	B	500.0	streaming
462.4022	0.1037495169439353	25	systole	18	A	4774.652015515508	streaming
462.8222	0.1037495169439353	25	systole	19	A	4774.652015515508	streaming
463.0221	0.1037495169439353	25	systole	20	B	500.0	streaming
463.2222	0.1037495169439353	25	systole	21	A	4774.652015515508	streaming
463.6706	0.1037495169439353	25	systole	22	A	4774.652015515508	streaming
463.8755	0.1037495169439353	25	systole	23	B	500.0	streaming
464.0806	0.1037495169439353	25	systole	24	A	4774.652015515508	streaming
464.4506	0.1037495169439353	25	systole	25	A	4774.652015515508	streaming
464.6555	0.1037495169439353	25	systole	26	B	500.0	streaming
464.8606	0.1037495169439353	25	systole	27	A	4774.652015515508	streaming
465.2614	0.1037495169439353	25	systole	28	A	4774.652015515508	streaming
465.4638	0.1037495169439353	25	systole	29	B	500.0	streaming
465.6664	0.1037495169439353	25	systole	30	A	4774.652015515508	streaming
466.0814	0.1037495169439353	25	systole	31	A	4774.652015515508	streaming
466.2838	0.1037495169439353	25	systole	32	B	500.0	streaming
466.4864	0.1037495169439353	25	systole	33	A	4774.652015515508	streaming
466.8866	0.1037495169439353	25	systole	34	A	4774.652015515508	streaming
467.0877	0.1037495169439353	25	systole	35	B	500.0	streaming
467.289	0.1037495169439353	25	systole	36	A	4774.652015515508	streaming
471.2494	0.1018652061175089	26	diastole	1	A	4062.961875947593	coherent
471.4505	0.1018652061175089	26	diastole	2	B	500.0	coherent
471.6518	0.1018652061175089	26	diastole	3	A	4062.961875947593	coherent
472.0198	0.1018652061175089	26	diastole	4	A	4062.961875947593	coherent
472.2209	0.1018652061175089	26	diastole	5	B	500.0	coherent
472.4222	0.1018652061175089	26	diastole	6	A	4062.961875947593	coherent
472.904	0.1018652061175089	26	diastole	7	A	4062.961875947593	coherent
473.1076	0.1018652061175089	26	diastole	8	B	500.0	coherent
473.3114	0.1018652061175089	26	diastole	9	A	4062.961875947593	coherent
473.774	0.1018652061175089	26	diastole	10	A	4062.961875947593	coherent
473.9777	0.1018652061175089	26	diastole	11	B	500.0	coherent
474.1815	0.1018652061175089	26	diastole	12	A	4062.961875947593	coherent
474.6441	0.1018652061175089	26	diastole	13	A	4062.961875947593	coherent
474.8477	0.1018652061175089	26	diastole	14	B	500.0	coherent
475.0515	0.1018652061175089	26	diastole	15	A	4062.961875947593	coherent
475.5412	0.1018652061175089	26	diastole	16	A	4062.961875947593	coherent
475.7461	0.1018652061175089	26	diastole	17	B	500.0	coherent
475.9512	0.1018652061175089	26	diastole	18	A	4062.961875947593	coherent
476.4211	0.1018652061175089	26	diastole	19	A	4062.961875947593	coherent
476.626	0.1018652061175089	26	diastole	20	B	500.0	coherent
476.8311	0.1018652061175089	26	diastole	21	A	4062.961875947593	coherent
477.204	0.1018652061175089	26	diastole	22	A	4062.961875947593	coherent
477.4077	0.1018652061175089	26	diastole	23	B	500.0	coherent
477.6115	0.1018652061175089	26	diastole	24	A	4062.961875947593	coherent
478.0727	0.1018652061175089	26	diastole	25	A	4062.961875947593	coherent
478.2813	0.1018652061175089	26	diastole	26	B	500.0	coherent
478.4902	0.1018652061175089	26	diastole	27	A	4062.961875947593	coherent
478.9898	0.1018652061175089	26	diastole	28	A	4062.961875947593	coherent
479.1998	0.1018652061175089	26	diastole	29	B	500.0	coherent
479.4099	0.1018652061175089	26	diastole	30	A	4062.961875947593	coherent
479.9293	0.1018652061175089	26	diastole	31	A	4062.961875947593	coherent
480.1479	0.1018652061175089	26	diastole	32	B	500.0	coherent
480.3668	0.1018652061175089	26	diastole	33	A	4062.961875947593	coherent
483.2215	0.1049884625535924	27	diastole	1	A	3538.000656405778	coherent
483.4302	0.1049884625535924	27	diastole	2	B	500.0	coherent
483.639	0.1049884625535924	27	diastole	3	A	3538.000656405778	coherent
484.0115	0.1049884625535924	27	diastole	4	A	3538.000656405778	coherent
484.2202	0.1049884625535924	27	diastole	5	B	500.0	coherent
484.4289	0.1049884625535924	27	diastole	6	A	3538.000656405778	coherent
484.7715	0.1049884625535924	27	diastole	7	A	3538.000656405778	coherent
484.9802	0.1049884625535924	27	diastole	8	B	500.0	coherent
485.189	0.1049884625535924	27	diastole	9	A	3538.000656405778	coherent
485.545	0.1049884625535924	27	diastole	10	A	3538.000656405778	coherent
485.7526	0.1049884625535924	27	diastole	11	B	500.0	coherent
485.9601	0.1049884625535924	27	diastole	12	A	3538.000656405778	coherent
486.3576	0.1049884625535924	27	diastole	13	A	3538.000656405778	coherent
486.5639	0.1049884625535924	27	diastole	14	B	500.0	coherent
486.7701	0.1049884625535924	27	diastole	15	A	3538.000656405778	coherent
487.1705	0.1049884625535924	27	diastole	16	A	3538.000656405778	coherent
487.3754	0.1049884625535924	27	diastole	17	B	500.0	coherent
487.5804	0.1049884625535924	27	diastole	18	A	3538.000656405778	coherent
487.9904	0.1049884625535924	27	diastole	19	A	3538.000656405778	coherent
488.1954	0.1049884625535924	27	diastole	20	B	500.0	coherent
488.4004	0.1049884625535924	27	diastole	21	A	3538.000656405778	coherent
488.8004	0.1049884625535924	27	diastole	22	A	3538.000656405778	coherent
489.0053	0.1049884625535924	27	diastole	23	B	500.0	coherent
489.2104	0.1049884625535924	27	diastole	24	A	3538.000656405778	coherent
489.6203	0.1049884625535924	27	diastole	25	A	3538.000656405778	coherent
489.8253	0.1049884625535924	27	diastole	26	B	500.0	coherent
490.0302	0.1049884625535924	27	diastole	27	A	3538.000656405778	coherent
490.4403	0.1049884625535924	27	diastole	28	A	3538.000656405778	coherent
490.6453	0.1049884625535924	27	diastole	29	B	500.0	coherent
490.8502	0.1049884625535924	27	diastole	30	A	3538.000656405778	coherent
491.1931	0.1049884625535924	27	diastole	31	A	3538.000656405778	coherent
491.3969	0.1049884625535924	27	diastole	32	B	500.0	coherent
491.6006	0.1049884625535924	27	diastole	33	A	3538.000656405778	coherent
491.9432	0.1049884625535924	27	diastole	34	A	3538.000656405778	coherent
492.1469	0.1049884625535924	27	diastole	35	B	500.0	coherent
492.3506	0.1049884625535924	27	diastole	36	A	3538.000656405778	coherent
495.1921	0.1018642653361894	28	diastole	1	A	3704.9827347719142	streaming
495.3922	0.1018642653361894	28	diastole	2	B	500.0	streaming
495.5921	0.1018642653361894	28	diastole	3	A	3704.9827347719142	streaming
495.9679	0.1018642653361894	28	diastole	4	A	3704.9827347719142	streaming
496.1655	0.1018642653361894	28	diastole	5	B	500.0	streaming
496.3629	0.1018642653361894	28	diastole	6	A	3704.9827347719142	streaming
496.7579	0.1018642653361894	28	diastole	7	A	3704.9827347719142	streaming
496.9555	0.1018642653361894	28	diastole	8	B	500.0	streaming
497.1529	0.1018642653361894	28	diastole	9	A	3704.9827347719142	streaming
497.558	0.1018642653361894	28	diastole	10	A	3704.9827347719142	streaming
497.7555	0.1018642653361894	28	diastole	11	B	500.0	streaming
497.953	0.1018642653361894	28	diastole	12	A	3704.9827347719142	streaming
498.3011	0.1018642653361894	28	diastole	13	A	3704.9827347719142	streaming
498.4974	0.1018642653361894	28	diastole	14	B	500.0	streaming
498.6936	0.1018642653361894	28	diastole	15	A	3704.9827347719142	streaming
499.0211	0.1018642653361894	28	diastole	16	A	3704.9827347719142	streaming
499.2174	0.1018642653361894	28	diastole	17	B	500.0	streaming
499.4137	0.1018642653361894	28	diastole	18	A	3704.9827347719142	streaming
499.7911	0.1018642653361894	28	diastole	19	A	3704.9827347719142	streaming
499.9874	0.1018642653361894	28	diastole	20	B	500.0	streaming
500.1836	0.1018642653361894	28	diastole	21	A	3704.9827347719142	streaming
500.6577	0.1018642653361894	28	diastole	22	A	3704.9827347719142	streaming
500.8553	0.1018642653361894	28	diastole	23	B	500.0	streaming
501.0527	0.1018642653361894	28	diastole	24	A	3704.9827347719142	streaming
501.5381	0.1018642653361894	28	diastole	25	A	3704.9827347719142	streaming
501.7357	0.1018642653361894	28	diastole	26	B	500.0	streaming
501.9331	0.1018642653361894	28	diastole	27	A	3704.9827347719142	streaming
502.4185	0.1018642653361894	28	diastole	28	A	3704.9827347719142	streaming
502.6161	0.1018642653361894	28	diastole	29	B	500.0	streaming
502.8135	0.1018642653361894	28	diastole	30	A	3704.9827347719142	streaming
503.2382	0.1018642653361894	28	diastole	31	A	3704.9827347719142	streaming
503.4357	0.1018642653361894	28	diastole	32	B	500.0	streaming
503.6332	0.1018642653361894	28	diastole	33	A	3704.9827347719142	streaming
504.1162	0.1018642653361894	28	diastole	34	A	3704.9827347719142	streaming
504.3187	0.1018642653361894	28	diastole	35	B	500.0	streaming
504.5212	0.1018642653361894	28	diastole	36	A	3704.9827347719142	streaming
507.4362	0.1043504624976776	29	diastole	1	A	2682.7996005075997	coherent
507.6474	0.1043504624976776	29	diastole	2	B	500.0	coherent
507.8587	0.1043504624976776	29	diastole	3	A	2682.7996005075997	coherent
508.2764	0.1043504624976776	29	diastole	4	A	2682.7996005075997	coherent
508.4876	0.1043504624976776	29	diastole	5	B	500.0	coherent
508.6989	0.1043504624976776	29	diastole	6	A	2682.7996005075997	coherent
509.1094	0.1043504624976776	29	diastole	7	A	2682.7996005075997	coherent
509.3194	0.1043504624976776	29	diastole	8	B	500.0	coherent
509.5295	0.1043504624976776	29	diastole	9	A	2682.7996005075997	coherent
509.8748	0.1043504624976776	29	diastole	10	A	2682.7996005075997	coherent
510.0823	0.1043504624976776	29	diastole	11	B	500.0	coherent
510.2898	0.1043504624976776	29	diastole	12	A	2682.7996005075997	coherent
510.6548	0.1043504624976776	29	diastole	13	A	2682.7996005075997	coherent
510.8622	0.1043504624976776	29	diastole	14	B	500.0	coherent
511.0698	0.1043504624976776	29	diastole	15	A	2682.7996005075997	coherent
511.4463	0.1043504624976776	29	diastole	16	A	2682.7996005075997	coherent
511.6502	0.1043504624976776	29	diastole	17	B	500.0	coherent
511.8541	0.1043504624976776	29	diastole	18	A	2682.7996005075997	coherent
512.2747	0.1043504624976776	29	diastole	19	A	2682.7996005075997	coherent
512.4786	0.1043504624976776	29	diastole	20	B	500.0	coherent
512.6825	0.1043504624976776	29	diastole	21	A	2682.7996005075997	coherent
513.1045	0.1043504624976776	29	diastole	22	A	2682.7996005075997	coherent
513.3084	0.1043504624976776	29	diastole	23	B	500.0	coherent
513.5123	0.1043504624976776	29	diastole	24	A	2682.7996005075997	coherent
513.8744	0.1043504624976776	29	diastole	25	A	2682.7996005075997	coherent
514.0783	0.1043504624976776	29	diastole	26	B	500.0	coherent
514.2822	0.1043504624976776	29	diastole	27	A	2682.7996005075997	coherent
514.6948	0.1043504624976776	29	diastole	28	A	2682.7996005075997	coherent
514.8987	0.1043504624976776	29	diastole	29	B	500.0	coherent
515.1027	0.1043504624976776	29	diastole	30	A	2682.7996005075997	coherent
515.5147	0.1043504624976776	29	diastole	31	A	2682.7996005075997	coherent
515.7187	0.1043504624976776	29	diastole	32	B	500.0	coherent
515.9226	0.1043504624976776	29	diastole	33	A	2682.7996005075997	coherent
516.3347	0.1043504624976776	29	diastole	34	A	2682.7996005075997	coherent
516.5387	0.1043504624976776	29	diastole	35	B	500.0	coherent
516.7427	0.1043504624976776	29	diastole	36	A	2682.7996005075997	coherent
521.1704	0.1012519962096121	30	diastole	1	A	2809.4189815191617	coherent
521.3754	0.1012519962096121	30	diastole	2	B	500.0	coherent
521.5804	0.1012519962096121	30	diastole	3	A	2809.4189815191617	coherent
522.0304	0.1012519962096121	30	diastole	4	A	2809.4189815191617	coherent
522.2354	0.1012519962096121	30	diastole	5	B	500.0	coherent
522.4404	0.1012519962096121	30	diastole	6	A	2809.4189815191617	coherent
522.8504	0.1012519962096121	30	diastole	7	A	2809.4189815191617	coherent
523.0553	0.1012519962096121	30	diastole	8	B	500.0	coherent
523.2604	0.1012519962096121	30	diastole	9	A	2809.4189815191617	coherent
523.6104	0.1012519962096121	30	diastole	10	A	2809.4189815191617	coherent
523.8154	0.1012519962096121	30	diastole	11	B	500.0	coherent
524.0204	0.1012519962096121	30	diastole	12	A	2809.4189815191617	coherent
524.3703	0.1012519962096121	30	diastole	13	A	2809.4189815191617	coherent
524.5753	0.1012519962096121	30	diastole	14	B	500.0	coherent
524.7803	0.1012519962096121	30	diastole	15	A	2809.4189815191617	coherent
525.1204	0.1012519962096121	30	diastole	16	A	2809.4189815191617	coherent
525.3254	0.1012519962096121	30	diastole	17	B	500.0	coherent
525.5303	0.1012519962096121	30	diastole	18	A	2809.4189815191617	coherent
525.8903	0.1012519962096121	30	diastole	19	A	2809.4189815191617	coherent
526.0953	0.1012519962096121	30	diastole	20	B	500.0	coherent
526.3003	0.1012519962096121	30	diastole	21	A	2809.4189815191617	coherent
526.6602	0.1012519962096121	30	diastole	22	A	2809.4189815191617	coherent
526.8652	0.1012519962096121	30	diastole	23	B	500.0	coherent
527.0702	0.1012519962096121	30	diastole	24	A	2809.4189815191617	coherent
527.4801	0.1012519962096121	30	diastole	25	A	2809.4189815191617	coherent
527.6851	0.1012519962096121	30	diastole	26	B	500.0	coherent
527.8901	0.1012519962096121	30	diastole	27	A	2809.4189815191617	coherent
528.219	0.1012519962096121	30	diastole	28	A	2809.4189815191617	coherent
528.4202	0.1012519962096121	30	diastole	29	B	500.0	coherent
528.6215	0.1012519962096121	30	diastole	30	A	2809.4189815191617	coherent
528.979	0.1012519962096121	30	diastole	31	A	2809.4189815191617	coherent
529.1803	0.1012519962096121	30	diastole	32	B	500.0	coherent
529.3815	0.1012519962096121	30	diastole	33	A	2809.4189815191617	coherent
529.8037	0.1012519962096121	30	diastole	34	A	2809.4189815191617	coherent
529.9988	0.1012519962096121	30	diastole	35	B	500.0	coherent
530.1938	0.1012519962096121	30	diastole	36	A	2809.4189815191617	coherent
533.0979	0.0987471744592767	31	diastole	1	A	4999.999999999997	coherent
533.2954	0.0987471744592767	31	diastole	2	B	500.0	coherent
533.493	0.0987471744592767	31	diastole	3	A	4999.999999999997	coherent
533.8879	0.0987471744592767	31	diastole	4	A	4999.999999999997	coherent
534.0854	0.0987471744592767	31	diastole	5	B	500.0	coherent
534.2829	0.0987471744592767	31	diastole	6	A	4999.999999999997	coherent
534.8282	0.0987471744592767	31	diastole	7	A	4999.999999999997	coherent
535.0256	0.0987471744592767	31	diastole	8	B	500.0	coherent
535.2232	0.0987471744592767	31	diastole	9	A	4999.999999999997	coherent
535.6749	0.0987471744592767	31	diastole	10	A	4999.999999999997	coherent
535.8736	0.0987471744592767	31	diastole	11	B	500.0	coherent
536.0724	0.0987471744592767	31	diastole	12	A	4999.999999999997	coherent
536.405	0.0987471744592767	31	diastole	13	A	4999.999999999997	coherent
536.6037	0.0987471744592767	31	diastole	14	B	500.0	coherent
536.8024	0.0987471744592767	31	diastole	15	A	4999.999999999997	coherent
537.0878	0.0987471744592767	31	diastole	16	A	4999.999999999997	coherent
537.2853	0.0987471744592767	31	diastole	17	B	500.0	coherent
537.4828	0.0987471744592767	31	diastole	18	A	4999.999999999997	coherent
537.7778	0.0987471744592767	31	diastole	19	A	4999.999999999997	coherent
537.9753	0.0987471744592767	31	diastole	20	B	500.0	coherent
538.1728	0.0987471744592767	31	diastole	21	A	4999.999999999997	coherent
538.4677	0.0987471744592767	31	diastole	22	A	4999.999999999997	coherent
538.6652	0.0987471744592767	31	diastole	23	B	500.0	coherent
538.8627	0.0987471744592767	31	diastole	24	A	4999.999999999997	coherent
539.1735	0.0987471744592767	31	diastole	25	A	4999.999999999997	coherent
539.3684	0.0987471744592767	31	diastole	26	B	500.0	coherent
539.5634	0.0987471744592767	31	diastole	27	A	4999.999999999997	coherent
539.7556	0.0987471744592767	31	diastole	28	A	4999.999999999997	coherent
539.9368	0.0987471744592767	31	diastole	29	B	500.0	coherent
540.1181	0.0987471744592767	31	diastole	30	A	4999.999999999997	coherent
540.4156	0.0987471744592767	31	diastole	31	A	4999.999999999997	coherent
540.5968	0.0987471744592767	31	diastole	32	B	500.0	coherent
540.7781	0.0987471744592767	31	diastole	33	A	4999.999999999997	coherent
541.0671	0.0987471744592767	31	diastole	34	A	4999.999999999997	coherent
541.2433	0.0987471744592767	31	diastole	35	B	500.0	coherent
541.4196	0.0987471744592767	31	diastole	36	A	4999.999999999997	coherent
541.7471	0.0987471744592767	31	diastole	37	A	4999.999999999997	coherent
541.9233	0.0987471744592767	31	diastole	38	B	500.0	coherent
542.0996	0.0987471744592767	31	diastole	39	A	4999.999999999997	coherent
544.6335	0.0893722437031101	32	systole	1	A	4665.815755436727	coherent
544.8146	0.0893722437031101	32	systole	2	B	500.0	coherent
544.9959	0.0893722437031101	32	systole	3	A	4665.815755436727	coherent
545.3106	0.0893722437031101	32	systole	4	A	4665.815755436727	coherent
545.4905	0.0893722437031101	32	systole	5	B	500.0	coherent
545.6706	0.0893722437031101	32	systole	6	A	4665.815755436727	coherent
545.9923	0.0893722437031101	32	systole	7	A	4665.815755436727	coherent
546.1722	0.0893722437031101	32	systole	8	B	500.0	coherent
546.3523	0.0893722437031101	32	systole	9	A	4665.815755436727	coherent
546.6307	0.0893722437031101	32	systole	10	A	4665.815755436727	coherent
546.8105	0.0893722437031101	32	systole	11	B	500.0	coherent
546.9906	0.0893722437031101	32	systole	12	A	4665.815755436727	coherent
547.2207	0.0893722437031101	32	systole	13	A	4665.815755436727	coherent
547.4006	0.0893722437031101	32	systole	14	B	500.0	coherent
547.5807	0.0893722437031101	32	systole	15	A	4665.815755436727	coherent
547.8107	0.0893722437031101	32	systole	16	A	4665.815755436727	coherent
547.9906	0.0893722437031101	32	systole	17	B	500.0	coherent
548.1707	0.0893722437031101	32	systole	18	A	4665.815755436727	coherent
548.4257	0.0893722437031101	32	systole	19	A	4665.815755436727	coherent
548.5933	0.0893722437031101	32	systole	20	B	500.0	coherent
548.7611	0.0893722437031101	32	systole	21	A	4665.815755436727	coherent
549.0856	0.0893722437031101	32	systole	22	A	4665.815755436727	coherent
549.2533	0.0893722437031101	32	systole	23	B	500.0	coherent
549.4211	0.0893722437031101	32	systole	24	A	4665.815755436727	coherent
549.7456	0.0893722437031101	32	systole	25	A	4665.815755436727	coherent
549.9132	0.0893722437031101	32	systole	26	B	500.0	coherent
550.081	0.0893722437031101	32	systole	27	A	4665.815755436727	coherent
550.8856	0.0893722437031101	32	systole	28	A	4665.815755436727	coherent
551.0532	0.0893722437031101	32	systole	29	B	500.0	coherent
551.2211	0.0893722437031101	32	systole	30	A	4665.815755436727	coherent
551.9156	0.0893722437031101	32	systole	31	A	4665.815755436727	coherent
552.0833	0.0893722437031101	32	systole	32	B	500.0	coherent
552.2511	0.0893722437031101	32	systole	33	A	4665.815755436727	coherent
552.8557	0.0893722437031101	32	systole	34	A	4665.815755436727	coherent
553.0233	0.0893722437031101	32	systole	35	B	500.0	coherent
553.1911	0.0893722437031101	32	systole	36	A	4665.815755436727	coherent
553.9341	0.0893722437031101	32	systole	37	A	4665.815755436727	coherent
554.134	0.0893722437031101	32	systole	38	B	500.0	coherent
554.3341	0.0893722437031101	32	systole	39	A	4665.815755436727	coherent
559.0095	0.123127771745203	33	systole	1	A	3010.640720484466	coherent
559.247	0.123127771745203	33	systole	2	B	500.0	coherent
559.4845	0.123127771745203	33	systole	3	A	3010.640720484466	coherent
559.7594	0.123127771745203	33	systole	4	A	3010.640720484466	coherent
559.997	0.123127771745203	33	systole	5	B	500.0	coherent
560.2345	0.123127771745203	33	systole	6	A	3010.640720484466	coherent
560.6111	0.123127771745203	33	systole	7	A	3010.640720484466	coherent
560.8437	0.123127771745203	33	systole	8	B	500.0	coherent
561.0761	0.123127771745203	33	systole	9	A	3010.640720484466	coherent
561.4811	0.123127771745203	33	systole	10	A	3010.640720484466	coherent
561.7137	0.123127771745203	33	systole	11	B	500.0	coherent
561.9461	0.123127771745203	33	systole	12	A	3010.640720484466	coherent
562.1747	0.123127771745203	33	systole	13	A	3010.640720484466	coherent
562.381	0.123127771745203	33	systole	14	B	500.0	coherent
562.5873	0.123127771745203	33	systole	15	A	3010.640720484466	coherent
562.9644	0.123127771745203	33	systole	16	A	3010.640720484466	coherent
563.1707	0.123127771745203	33	systole	17	B	500.0	coherent
563.3769	0.123127771745203	33	systole	18	A	3010.640720484466	coherent
563.8848	0.123127771745203	33	systole	19	A	3010.640720484466	coherent
564.0911	0.123127771745203	33	systole	20	B	500.0	coherent
564.2973	0.123127771745203	33	systole	21	A	3010.640720484466	coherent
564.7547	0.123127771745203	33	systole	22	A	3010.640720484466	coherent
564.9611	0.123127771745203	33	systole	23	B	500.0	coherent
565.1673	0.123127771745203	33	systole	24	A	3010.640720484466	coherent
565.6247	0.123127771745203	33	systole	25	A	3010.640720484466	coherent
565.8311	0.123127771745203	33	systole	26	B	500.0	coherent
566.0373	0.123127771745203	33	systole	27	A	3010.640720484466	coherent
566.4143	0.123127771745203	33	systole	28	A	3010.640720484466	coherent
566.6207	0.123127771745203	33	systole	29	B	500.0	coherent
566.8269	0.123127771745203	33	systole	30	A	3010.640720484466	coherent
567.2039	0.123127771745203	33	systole	31	A	3010.640720484466	coherent
567.4103	0.123127771745203	33	systole	32	B	500.0	coherent
567.6165	0.123127771745203	33	systole	33	A	3010.640720484466	coherent
568.0628	0.123127771745203	33	systole	34	A	3010.640720484466	coherent
568.2741	0.123127771745203	33	systole	35	B	500.0	coherent
568.4854	0.123127771745203	33	systole	36	A	3010.640720484466	coherent
572.0196	0.1050519062264356	34	diastole	1	A	2682.7996005075997	coherent
572.2297	0.1050519062264356	34	diastole	2	B	500.0	coherent
572.4398	0.1050519062264356	34	diastole	3	A	2682.7996005075997	coherent
572.8289	0.1050519062264356	34	diastole	4	A	2682.7996005075997	coherent
573.0389	0.1050519062264356	34	diastole	5	B	500.0	coherent
573.249	0.1050519062264356	34	diastole	6	A	2682.7996005075997	coherent
573.6386	0.1050519062264356	34	diastole	7	A	2682.7996005075997	coherent
573.8486	0.1050519062264356	34	diastole	8	B	500.0	coherent
574.0587	0.1050519062264356	34	diastole	9	A	2682.7996005075997	coherent
574.4482	0.1050519062264356	34	diastole	10	A	2682.7996005075997	coherent
574.6582	0.1050519062264356	34	diastole	11	B	500.0	coherent
574.8683	0.1050519062264356	34	diastole	12	A	2682.7996005075997	coherent
575.1638	0.1050519062264356	34	diastole	13	A	2682.7996005075997	coherent
575.3713	0.1050519062264356	34	diastole	14	B	500.0	coherent
575.5788	0.1050519062264356	34	diastole	15	A	2682.7996005075997	coherent
575.8938	0.1050519062264356	34	diastole	16	A	2682.7996005075997	coherent
576.1013	0.1050519062264356	34	diastole	17	B	500.0	coherent
576.3088	0.1050519062264356	34	diastole	18	A	2682.7996005075997	coherent
576.6339	0.1050519062264356	34	diastole	19	A	2682.7996005075997	coherent
576.8413	0.1050519062264356	34	diastole	20	B	500.0	coherent
577.0489	0.1050519062264356	34	diastole	21	A	2682.7996005075997	coherent
577.4838	0.1050519062264356	34	diastole	22	A	2682.7996005075997	coherent
577.6913	0.1050519062264356	34	diastole	23	B	500.0	coherent
577.8988	0.1050519062264356	34	diastole	24	A	2682.7996005075997	coherent
578.3338	0.1050519062264356	34	diastole	25	A	2682.7996005075997	coherent
578.5413	0.1050519062264356	34	diastole	26	B	500.0	coherent
578.7488	0.1050519062264356	34	diastole	27	A	2682.7996005075997	coherent
579.1329	0.1050519062264356	34	diastole	28	A	2682.7996005075997	coherent
579.3367	0.1050519062264356	34	diastole	29	B	500.0	coherent
579.5405	0.1050519062264356	34	diastole	30	A	2682.7996005075997	coherent
579.9528	0.1050519062264356	34	diastole	31	A	2682.7996005075997	coherent
580.1566	0.1050519062264356	34	diastole	32	B	500.0	coherent
580.3604	0.1050519062264356	34	diastole	33	A	2682.7996005075997	coherent
580.7728	0.1050519062264356	34	diastole	34	A	2682.7996005075997	coherent
580.9765	0.1050519062264356	34	diastole	35	B	500.0	coherent
581.1804	0.1050519062264356	34	diastole	36	A	2682.7996005075997	coherent
585.0481	0.1006552284234203	35	systole	1	A	3152.7331318609326	coherent
585.2467	0.1006552284234203	35	systole	2	B	500.0	coherent
585.4457	0.1006552284234203	35	systole	3	A	3152.7331318609326	coherent
585.7597	0.1006552284234203	35	systole	4	A	3152.7331318609326	coherent
585.9534	0.1006552284234203	35	systole	5	B	500.0	coherent
586.1473	0.1006552284234203	35	systole	6	A	3152.7331318609326	coherent
586.5698	0.1006552284234203	35	systole	7	A	3152.7331318609326	coherent
586.7634	0.1006552284234203	35	systole	8	B	500.0	coherent
586.9573	0.1006552284234203	35	systole	9	A	3152.7331318609326	coherent
587.4195	0.1006552284234203	35	systole	10	A	3152.7331318609326	coherent
587.6132	0.1006552284234203	35	systole	11	B	500.0	coherent
587.8071	0.1006552284234203	35	systole	12	A	3152.7331318609326	coherent
588.2693	0.1006552284234203	35	systole	13	A	3152.7331318609326	coherent
588.463	0.1006552284234203	35	systole	14	B	500.0	coherent
588.6569	0.1006552284234203	35	systole	15	A	3152.7331318609326	coherent
589.0437	0.1006552284234203	35	systole	16	A	3152.7331318609326	coherent
589.2386	0.1006552284234203	35	systole	17	B	500.0	coherent
589.4338	0.1006552284234203	35	systole	18	A	3152.7331318609326	coherent
589.8137	0.1006552284234203	35	systole	19	A	3152.7331318609326	coherent
590.0086	0.1006552284234203	35	systole	20	B	500.0	coherent
590.2037	0.1006552284234203	35	systole	21	A	3152.7331318609326	coherent
590.6231	0.1006552284234203	35	systole	22	A	3152.7331318609326	coherent
590.8205	0.1006552284234203	35	systole	23	B	500.0	coherent
591.0182	0.1006552284234203	35	systole	24	A	3152.7331318609326	coherent
591.4977	0.1006552284234203	35	systole	25	A	3152.7331318609326	coherent
591.6964	0.1006552284234203	35	systole	26	B	500.0	coherent
591.8953	0.1006552284234203	35	systole	27	A	3152.7331318609326	coherent
592.2775	0.1006552284234203	35	systole	28	A	3152.7331318609326	coherent
592.4761	0.1006552284234203	35	systole	29	B	500.0	coherent
592.675	0.1006552284234203	35	systole	30	A	3152.7331318609326	coherent
593.0474	0.1006552284234203	35	systole	31	A	3152.7331318609326	coherent
593.246	0.1006552284234203	35	systole	32	B	500.0	coherent
593.4449	0.1006552284234203	35	systole	33	A	3152.7331318609326	coherent
593.8172	0.1006552284234203	35	systole	34	A	3152.7331318609326	coherent
594.0158	0.1006552284234203	35	systole	35	B	500.0	coherent
594.2147	0.1006552284234203	35	systole	36	A	3152.7331318609326	coherent
598.1211	0.0972573809849564	36	diastole	1	A	2809.4189815191617	coherent
598.3156	0.0972573809849564	36	diastole	2	B	500.0	coherent
598.5101	0.0972573809849564	36	diastole	3	A	2809.4189815191617	coherent
598.9611	0.0972573809849564	36	diastole	4	A	2809.4189815191617	coherent
599.1556	0.0972573809849564	36	diastole	5	B	500.0	coherent
599.3501	0.0972573809849564	36	diastole	6	A	2809.4189815191617	coherent
599.7911	0.0972573809849564	36	diastole	7	A	2809.4189815191617	coherent
599.9856	0.0972573809849564	36	diastole	8	B	500.0	coherent
600.1802	0.0972573809849564	36	diastole	9	A	2809.4189815191617	coherent
600.621	0.0972573809849564	36	diastole	10	A	2809.4189815191617	coherent
600.8155	0.0972573809849564	36	diastole	11	B	500.0	coherent
601.01	0.0972573809849564	36	diastole	12	A	2809.4189815191617	coherent
601.5078	0.0972573809849564	36	diastole	13	A	2809.4189815191617	coherent
601.7088	0.0972573809849564	36	diastole	14	B	500.0	coherent
601.9098	0.0972573809849564	36	diastole	15	A	2809.4189815191617	coherent
602.3574	0.0972573809849564	36	diastole	16	A	2809.4189815191617	coherent
602.5637	0.0972573809849564	36	diastole	17	B	500.0	coherent
602.7699	0.0972573809849564	36	diastole	18	A	2809.4189815191617	coherent
603.1774	0.0972573809849564	36	diastole	19	A	2809.4189815191617	coherent
603.3837	0.0972573809849564	36	diastole	20	B	500.0	coherent
603.5899	0.0972573809849564	36	diastole	21	A	2809.4189815191617	coherent
603.8975	0.0972573809849564	36	diastole	22	A	2809.4189815191617	coherent
604.1037	0.0972573809849564	36	diastole	23	B	500.0	coherent
604.31	0.0972573809849564	36	diastole	24	A	2809.4189815191617	coherent
604.6176	0.0972573809849564	36	diastole	25	A	2809.4189815191617	coherent
604.8238	0.0972573809849564	36	diastole	26	B	500.0	coherent
605.03	0.0972573809849564	36	diastole	27	A	2809.4189815191617	coherent
605.3376	0.0972573809849564	36	diastole	28	A	2809.4189815191617	coherent
605.5439	0.0972573809849564	36	diastole	29	B	500.0	coherent
605.7501	0.0972573809849564	36	diastole	30	A	2809.4189815191617	coherent
606.098	0.0972573809849564	36	diastole	31	A	2809.4189815191617	coherent
606.3042	0.0972573809849564	36	diastole	32	B	500.0	coherent
606.5105	0.0972573809849564	36	diastole	33	A	2809.4189815191617	coherent
610.5478	0.0993807379563804	37	systole	1	A	4999.999999999997	streaming
610.7465	0.0993807379563804	37	systole	2	B	500.0	streaming
610.9453	0.0993807379563804	37	systole	3	A	4999.999999999997	streaming
611.2978	0.0993807379563804	37	systole	4	A	4999.999999999997	streaming
611.4965	0.0993807379563804	37	systole	5	B	500.0	streaming
611.6953	0.0993807379563804	37	systole	6	A	4999.999999999997	streaming
612.0478	0.0993807379563804	37	systole	7	A	4999.999999999997	streaming
612.2465	0.0993807379563804	37	systole	8	B	500.0	streaming
612.4453	0.0993807379563804	37	systole	9	A	4999.999999999997	streaming
612.7879	0.0993807379563804	37	systole	10	A	4999.999999999997	streaming
612.9866	0.0993807379563804	37	systole	11	B	500.0	streaming
613.1854	0.0993807379563804	37	systole	12	A	4999.999999999997	streaming
613.528	0.0993807379563804	37	systole	13	A	4999.999999999997	streaming
613.7267	0.0993807379563804	37	systole	14	B	500.0	streaming
613.9255	0.0993807379563804	37	systole	15	A	4999.999999999997	streaming
614.2151	0.0993807379563804	37	systole	16	A	4999.999999999997	streaming
614.4076	0.0993807379563804	37	systole	17	B	500.0	streaming
614.6001	0.0993807379563804	37	systole	18	A	4999.999999999997	streaming
614.9251	0.0993807379563804	37	systole	19	A	4999.999999999997	streaming
615.1176	0.0993807379563804	37	systole	20	B	500.0	streaming
615.3101	0.0993807379563804	37	systole	21	A	4999.999999999997	streaming
615.6351	0.0993807379563804	37	systole	22	A	4999.999999999997	streaming
615.8276	0.0993807379563804	37	systole	23	B	500.0	streaming
616.0201	0.0993807379563804	37	systole	24	A	4999.999999999997	streaming
616.3323	0.0993807379563804	37	systole	25	A	4999.999999999997	streaming
616.5185	0.0993807379563804	37	systole	26	B	500.0	streaming
616.7048	0.0993807379563804	37	systole	27	A	4999.999999999997	streaming
617.1622	0.0993807379563804	37	systole	28	A	4999.999999999997	streaming
617.3484	0.0993807379563804	37	systole	29	B	500.0	streaming
617.5347	0.0993807379563804	37	systole	30	A	4999.999999999997	streaming
617.962	0.0993807379563804	37	systole	31	A	4999.999999999997	streaming
618.1482	0.0993807379563804	37	systole	32	B	500.0	streaming
618.3345	0.0993807379563804	37	systole	33	A	4999.999999999997	streaming
618.7519	0.0993807379563804	37	systole	34	A	4999.999999999997	streaming
618.9382	0.0993807379563804	37	systole	35	B	500.0	streaming
619.1245	0.0993807379563804	37	systole	36	A	4999.999999999997	streaming
619.5794	0.0993807379563804	37	systole	37	A	4999.999999999997	streaming
619.7731	0.0993807379563804	37	systole	38	B	500.0	streaming
619.9669	0.0993807379563804	37	systole	39	A	4999.999999999997	streaming
621.9592	0.0968776191875804	38	systole	1	A	4999.999999999997	streaming
622.1529	0.0968776191875804	38	systole	2	B	500.0	streaming
622.3467	0.0968776191875804	38	systole	3	A	4999.999999999997	streaming
622.7192	0.0968776191875804	38	systole	4	A	4999.999999999997	streaming
622.9129	0.0968776191875804	38	systole	5	B	500.0	streaming
623.1067	0.0968776191875804	38	systole	6	A	4999.999999999997	streaming
623.4691	0.0968776191875804	38	systole	7	A	4999.999999999997	streaming
623.6628	0.0968776191875804	38	systole	8	B	500.0	streaming
623.8566	0.0968776191875804	38	systole	9	A	4999.999999999997	streaming
624.2057	0.0968776191875804	38	systole	10	A	4999.999999999997	streaming
624.3957	0.0968776191875804	38	systole	11	B	500.0	streaming
624.5858	0.0968776191875804	38	systole	12	A	4999.999999999997	streaming
624.9561	0.0968776191875804	38	systole	13	A	4999.999999999997	streaming
625.1461	0.0968776191875804	38	systole	14	B	500.0	streaming
625.3361	0.0968776191875804	38	systole	15	A	4999.999999999997	streaming
625.7016	0.0968776191875804	38	systole	16	A	4999.999999999997	streaming
625.8904	0.0968776191875804	38	systole	17	B	500.0	streaming
626.0792	0.0968776191875804	38	systole	18	A	4999.999999999997	streaming
626.5016	0.0968776191875804	38	systole	19	A	4999.999999999997	streaming
626.6904	0.0968776191875804	38	systole	20	B	500.0	streaming
626.8792	0.0968776191875804	38	systole	21	A	4999.999999999997	streaming
627.3016	0.0968776191875804	38	systole	22	A	4999.999999999997	streaming
627.4904	0.0968776191875804	38	systole	23	B	500.0	streaming
627.6792	0.0968776191875804	38	systole	24	A	4999.999999999997	streaming
628.0713	0.0968776191875804	38	systole	25	A	4999.999999999997	streaming
628.26	0.0968776191875804	38	systole	26	B	500.0	streaming
628.4489	0.0968776191875804	38	systole	27	A	4999.999999999997	streaming
628.8316	0.0968776191875804	38	systole	28	A	4999.999999999997	streaming
629.0204	0.0968776191875804	38	systole	29	B	500.0	streaming
629.2092	0.0968776191875804	38	systole	30	A	4999.999999999997	streaming
629.5816	0.0968776191875804	38	systole	31	A	4999.999999999997	streaming
629.7704	0.0968776191875804	38	systole	32	B	500.0	streaming
629.9592	0.0968776191875804	38	systole	33	A	4999.999999999997	streaming
630.346	0.0968776191875804	38	systole	34	A	4999.999999999997	streaming
630.536	0.0968776191875804	38	systole	35	B	500.0	streaming
630.7261	0.0968776191875804	38	systole	36	A	4999.999999999997	streaming
631.0916	0.0968776191875804	38	systole	37	A	4999.999999999997	streaming
631.2804	0.0968776191875804	38	systole	38	B	500.0	streaming
631.4692	0.0968776191875804	38	systole	39	A	4999.999999999997	streaming
637.9717	0.0999761023267638	39	diastole	1	A	2942.014383864825	coherent
638.1717	0.0999761023267638	39	diastole	2	B	500.0	coherent
638.3716	0.0999761023267638	39	diastole	3	A	2942.014383864825	coherent
638.7017	0.0999761023267638	39	diastole	4	A	2942.014383864825	coherent
638.9017	0.0999761023267638	39	diastole	5	B	500.0	coherent
639.1016	0.0999761023267638	39	diastole	6	A	2942.014383864825	coherent
639.4217	0.0999761023267638	39	diastole	7	A	2942.014383864825	coherent
639.6217	0.0999761023267638	39	diastole	8	B	500.0	coherent
639.8216	0.0999761023267638	39	diastole	9	A	2942.014383864825	coherent
640.1416	0.0999761023267638	39	diastole	10	A	2942.014383864825	coherent
640.3416	0.0999761023267638	39	diastole	11	B	500.0	coherent
640.5415	0.0999761023267638	39	diastole	12	A	2942.014383864825	coherent
640.8617	0.0999761023267638	39	diastole	13	A	2942.014383864825	coherent
641.0617	0.0999761023267638	39	diastole	14	B	500.0	coherent
641.2616	0.0999761023267638	39	diastole	15	A	2942.014383864825	coherent
641.6217	0.0999761023267638	39	diastole	16	A	2942.014383864825	coherent
641.8217	0.0999761023267638	39	diastole	17	B	500.0	coherent
642.0216	0.0999761023267638	39	diastole	18	A	2942.014383864825	coherent
642.3312	0.0999761023267638	39	diastole	19	A	2942.014383864825	coherent
642.5187	0.0999761023267638	39	diastole	20	B	500.0	coherent
642.7062	0.0999761023267638	39	diastole	21	A	2942.014383864825	coherent
643.1811	0.0999761023267638	39	diastole	22	A	2942.014383864825	coherent
643.3687	0.0999761023267638	39	diastole	23	B	500.0	coherent
643.5561	0.0999761023267638	39	diastole	24	A	2942.014383864825	coherent
644.0311	0.0999761023267638	39	diastole	25	A	2942.014383864825	coherent
644.2186	0.0999761023267638	39	diastole	26	B	500.0	coherent
644.4061	0.0999761023267638	39	diastole	27	A	2942.014383864825	coherent
644.8811	0.0999761023267638	39	diastole	28	A	2942.014383864825	coherent
645.0686	0.0999761023267638	39	diastole	29	B	500.0	coherent
645.2561	0.0999761023267638	39	diastole	30	A	2942.014383864825	coherent
645.6722	0.0999761023267638	39	diastole	31	A	2942.014383864825	coherent
645.8635	0.0999761023267638	39	diastole	32	B	500.0	coherent
646.0547	0.0999761023267638	39	diastole	33	A	2942.014383864825	coherent
646.4323	0.0999761023267638	39	diastole	34	A	2942.014383864825	coherent
646.6236	0.0999761023267638	39	diastole	35	B	500.0	coherent
646.8148	0.0999761023267638	39	diastole	36	A	2942.014383864825	coherent
649.6501	0.0962493687402457	40	systole	1	A	4999.999999999997	streaming
649.8413	0.0962493687402457	40	systole	2	B	500.0	streaming
650.0326	0.0962493687402457	40	systole	3	A	4999.999999999997	streaming
650.4401	0.0962493687402457	40	systole	4	A	4999.999999999997	streaming
650.6313	0.0962493687402457	40	systole	5	B	500.0	streaming
650.8226	0.0962493687402457	40	systole	6	A	4999.999999999997	streaming
651.2301	0.0962493687402457	40	systole	7	A	4999.999999999997	streaming
651.4213	0.0962493687402457	40	systole	8	B	500.0	streaming
651.6126	0.0962493687402457	40	systole	9	A	4999.999999999997	streaming
651.971	0.0962493687402457	40	systole	10	A	4999.999999999997	streaming
652.1597	0.0962493687402457	40	systole	11	B	500.0	streaming
652.3485	0.0962493687402457	40	systole	12	A	4999.999999999997	streaming
652.6919	0.0962493687402457	40	systole	13	A	4999.999999999997	streaming
652.8782	0.0962493687402457	40	systole	14	B	500.0	streaming
653.0645	0.0962493687402457	40	systole	15	A	4999.999999999997	streaming
653.4272	0.0962493687402457	40	systole	16	A	4999.999999999997	streaming
653.6122	0.0962493687402457	40	systole	17	B	500.0	streaming
653.7973	0.0962493687402457	40	systole	18	A	4999.999999999997	streaming
654.1672	0.0962493687402457	40	systole	19	A	4999.999999999997	streaming
654.3522	0.0962493687402457	40	systole	20	B	500.0	streaming
654.5372	0.0962493687402457	40	systole	21	A	4999.999999999997	streaming
654.9671	0.0962493687402457	40	systole	22	A	4999.999999999997	streaming
655.1521	0.0962493687402457	40	systole	23	B	500.0	streaming
655.3372	0.0962493687402457	40	systole	24	A	4999.999999999997	streaming
655.7671	0.0962493687402457	40	systole	25	A	4999.999999999997	streaming
655.9521	0.0962493687402457	40	systole	26	B	500.0	streaming
656.1372	0.0962493687402457	40	systole	27	A	4999.999999999997	streaming
656.552	0.0962493687402457	40	systole	28	A	4999.999999999997	streaming
656.7382	0.0962493687402457	40	systole	29	B	500.0	streaming
656.9245	0.0962493687402457	40	systole	30	A	4999.999999999997	streaming
657.3324	0.0962493687402457	40	systole	31	A	4999.999999999997	streaming
657.5186	0.0962493687402457	40	systole	32	B	500.0	streaming
657.7049	0.0962493687402457	40	systole	33	A	4999.999999999997	streaming
658.0721	0.0962493687402457	40	systole	34	A	4999.999999999997	streaming
658.2583	0.0962493687402457	40	systole	35	B	500.0	streaming
658.4445	0.0962493687402457	40	systole	36	A	4999.999999999997	streaming
658.812	0.0962493687402457	40	systole	37	A	4999.999999999997	streaming
658.9982	0.0962493687402457	40	systole	38	B	500.0	streaming
659.1845	0.0962493687402457	40	systole	39	A	4999.999999999997	streaming
662.4001	0.0962779839464929	41	diastole	1	A	3010.640720484466	coherent
662.5927	0.0962779839464929	41	diastole	2	B	500.0	coherent
662.7852	0.0962779839464929	41	diastole	3	A	3010.640720484466	coherent
663.2302	0.0962779839464929	41	diastole	4	A	3010.640720484466	coherent
663.4228	0.0962779839464929	41	diastole	5	B	500.0	coherent
663.6153	0.0962779839464929	41	diastole	6	A	3010.640720484466	coherent
664.0169	0.0962779839464929	41	diastole	7	A	3010.640720484466	coherent
664.2107	0.0962779839464929	41	diastole	8	B	500.0	coherent
664.4044	0.0962779839464929	41	diastole	9	A	3010.640720484466	coherent
664.7969	0.0962779839464929	41	diastole	10	A	3010.640720484466	coherent
664.9907	0.0962779839464929	41	diastole	11	B	500.0	coherent
665.1844	0.0962779839464929	41	diastole	12	A	3010.640720484466	coherent
665.6482	0.0962779839464929	41	diastole	13	A	3010.640720484466	coherent
665.8458	0.0962779839464929	41	diastole	14	B	500.0	coherent
666.0432	0.0962779839464929	41	diastole	15	A	3010.640720484466	coherent
666.4652	0.0962779839464929	41	diastole	16	A	3010.640720484466	coherent
666.664	0.0962779839464929	41	diastole	17	B	500.0	coherent
666.8626	0.0962779839464929	41	diastole	18	A	3010.640720484466	coherent
667.2752	0.0962779839464929	41	diastole	19	A	3010.640720484466	coherent
667.474	0.0962779839464929	41	diastole	20	B	500.0	coherent
667.6727	0.0962779839464929	41	diastole	21	A	3010.640720484466	coherent
668.0352	0.0962779839464929	41	diastole	22	A	3010.640720484466	coherent
668.234	0.0962779839464929	41	diastole	23	B	500.0	coherent
668.4326	0.0962779839464929	41	diastole	24	A	3010.640720484466	coherent
668.7952	0.0962779839464929	41	diastole	25	A	3010.640720484466	coherent
668.994	0.0962779839464929	41	diastole	26	B	500.0	coherent
669.1926	0.0962779839464929	41	diastole	27	A	3010.640720484466	coherent
669.5612	0.0962779839464929	41	diastole	28	A	3010.640720484466	coherent
669.7575	0.0962779839464929	41	diastole	29	B	500.0	coherent
669.9537	0.0962779839464929	41	diastole	30	A	3010.640720484466	coherent
670.3712	0.0962779839464929	41	diastole	31	A	3010.640720484466	coherent
670.5675	0.0962779839464929	41	diastole	32	B	500.0	coherent
670.7637	0.0962779839464929	41	diastole	33	A	3010.640720484466	coherent
671.1712	0.0962779839464929	41	diastole	34	A	3010.640720484466	coherent
671.3675	0.0962779839464929	41	diastole	35	B	500.0	coherent
671.5637	0.0962779839464929	41	diastole	36	A	3010.640720484466	coherent
671.9312	0.0962779839464929	41	diastole	37	A	3010.640720484466	coherent
672.1275	0.0962779839464929	41	diastole	38	B	500.0	coherent
672.3237	0.0962779839464929	41	diastole	39	A	3010.640720484466	coherent
675.0011	0.096877887554001	42	diastole	1	A	3152.7331318609326	coherent
675.1972	0.096877887554001	42	diastole	2	B	500.0	coherent
675.3936	0.096877887554001	42	diastole	3	A	3152.7331318609326	coherent
675.8111	0.096877887554001	42	diastole	4	A	3152.7331318609326	coherent
676.0072	0.096877887554001	42	diastole	5	B	500.0	coherent
676.2036	0.096877887554001	42	diastole	6	A	3152.7331318609326	coherent
676.6793	0.096877887554001	42	diastole	7	A	3152.7331318609326	coherent
676.8804	0.096877887554001	42	diastole	8	B	500.0	coherent
677.0818	0.096877887554001	42	diastole	9	A	3152.7331318609326	coherent
677.5193	0.096877887554001	42	diastole	10	A	3152.7331318609326	coherent
677.7203	0.096877887554001	42	diastole	11	B	500.0	coherent
677.9218	0.096877887554001	42	diastole	12	A	3152.7331318609326	coherent
678.2951	0.096877887554001	42	diastole	13	A	3152.7331318609326	coherent
678.4937	0.096877887554001	42	diastole	14	B	500.0	coherent
678.6926	0.096877887554001	42	diastole	15	A	3152.7331318609326	coherent
679.0279	0.096877887554001	42	diastole	16	A	3152.7331318609326	coherent
679.2252	0.096877887554001	42	diastole	17	B	500.0	coherent
679.4228	0.096877887554001	42	diastole	18	A	3152.7331318609326	coherent
679.7478	0.096877887554001	42	diastole	19	A	3152.7331318609326	coherent
679.9451	0.096877887554001	42	diastole	20	B	500.0	coherent
680.1428	0.096877887554001	42	diastole	21	A	3152.7331318609326	coherent
680.4378	0.096877887554001	42	diastole	22	A	3152.7331318609326	coherent
680.6352	0.096877887554001	42	diastole	23	B	500.0	coherent
680.8328	0.096877887554001	42	diastole	24	A	3152.7331318609326	coherent
681.1278	0.096877887554001	42	diastole	25	A	3152.7331318609326	coherent
681.3252	0.096877887554001	42	diastole	26	B	500.0	coherent
681.5228	0.096877887554001	42	diastole	27	A	3152.7331318609326	coherent
681.8023	0.096877887554001	42	diastole	28	A	3152.7331318609326	coherent
681.9933	0.096877887554001	42	diastole	29	B	500.0	coherent
682.1847	0.096877887554001	42	diastole	30	A	3152.7331318609326	coherent
682.4431	0.096877887554001	42	diastole	31	A	3152.7331318609326	coherent
682.6254	0.096877887554001	42	diastole	32	B	500.0	coherent
682.808	0.096877887554001	42	diastole	33	A	3152.7331318609326	coherent
683.1019	0.096877887554001	42	diastole	34	A	3152.7331318609326	coherent
683.2805	0.096877887554001	42	diastole	35	B	500.0	coherent
683.4594	0.096877887554001	42	diastole	36	A	3152.7331318609326	coherent
683.8219	0.096877887554001	42	diastole	37	A	3152.7331318609326	coherent
684.0005	0.096877887554001	42	diastole	38	B	500.0	coherent
684.1794	0.096877887554001	42	diastole	39	A	3152.7331318609326	coherent
684.6135	0.096877887554001	42	diastole	40	A	3152.7331318609326	coherent
