onset	duration	trial_num	trial_type	tone_num	tone_type	frequency	response
53.05869999999982	0.1274806124274619	1	diastole	1	B	500	diastole
54.11869999999999	0.1274806124274619	1	diastole	2	B	500	diastole
54.88389999999981	0.1274806124274619	1	diastole	3	B	500	diastole
55.95879999999988	0.1274806124274619	1	diastole	4	B	500	diastole
57.178699999999935	0.1274806124274619	1	diastole	5	B	500	diastole
58.35069999999996	0.1274806124274619	1	diastole	6	B	500	diastole
59.52260000000001	0.1274806124274619	1	diastole	7	B	500	diastole
60.62469999999985	0.1274806124274619	1	diastole	8	B	500	diastole
67.72569999999996	0.1367588951834477	2	diastole	1	B	500	systole
68.5643	0.1367588951834477	2	diastole	2	B	500	systole
69.32179999999994	0.1367588951834477	2	diastole	3	B	500	systole
70.11979999999994	0.1367588951834477	2	diastole	4	B	500	systole
70.8886	0.1367588951834477	2	diastole	5	B	500	systole
71.66909999999984	0.1367588951834477	2	diastole	6	B	500	systole
72.83899999999994	0.1367588951834477	2	diastole	7	B	500	systole
74.00900000000001	0.1367588951834477	2	diastole	8	B	500	systole
75.1588999999999	0.1367588951834477	2	diastole	9	B	500	systole
76.2675999999999	0.1367588951834477	2	diastole	10	B	500	systole
78.61619999999994	0.1343635222874581	3	systole	1	B	500	systole
79.78610000000003	0.1343635222874581	3	systole	2	B	500	systole
80.95609999999988	0.1343635222874581	3	systole	3	B	500	systole
82.08439999999996	0.1343635222874581	3	systole	4	B	500	systole
83.21449999999982	0.1343635222874581	3	systole	5	B	500	systole
84.3445999999999	0.1343635222874581	3	systole	6	B	500	systole
85.51499999999987	0.1343635222874581	3	systole	7	B	500	systole
86.55679999999984	0.1343635222874581	3	systole	8	B	500	systole
87.58690000000001	0.1343635222874581	3	systole	9	B	500	systole
91.37119999999982	0.137534789275378	4	systole	1	B	500	diastole
92.46159999999986	0.137534789275378	4	systole	2	B	500	diastole
93.51149999999984	0.137534789275378	4	systole	3	B	500	diastole
94.45119999999997	0.137534789275378	4	systole	4	B	500	diastole
95.55129999999986	0.137534789275378	4	systole	5	B	500	diastole
96.66110000000003	0.137534789275378	4	systole	6	B	500	diastole
97.77080000000001	0.137534789275378	4	systole	7	B	500	diastole
98.85089999999991	0.137534789275378	4	systole	8	B	500	diastole
102.55599999999981	0.1369017494725994	5	diastole	1	B	500	diastole
103.57619999999997	0.1369017494725994	5	diastole	2	B	500	diastole
104.59629999999993	0.1369017494725994	5	diastole	3	B	500	diastole
105.65069999999992	0.1369017494725994	5	diastole	4	B	500	diastole
106.75429999999983	0.1369017494725994	5	diastole	5	B	500	diastole
107.87429999999995	0.1369017494725994	5	diastole	6	B	500	diastole
108.94789999999989	0.1369017494725994	5	diastole	7	B	500	diastole
109.8626999999999	0.1369017494725994	5	diastole	8	B	500	diastole
111.01559999999995	0.1369017494725994	5	diastole	9	B	500	diastole
117.91750000000002	0.1375011539785191	6	diastole	1	B	500	diastole
119.07759999999985	0.1375011539785191	6	diastole	2	B	500	diastole
120.06240000000003	0.1375011539785191	6	diastole	3	B	500	diastole
121.22709999999984	0.1375011539785191	6	diastole	4	B	500	diastole
122.36689999999999	0.1375011539785191	6	diastole	5	B	500	diastole
123.2530999999999	0.1375011539785191	6	diastole	6	B	500	diastole
124.17129999999997	0.1375011539785191	6	diastole	7	B	500	diastole
125.21119999999996	0.1375011539785191	6	diastole	8	B	500	diastole
126.26609999999982	0.1375011539785191	6	diastole	9	B	500	diastole
130.92560000000003	0.1351129752583801	7	systole	1	B	500	systole
131.89570000000003	0.1351129752583801	7	systole	2	B	500	systole
132.8659	0.1351129752583801	7	systole	3	B	500	systole
133.80579999999986	0.1351129752583801	7	systole	4	B	500	systole
134.7458999999999	0.1351129752583801	7	systole	5	B	500	systole
135.76999999999998	0.1351129752583801	7	systole	6	B	500	systole
136.80279999999993	0.1351129752583801	7	systole	7	B	500	systole
137.85289999999986	0.1351129752583801	7	systole	8	B	500	systole
139.7530999999999	0.1351129752583801	7	systole	9	B	500	systole
144.6407999999999	0.0968863836023956	8	diastole	1	B	500	diastole
145.57079999999996	0.0968863836023956	8	diastole	2	B	500	diastole
146.50080000000003	0.0968863836023956	8	diastole	3	B	500	diastole
147.39069999999992	0.0968863836023956	8	diastole	4	B	500	diastole
148.28059999999982	0.0968863836023956	8	diastole	5	B	500	diastole
149.4170999999999	0.0968863836023956	8	diastole	6	B	500	diastole
150.48709999999983	0.0968863836023956	8	diastole	7	B	500	diastole
151.70539999999983	0.0968863836023956	8	diastole	8	B	500	diastole
152.7654	0.0968863836023956	8	diastole	9	B	500	diastole
153.9771999999998	0.0968863836023956	8	diastole	10	B	500	diastole
157.519	0.1250076124561019	9	systole	1	B	500	systole
158.49889999999982	0.1250076124561019	9	systole	2	B	500	systole
159.3388	0.1250076124561019	9	systole	3	B	500	systole
160.34899999999993	0.1250076124561019	9	systole	4	B	500	systole
161.41899999999987	0.1250076124561019	9	systole	5	B	500	systole
162.5097999999998	0.1250076124561019	9	systole	6	B	500	systole
163.5598	0.1250076124561019	9	systole	7	B	500	systole
164.45989999999983	0.1250076124561019	9	systole	8	B	500	systole
165.50329999999985	0.1250076124561019	9	systole	9	B	500	systole
169.72630000000004	0.1268880126299336	10	systole	1	B	500	systole
170.8361	0.1268880126299336	10	systole	2	B	500	systole
171.91919999999982	0.1268880126299336	10	systole	3	B	500	systole
172.8762999999999	0.1268880126299336	10	systole	4	B	500	systole
173.85669999999982	0.1268880126299336	10	systole	5	B	500	systole
175.00659999999993	0.1268880126299336	10	systole	6	B	500	systole
176.11659999999983	0.1268880126299336	10	systole	7	B	500	systole
177.16649999999981	0.1268880126299336	10	systole	8	B	500	systole
178.15999999999985	0.1268880126299336	10	systole	9	B	500	systole
181.42149999999992	0.1337425000383518	11	systole	1	B	500	diastole
182.51890000000003	0.1337425000383518	11	systole	2	B	500	diastole
183.5987	0.1337425000383518	11	systole	3	B	500	diastole
184.54129999999986	0.1337425000383518	11	systole	4	B	500	diastole
185.5012999999999	0.1337425000383518	11	systole	5	B	500	diastole
186.51069999999982	0.1337425000383518	11	systole	6	B	500	diastole
187.6712	0.1337425000383518	11	systole	7	B	500	diastole
188.79109999999991	0.1337425000383518	11	systole	8	B	500	diastole
189.91089999999986	0.1337425000383518	11	systole	9	B	500	diastole
193.72199999999998	0.1288749555824324	12	systole	1	B	500	systole
194.73029999999994	0.1288749555824324	12	systole	2	B	500	systole
195.7536	0.1288749555824324	12	systole	3	B	500	systole
196.80369999999994	0.1288749555824324	12	systole	4	B	500	systole
197.85379999999986	0.1288749555824324	12	systole	5	B	500	systole
198.904	0.1288749555824324	12	systole	6	B	500	systole
199.8599999999999	0.1288749555824324	12	systole	7	B	500	systole
200.82999999999993	0.1288749555824324	12	systole	8	B	500	systole
201.52969999999982	0.1288749555824324	12	systole	9	B	500	systole
202.27980000000002	0.1288749555824324	12	systole	10	B	500	systole
206.4357	0.108128867461346	13	systole	1	B	500	diastole
207.16819999999984	0.108128867461346	13	systole	2	B	500	diastole
208.11829999999986	0.108128867461346	13	systole	3	B	500	diastole
209.06639999999993	0.108128867461346	13	systole	4	B	500	diastole
209.95629999999983	0.108128867461346	13	systole	5	B	500	diastole
211.07240000000002	0.108128867461346	13	systole	6	B	500	diastole
212.1987999999999	0.108128867461346	13	systole	7	B	500	diastole
213.2784999999999	0.108128867461346	13	systole	8	B	500	diastole
215.28139999999985	0.108128867461346	13	systole	9	B	500	diastole
218.1380999999999	0.1231345945852808	14	systole	1	B	500	systole
219.0682999999999	0.1231345945852808	14	systole	2	B	500	systole
220.00559999999996	0.1231345945852808	14	systole	3	B	500	systole
220.92539999999985	0.1231345945852808	14	systole	4	B	500	systole
221.63639999999987	0.1231345945852808	14	systole	5	B	500	systole
222.43489999999997	0.1231345945852808	14	systole	6	B	500	systole
223.29869999999983	0.1231345945852808	14	systole	7	B	500	systole
224.16859999999997	0.1231345945852808	14	systole	8	B	500	systole
224.89570000000003	0.1231345945852808	14	systole	9	B	500	systole
225.59809999999993	0.1231345945852808	14	systole	10	B	500	systole
226.32859999999982	0.1231345945852808	14	systole	11	B	500	systole
227.04909999999995	0.1231345945852808	14	systole	12	B	500	systole
229.43290000000002	0.1011583625222556	15	systole	1	B	500	systole
230.49489999999992	0.1011583625222556	15	systole	2	B	500	systole
231.30099999999993	0.1011583625222556	15	systole	3	B	500	systole
232.13059999999996	0.1011583625222556	15	systole	4	B	500	systole
232.99799999999982	0.1011583625222556	15	systole	5	B	500	systole
233.79790000000003	0.1011583625222556	15	systole	6	B	500	systole
234.60770000000002	0.1011583625222556	15	systole	7	B	500	systole
235.41739999999982	0.1011583625222556	15	systole	8	B	500	systole
236.16739999999982	0.1011583625222556	15	systole	9	B	500	systole
236.87599999999998	0.1011583625222556	15	systole	10	B	500	systole
237.7032999999999	0.1011583625222556	15	systole	11	B	500	systole
238.53149999999982	0.1011583625222556	15	systole	12	B	500	systole
240.4943999999998	0.1023731331806629	16	systole	1	B	500	systole
241.39409999999998	0.1023731331806629	16	systole	2	B	500	systole
242.38919999999985	0.1023731331806629	16	systole	3	B	500	systole
243.34929999999986	0.1023731331806629	16	systole	4	B	500	systole
244.37400000000002	0.1023731331806629	16	systole	5	B	500	systole
245.33359999999993	0.1023731331806629	16	systole	6	B	500	systole
246.3134	0.1023731331806629	16	systole	7	B	500	systole
247.35249999999996	0.1023731331806629	16	systole	8	B	500	systole
248.36249999999995	0.1023731331806629	16	systole	9	B	500	systole
249.37249999999995	0.1023731331806629	16	systole	10	B	500	systole
250.38239999999996	0.1023731331806629	16	systole	11	B	500	systole
253.13619999999992	0.121886906272266	17	systole	1	B	500	systole
254.07600000000002	0.121886906272266	17	systole	2	B	500	systole
255.2255	0.121886906272266	17	systole	3	B	500	systole
256.3455999999999	0.121886906272266	17	systole	4	B	500	systole
258.5103999999999	0.121886906272266	17	systole	5	B	500	systole
260.6401999999998	0.121886906272266	17	systole	6	B	500	systole
261.80099999999993	0.121886906272266	17	systole	7	B	500	systole
264.73569999999995	0.1356296191806905	18	diastole	1	B	500	systole
265.85569999999984	0.1356296191806905	18	diastole	2	B	500	systole
266.9756	0.1356296191806905	18	diastole	3	B	500	systole
268.01559999999995	0.1356296191806905	18	diastole	4	B	500	systole
269.1657	0.1356296191806905	18	diastole	5	B	500	systole
270.2955999999999	0.1356296191806905	18	diastole	6	B	500	systole
271.39729999999986	0.1356296191806905	18	diastole	7	B	500	systole
272.4773	0.1356296191806905	18	diastole	8	B	500	systole
273.55719999999997	0.1356296191806905	18	diastole	9	B	500	systole
277.29499999999985	0.1363656340399757	19	systole	1	B	500	systole
278.3515	0.1363656340399757	19	systole	2	B	500	systole
279.38879999999995	0.1363656340399757	19	systole	3	B	500	systole
280.5287999999998	0.1363656340399757	19	systole	4	B	500	systole
281.6688999999999	0.1363656340399757	19	systole	5	B	500	systole
282.7177999999999	0.1363656340399757	19	systole	6	B	500	systole
283.77819999999997	0.1363656340399757	19	systole	7	B	500	systole
284.8385999999998	0.1363656340399757	19	systole	8	B	500	systole
285.82119999999986	0.1363656340399757	19	systole	9	B	500	systole
289.89789999999994	0.1306178624508902	20	systole	1	B	500	systole
291.0178999999998	0.1306178624508902	20	systole	2	B	500	systole
292.13789999999995	0.1306178624508902	20	systole	3	B	500	systole
293.09439999999995	0.1306178624508902	20	systole	4	B	500	systole
294.09299999999985	0.1306178624508902	20	systole	5	B	500	systole
294.8455999999999	0.1306178624508902	20	systole	6	B	500	systole
295.61559999999986	0.1306178624508902	20	systole	7	B	500	systole
296.38559999999984	0.1306178624508902	20	systole	8	B	500	systole
297.0837999999999	0.1306178624508902	20	systole	9	B	500	systole
297.79369999999994	0.1306178624508902	20	systole	10	B	500	systole
302.1921	0.1000007250113412	21	systole	1	B	500	diastole
303.10130000000004	0.1000007250113412	21	systole	2	B	500	diastole
303.9812999999999	0.1000007250113412	21	systole	3	B	500	diastole
305.13210000000004	0.1000007250113412	21	systole	4	B	500	diastole
306.1721	0.1000007250113412	21	systole	5	B	500	diastole
306.9678999999999	0.1000007250113412	21	systole	6	B	500	diastole
307.75800000000004	0.1000007250113412	21	systole	7	B	500	diastole
309.3763999999999	0.1000007250113412	21	systole	8	B	500	diastole
313.0619999999999	0.1187417499604635	22	diastole	1	B	500	diastole
313.88199999999983	0.1187417499604635	22	diastole	2	B	500	diastole
314.5924	0.1187417499604635	22	diastole	3	B	500	diastole
316.30189999999993	0.1187417499604635	22	diastole	4	B	500	diastole
318.2422999999999	0.1187417499604635	22	diastole	5	B	500	diastole
319.3616999999999	0.1187417499604635	22	diastole	6	B	500	diastole
320.3813	0.1187417499604635	22	diastole	7	B	500	diastole
321.38819999999987	0.1187417499604635	22	diastole	8	B	500	diastole
326.27509999999984	0.1224021937814541	23	diastole	1	B	500	diastole
328.125	0.1224021937814541	23	diastole	2	B	500	diastole
328.9949999999999	0.1224021937814541	23	diastole	3	B	500	diastole
329.865	0.1224021937814541	23	diastole	4	B	500	diastole
330.7349999999999	0.1224021937814541	23	diastole	5	B	500	diastole
331.5806	0.1224021937814541	23	diastole	6	B	500	diastole
332.4604999999999	0.1224021937814541	23	diastole	7	B	500	diastole
333.37009999999987	0.1224021937814541	23	diastole	8	B	500	diastole
338.26059999999984	0.1212561576394364	24	systole	1	B	500	systole
340.27059999999983	0.1212561576394364	24	systole	2	B	500	systole
342.2805999999998	0.1212561576394364	24	systole	3	B	500	systole
344.11649999999986	0.1212561576394364	24	systole	4	B	500	systole
345.1615999999999	0.1212561576394364	24	systole	5	B	500	systole
345.9674	0.1212561576394364	24	systole	6	B	500	systole
348.5155	0.119989940081723	25	systole	1	B	500	systole
349.328	0.119989940081723	25	systole	2	B	500	systole
350.2681	0.119989940081723	25	systole	3	B	500	systole
351.20820000000003	0.119989940081723	25	systole	4	B	500	systole
351.99789999999985	0.119989940081723	25	systole	5	B	500	systole
352.76839999999993	0.119989940081723	25	systole	6	B	500	systole
353.53880000000004	0.119989940081723	25	systole	7	B	500	systole
354.3751	0.119989940081723	25	systole	8	B	500	systole
355.4104	0.119989940081723	25	systole	9	B	500	systole
356.28009999999995	0.119989940081723	25	systole	10	B	500	systole
357.1494	0.119989940081723	25	systole	11	B	500	systole
358.144	0.119989940081723	25	systole	12	B	500	systole
361.16899999999987	0.1112433124799281	26	systole	1	B	500	systole
362.1289999999999	0.1112433124799281	26	systole	2	B	500	systole
363.0656999999999	0.1112433124799281	26	systole	3	B	500	systole
363.9857999999999	0.1112433124799281	26	systole	4	B	500	systole
365.83569999999986	0.1112433124799281	26	systole	5	B	500	systole
366.72579999999994	0.1112433124799281	26	systole	6	B	500	systole
367.6615999999999	0.1112433124799281	26	systole	7	B	500	systole
368.59159999999997	0.1112433124799281	26	systole	8	B	500	systole
369.37249999999995	0.1112433124799281	26	systole	9	B	500	systole
370.1824999999999	0.1112433124799281	26	systole	10	B	500	systole
373.60389999999984	0.1068810330471023	27	diastole	1	B	500	systole
374.5937999999999	0.1068810330471023	27	diastole	2	B	500	systole
375.5836999999999	0.1068810330471023	27	diastole	3	B	500	systole
376.4556	0.1068810330471023	27	diastole	4	B	500	systole
377.4053999999999	0.1068810330471023	27	diastole	5	B	500	systole
378.4354999999998	0.1068810330471023	27	diastole	6	B	500	systole
379.4205999999999	0.1068810330471023	27	diastole	7	B	500	systole
380.4785999999999	0.1068810330471023	27	diastole	8	B	500	systole
381.53700000000003	0.1068810330471023	27	diastole	9	B	500	systole
384.6426999999999	0.119367743784096	28	systole	1	B	500	systole
385.5353	0.119367743784096	28	systole	2	B	500	systole
386.44539999999984	0.119367743784096	28	systole	3	B	500	systole
387.2952	0.119367743784096	28	systole	4	B	500	systole
388.05999999999995	0.119367743784096	28	systole	5	B	500	systole
388.7422999999999	0.119367743784096	28	systole	6	B	500	systole
389.47219999999993	0.119367743784096	28	systole	7	B	500	systole
390.16239999999993	0.119367743784096	28	systole	8	B	500	systole
390.88199999999983	0.119367743784096	28	systole	9	B	500	systole
391.4252999999999	0.119367743784096	28	systole	10	B	500	systole
392.1072999999999	0.119367743784096	28	systole	11	B	500	systole
393.05539999999996	0.119367743784096	28	systole	12	B	500	systole
396.77099999999996	0.0937764787231572	29	diastole	1	B	500	diastole
397.90049999999997	0.0937764787231572	29	diastole	2	B	500	diastole
398.84849999999983	0.0937764787231572	29	diastole	3	B	500	diastole
399.69719999999984	0.0937764787231572	29	diastole	4	B	500	diastole
400.62850000000003	0.0937764787231572	29	diastole	5	B	500	diastole
401.5184999999999	0.0937764787231572	29	diastole	6	B	500	diastole
403.25699999999983	0.0937764787231572	29	diastole	7	B	500	diastole
403.9483	0.0937764787231572	29	diastole	8	B	500	diastole
404.6878999999999	0.0937764787231572	29	diastole	9	B	500	diastole
407.9024999999999	0.1044108501519076	30	diastole	1	B	500	diastole
408.82219999999984	0.1044108501519076	30	diastole	2	B	500	diastole
409.63879999999995	0.1044108501519076	30	diastole	3	B	500	diastole
410.4886999999999	0.1044108501519076	30	diastole	4	B	500	diastole
411.3385999999998	0.1044108501519076	30	diastole	5	B	500	diastole
412.2319	0.1044108501519076	30	diastole	6	B	500	diastole
413.0918999999999	0.1044108501519076	30	diastole	7	B	500	diastole
414.0454	0.1044108501519076	30	diastole	8	B	500	diastole
414.96579999999994	0.1044108501519076	30	diastole	9	B	500	diastole
415.95529999999985	0.1044108501519076	30	diastole	10	B	500	diastole
416.76559999999995	0.1044108501519076	30	diastole	11	B	500	diastole
421.36709999999994	0.1131290501216426	31	diastole	1	B	500	diastole
422.22699999999986	0.1131290501216426	31	diastole	2	B	500	diastole
423.72709999999984	0.1131290501216426	31	diastole	3	B	500	diastole
425.22709999999984	0.1131290501216426	31	diastole	4	B	500	diastole
425.94709999999986	0.1131290501216426	31	diastole	5	B	500	diastole
426.837	0.1131290501216426	31	diastole	6	B	500	diastole
427.7671	0.1131290501216426	31	diastole	7	B	500	diastole
429.50710000000004	0.1131290501216426	31	diastole	8	B	500	diastole
433.41729999999984	0.1131254976498894	32	diastole	1	B	500	diastole
434.38779999999997	0.1131254976498894	32	diastole	2	B	500	diastole
435.20769999999993	0.1131254976498894	32	diastole	3	B	500	diastole
436.02769999999987	0.1131254976498894	32	diastole	4	B	500	diastole
436.9194	0.1131254976498894	32	diastole	5	B	500	diastole
437.8593999999998	0.1131254976498894	32	diastole	6	B	500	diastole
438.6992	0.1131254976498894	32	diastole	7	B	500	diastole
439.54089999999997	0.1131254976498894	32	diastole	8	B	500	diastole
440.40089999999987	0.1131254976498894	32	diastole	9	B	500	diastole
441.36929999999984	0.1131254976498894	32	diastole	10	B	500	diastole
446.05189999999993	0.1149929965031333	33	diastole	1	B	500	systole
446.92719999999986	0.1149929965031333	33	diastole	2	B	500	systole
447.8272999999999	0.1149929965031333	33	diastole	3	B	500	systole
448.82209999999986	0.1149929965031333	33	diastole	4	B	500	systole
449.7919999999999	0.1149929965031333	33	diastole	5	B	500	systole
450.66549999999984	0.1149929965031333	33	diastole	6	B	500	systole
451.55539999999996	0.1149929965031333	33	diastole	7	B	500	systole
452.49739999999997	0.1149929965031333	33	diastole	8	B	500	systole
453.4200999999998	0.1149929965031333	33	diastole	9	B	500	systole
454.44010000000003	0.1149929965031333	33	diastole	10	B	500	systole
458.91499999999996	0.1206548737245611	34	systole	1	B	500	systole
459.8053	0.1206548737245611	34	systole	2	B	500	systole
460.779	0.1206548737245611	34	systole	3	B	500	systole
461.77070000000003	0.1206548737245611	34	systole	4	B	500	systole
462.6890999999998	0.1206548737245611	34	systole	5	B	500	systole
463.68679999999995	0.1206548737245611	34	systole	6	B	500	systole
464.6968999999999	0.1206548737245611	34	systole	7	B	500	systole
465.7168999999999	0.1206548737245611	34	systole	8	B	500	systole
466.6168	0.1206548737245611	34	systole	9	B	500	systole
467.577	0.1206548737245611	34	systole	10	B	500	systole
471.7056	0.1175123312277719	35	diastole	1	B	500	systole
472.52559999999994	0.1175123312277719	35	diastole	2	B	500	systole
473.3455999999999	0.1175123312277719	35	diastole	3	B	500	systole
474.2720999999999	0.1175123312277719	35	diastole	4	B	500	systole
475.23209999999995	0.1175123312277719	35	diastole	5	B	500	systole
476.07209999999986	0.1175123312277719	35	diastole	6	B	500	systole
476.9121	0.1175123312277719	35	diastole	7	B	500	systole
477.7452999999998	0.1175123312277719	35	diastole	8	B	500	systole
478.5952	0.1175123312277719	35	diastole	9	B	500	systole
479.4450999999999	0.1175123312277719	35	diastole	10	B	500	systole
482.7452999999998	0.1062465649447403	36	diastole	1	B	500	systole
483.6252999999999	0.1062465649447403	36	diastole	2	B	500	systole
484.45529999999985	0.1062465649447403	36	diastole	3	B	500	systole
485.3852999999999	0.1062465649447403	36	diastole	4	B	500	systole
486.3153	0.1062465649447403	36	diastole	5	B	500	systole
487.1519999999998	0.1062465649447403	36	diastole	6	B	500	systole
487.9854	0.1062465649447403	36	diastole	7	B	500	systole
488.83539999999994	0.1062465649447403	36	diastole	8	B	500	systole
489.7153999999998	0.1062465649447403	36	diastole	9	B	500	systole
490.5953999999999	0.1062465649447403	36	diastole	10	B	500	systole
491.4638	0.1062465649447403	36	diastole	11	B	500	systole
494.07529999999997	0.1043748644879087	37	systole	1	B	500	systole
494.9728	0.1043748644879087	37	systole	2	B	500	systole
495.8428999999999	0.1043748644879087	37	systole	3	B	500	systole
496.7029	0.1043748644879087	37	systole	4	B	500	systole
497.64869999999996	0.1043748644879087	37	systole	5	B	500	systole
498.59849999999983	0.1043748644879087	37	systole	6	B	500	systole
499.51779999999985	0.1043748644879087	37	systole	7	B	500	systole
500.4994999999999	0.1043748644879087	37	systole	8	B	500	systole
501.4694999999999	0.1043748644879087	37	systole	9	B	500	systole
502.3110999999999	0.1043748644879087	37	systole	10	B	500	systole
503.1411999999998	0.1043748644879087	37	systole	11	B	500	systole
506.0649000000001	0.1150139676756225	38	systole	1	B	500	systole
507.02099999999996	0.1150139676756225	38	systole	2	B	500	systole
507.8915999999997	0.1150139676756225	38	systole	3	B	500	systole
508.79110000000014	0.1150139676756225	38	systole	4	B	500	systole
509.8587	0.1150139676756225	38	systole	5	B	500	systole
510.86879999999996	0.1150139676756225	38	systole	6	B	500	systole
511.8133999999998	0.1150139676756225	38	systole	7	B	500	systole
512.8099999999997	0.1150139676756225	38	systole	8	B	500	systole
513.8203999999998	0.1150139676756225	38	systole	9	B	500	systole
514.8306999999998	0.1150139676756225	38	systole	10	B	500	systole
517.7277000000001	0.1231388844898901	39	systole	1	B	500	systole
518.6373999999998	0.1231388844898901	39	systole	2	B	500	systole
519.6114	0.1231388844898901	39	systole	3	B	500	systole
520.5914	0.1231388844898901	39	systole	4	B	500	systole
521.5714	0.1231388844898901	39	systole	5	B	500	systole
522.4876999999999	0.1231388844898901	39	systole	6	B	500	systole
523.4228	0.1231388844898901	39	systole	7	B	500	systole
524.3743999999999	0.1231388844898901	39	systole	8	B	500	systole
525.3594999999998	0.1231388844898901	39	systole	9	B	500	systole
526.3144999999997	0.1231388844898901	39	systole	10	B	500	systole
529.7355999999997	0.1205215625232085	40	diastole	1	B	500	systole
530.7456	0.1205215625232085	40	diastole	2	B	500	systole
531.6155000000001	0.1205215625232085	40	diastole	3	B	500	systole
532.6454999999999	0.1205215625232085	40	diastole	4	B	500	systole
533.6753999999999	0.1205215625232085	40	diastole	5	B	500	systole
534.6467	0.1205215625232085	40	diastole	6	B	500	systole
535.6166999999998	0.1205215625232085	40	diastole	7	B	500	systole
536.5033999999998	0.1205215625232085	40	diastole	8	B	500	systole
537.4233999999999	0.1205215625232085	40	diastole	9	B	500	systole
538.4484	0.1205215625232085	40	diastole	10	B	500	systole
541.6784999999998	0.1200011059409007	41	systole	1	B	500	systole
542.5584000000001	0.1200011059409007	41	systole	2	B	500	systole
543.4383999999998	0.1200011059409007	41	systole	3	B	500	systole
544.4500999999998	0.1200011059409007	41	systole	4	B	500	systole
545.4601	0.1200011059409007	41	systole	5	B	500	systole
546.3300999999999	0.1200011059409007	41	systole	6	B	500	systole
547.3733999999997	0.1200011059409007	41	systole	7	B	500	systole
548.3934999999999	0.1200011059409007	41	systole	8	B	500	systole
549.3234999999997	0.1200011059409007	41	systole	9	B	500	systole
550.2733999999998	0.1200011059409007	41	systole	10	B	500	systole
553.7603999999999	0.1231129053048789	42	diastole	1	B	500	systole
554.713	0.1231129053048789	42	diastole	2	B	500	systole
555.5934	0.1231129053048789	42	diastole	3	B	500	systole
556.4738	0.1231129053048789	42	diastole	4	B	500	systole
557.4938999999997	0.1231129053048789	42	diastole	5	B	500	systole
558.5141000000001	0.1231129053048789	42	diastole	6	B	500	systole
559.4640999999999	0.1231129053048789	42	diastole	7	B	500	systole
560.4941000000001	0.1231129053048789	42	diastole	8	B	500	systole
561.5242000000001	0.1231129053048789	42	diastole	9	B	500	systole
564.4502	0.1206070832558907	43	diastole	1	B	500	diastole
565.4603	0.1206070832558907	43	diastole	2	B	500	diastole
566.3502999999998	0.1206070832558907	43	diastole	3	B	500	diastole
567.0255	0.1206070832558907	43	diastole	4	B	500	diastole
567.7753999999998	0.1206070832558907	43	diastole	5	B	500	diastole
568.5219999999997	0.1206070832558907	43	diastole	6	B	500	diastole
569.5820000000001	0.1206070832558907	43	diastole	7	B	500	diastole
570.5786999999998	0.1206070832558907	43	diastole	8	B	500	diastole
571.5588	0.1206070832558907	43	diastole	9	B	500	diastole
572.2436	0.1206070832558907	43	diastole	10	B	500	diastole
573.0519999999999	0.1206070832558907	43	diastole	11	B	500	diastole
576.7110999999998	0.1087479507550597	44	systole	1	B	500	diastole
577.5694000000001	0.1087479507550597	44	systole	2	B	500	diastole
578.4392999999998	0.1087479507550597	44	systole	3	B	500	diastole
579.3394000000001	0.1087479507550597	44	systole	4	B	500	diastole
580.1377	0.1087479507550597	44	systole	5	B	500	diastole
580.9478000000001	0.1087479507550597	44	systole	6	B	500	diastole
581.6876999999997	0.1087479507550597	44	systole	7	B	500	diastole
582.4376999999997	0.1087479507550597	44	systole	8	B	500	diastole
583.1876999999997	0.1087479507550597	44	systole	9	B	500	diastole
583.8518999999999	0.1087479507550597	44	systole	10	B	500	diastole
584.7378000000001	0.1087479507550597	44	systole	11	B	500	diastole
585.6177999999998	0.1087479507550597	44	systole	12	B	500	diastole
588.9304999999997	0.1006295871338807	45	diastole	1	B	500	diastole
589.8888	0.1006295871338807	45	diastole	2	B	500	diastole
590.8920999999998	0.1006295871338807	45	diastole	3	B	500	diastole
591.8120999999999	0.1006295871338807	45	diastole	4	B	500	diastole
592.8338000000001	0.1006295871338807	45	diastole	5	B	500	diastole
593.8136999999999	0.1006295871338807	45	diastole	6	B	500	diastole
594.7137	0.1006295871338807	45	diastole	7	B	500	diastole
595.6786	0.1006295871338807	45	diastole	8	B	500	diastole
596.5287000000001	0.1006295871338807	45	diastole	9	B	500	diastole
597.4487000000001	0.1006295871338807	45	diastole	10	B	500	diastole
600.0528999999999	0.1187449631397612	46	systole	1	B	500	diastole
601.0930000000001	0.1187449631397612	46	systole	2	B	500	diastole
602.133	0.1187449631397612	46	systole	3	B	500	diastole
603.1029000000001	0.1187449631397612	46	systole	4	B	500	diastole
604.0028999999997	0.1187449631397612	46	systole	5	B	500	diastole
605.0604000000001	0.1187449631397612	46	systole	6	B	500	diastole
606.1004	0.1187449631397612	46	systole	7	B	500	diastole
607.0103999999999	0.1187449631397612	46	systole	8	B	500	diastole
608.0896999999998	0.1187449631397612	46	systole	9	B	500	diastole
609.1397	0.1187449631397612	46	systole	10	B	500	diastole
612.0946000000001	0.1281316248932853	47	systole	1	B	500	diastole
613.0546999999999	0.1281316248932853	47	systole	2	B	500	diastole
614.0588	0.1281316248932853	47	systole	3	B	500	diastole
615.0687999999998	0.1281316248932853	47	systole	4	B	500	diastole
615.9738	0.1281316248932853	47	systole	5	B	500	diastole
617.0226999999998	0.1281316248932853	47	systole	6	B	500	diastole
618.0426	0.1281316248932853	47	systole	7	B	500	diastole
618.9334000000001	0.1281316248932853	47	systole	8	B	500	diastole
619.8533	0.1281316248932853	47	systole	9	B	500	diastole
620.7713000000001	0.1281316248932853	47	systole	10	B	500	diastole
624.8396999999998	0.1243849785532802	48	systole	1	B	500	diastole
625.8196999999998	0.1243849785532802	48	systole	2	B	500	diastole
626.7996999999998	0.1243849785532802	48	systole	3	B	500	diastole
627.7796000000001	0.1243849785532802	48	systole	4	B	500	diastole
628.7737	0.1243849785532802	48	systole	5	B	500	diastole
629.7836999999997	0.1243849785532802	48	systole	6	B	500	diastole
630.7937	0.1243849785532802	48	systole	7	B	500	diastole
631.6937	0.1243849785532802	48	systole	8	B	500	diastole
632.6487	0.1243849785532802	48	systole	9	B	500	diastole
633.4986999999999	0.1243849785532802	48	systole	10	B	500	diastole
637.988	0.1156280021532438	49	systole	1	B	500	diastole
638.9579999999999	0.1156280021532438	49	systole	2	B	500	diastole
639.9280999999999	0.1156280021532438	49	systole	3	B	500	diastole
640.7879999999998	0.1156280021532438	49	systole	4	B	500	diastole
641.6479999999999	0.1156280021532438	49	systole	5	B	500	diastole
642.6233999999997	0.1156280021532438	49	systole	6	B	500	diastole
643.5638999999999	0.1156280021532438	49	systole	7	B	500	diastole
644.3790999999999	0.1156280021532438	49	systole	8	B	500	diastole
645.2292	0.1156280021532438	49	systole	9	B	500	diastole
646.0201999999997	0.1156280021532438	49	systole	10	B	500	diastole
646.8403000000001	0.1156280021532438	49	systole	11	B	500	diastole
649.8178	0.1025159139535389	50	systole	1	B	500	systole
650.6220000000001	0.1025159139535389	50	systole	2	B	500	systole
651.432	0.1025159139535389	50	systole	3	B	500	systole
652.2103999999997	0.1025159139535389	50	systole	4	B	500	systole
653.0503999999999	0.1025159139535389	50	systole	5	B	500	systole
653.9703999999999	0.1025159139535389	50	systole	6	B	500	systole
654.8720999999998	0.1025159139535389	50	systole	7	B	500	systole
655.7295999999999	0.1025159139535389	50	systole	8	B	500	systole
656.6469999999997	0.1025159139535389	50	systole	9	B	500	systole
657.5687999999998	0.1025159139535389	50	systole	10	B	500	systole
658.4788999999998	0.1025159139535389	50	systole	11	B	500	systole
661.1971999999998	0.1112579745822586	51	systole	1	B	500	systole
662.0572999999997	0.1112579745822586	51	systole	2	B	500	systole
662.9172999999998	0.1112579745822586	51	systole	3	B	500	systole
663.8225999999997	0.1112579745822586	51	systole	4	B	500	systole
664.7221999999999	0.1112579745822586	51	systole	5	B	500	systole
665.6121999999998	0.1112579745822586	51	systole	6	B	500	systole
666.5020999999999	0.1112579745822586	51	systole	7	B	500	systole
667.5336999999997	0.1112579745822586	51	systole	8	B	500	systole
668.5536999999997	0.1112579745822586	51	systole	9	B	500	systole
669.5498999999998	0.1112579745822586	51	systole	10	B	500	systole
670.5402000000001	0.1112579745822586	51	systole	11	B	500	systole
674.2301999999997	0.1188608706579543	52	diastole	1	B	500	systole
675.2571	0.1188608706579543	52	diastole	2	B	500	systole
676.2767000000001	0.1188608706579543	52	diastole	3	B	500	systole
677.1795	0.1188608706579543	52	diastole	4	B	500	systole
678.2232999999999	0.1188608706579543	52	diastole	5	B	500	systole
679.1198999999999	0.1188608706579543	52	diastole	6	B	500	systole
680.1337000000001	0.1188608706579543	52	diastole	7	B	500	systole
681.1636999999998	0.1188608706579543	52	diastole	8	B	500	systole
682.0932999999998	0.1188608706579543	52	diastole	9	B	500	systole
685.3005	0.1212521338020451	53	systole	1	B	500	diastole
686.2104999999999	0.1212521338020451	53	systole	2	B	500	diastole
687.2108999999998	0.1212521338020451	53	systole	3	B	500	diastole
688.2112999999997	0.1212521338020451	53	systole	4	B	500	diastole
689.1598000000001	0.1212521338020451	53	systole	5	B	500	diastole
690.0523999999998	0.1212521338020451	53	systole	6	B	500	diastole
690.9628	0.1212521338020451	53	systole	7	B	500	diastole
691.7486000000001	0.1212521338020451	53	systole	8	B	500	diastole
692.5377000000001	0.1212521338020451	53	systole	9	B	500	diastole
693.3556999999998	0.1212521338020451	53	systole	10	B	500	diastole
696.3936999999999	0.1143810875364579	54	diastole	1	B	500	diastole
698.0334999999998	0.1143810875364579	54	diastole	2	B	500	diastole
698.9170999999999	0.1143810875364579	54	diastole	3	B	500	diastole
699.8470999999997	0.1143810875364579	54	diastole	4	B	500	diastole
700.7133999999999	0.1143810875364579	54	diastole	5	B	500	diastole
701.6134	0.1143810875364579	54	diastole	6	B	500	diastole
702.557	0.1143810875364579	54	diastole	7	B	500	diastole
703.4671999999998	0.1143810875364579	54	diastole	8	B	500	diastole
704.3486999999998	0.1143810875364579	54	diastole	9	B	500	diastole
705.2387999999999	0.1143810875364579	54	diastole	10	B	500	diastole
708.3772000000001	0.1150127772707492	55	diastole	1	B	500	diastole
709.2672999999998	0.1150127772707492	55	diastole	2	B	500	diastole
710.2506999999998	0.1150127772707492	55	diastole	3	B	500	diastole
711.0871999999997	0.1150127772707492	55	diastole	4	B	500	diastole
711.9570000000001	0.1150127772707492	55	diastole	5	B	500	diastole
712.8205	0.1150127772707492	55	diastole	6	B	500	diastole
713.7652999999998	0.1150127772707492	55	diastole	7	B	500	diastole
714.7585999999999	0.1150127772707492	55	diastole	8	B	500	diastole
715.6652999999999	0.1150127772707492	55	diastole	9	B	500	diastole
716.6052999999999	0.1150127772707492	55	diastole	10	B	500	diastole
720.2589	0.1125096327159553	56	diastole	1	B	500	diastole
721.1389000000001	0.1125096327159553	56	diastole	2	B	500	diastole
722.1287999999997	0.1125096327159553	56	diastole	3	B	500	diastole
723.7985000000001	0.1125096327159553	56	diastole	4	B	500	diastole
725.4682999999998	0.1125096327159553	56	diastole	5	B	500	diastole
726.2103	0.1125096327159553	56	diastole	6	B	500	diastole
727.9702999999997	0.1125096327159553	56	diastole	7	B	500	diastole
731.0386000000001	0.1176217822940088	57	diastole	1	B	500	systole
731.9570000000001	0.1176217822940088	57	diastole	2	B	500	systole
732.8752999999999	0.1176217822940088	57	diastole	3	B	500	systole
733.7998999999998	0.1176217822940088	57	diastole	4	B	500	systole
734.7315999999998	0.1176217822940088	57	diastole	5	B	500	systole
735.6699999999998	0.1176217822940088	57	diastole	6	B	500	systole
736.5779999999997	0.1176217822940088	57	diastole	7	B	500	systole
737.5984000000001	0.1176217822940088	57	diastole	8	B	500	systole
738.5166999999999	0.1176217822940088	57	diastole	9	B	500	systole
739.4349	0.1176217822940088	57	diastole	10	B	500	systole
742.4071000000001	0.1224991062190383	58	systole	1	B	500	diastole
743.4671000000001	0.1224991062190383	58	systole	2	B	500	diastole
744.4271000000001	0.1224991062190383	58	systole	3	B	500	diastole
745.4588000000001	0.1224991062190383	58	systole	4	B	500	diastole
747.4793999999999	0.1224991062190383	58	systole	5	B	500	diastole
749.4993999999999	0.1224991062190383	58	systole	6	B	500	diastole
750.5442999999998	0.1224991062190383	58	systole	7	B	500	diastole
751.4361000000001	0.1224991062190383	58	systole	8	B	500	diastole
756.2351999999998	0.1237537990673445	59	diastole	1	B	500	systole
757.2551000000001	0.1237537990673445	59	diastole	2	B	500	systole
758.2749999999999	0.1237537990673445	59	diastole	3	B	500	systole
759.2234000000001	0.1237537990673445	59	diastole	4	B	500	systole
761.1883999999998	0.1237537990673445	59	diastole	5	B	500	systole
762.0784000000001	0.1237537990673445	59	diastole	6	B	500	systole
762.9684999999997	0.1237537990673445	59	diastole	7	B	500	systole
766.5334	0.1237530562793836	60	systole	1	B	500	systole
767.5734	0.1237530562793836	60	systole	2	B	500	systole
768.5273	0.1237530562793836	60	systole	3	B	500	systole
769.5793000000001	0.1237530562793836	60	systole	4	B	500	systole
770.6191999999999	0.1237530562793836	60	systole	5	B	500	systole
771.5872999999999	0.1237530562793836	60	systole	6	B	500	systole
772.5669	0.1237530562793836	60	systole	7	B	500	systole
773.6290999999999	0.1237530562793836	60	systole	8	B	500	systole
774.613	0.1237530562793836	60	systole	9	B	500	systole
777.6652000000001	0.124403862748295	61	systole	1	B	500	systole
778.7124999999999	0.124403862748295	61	systole	2	B	500	systole
779.6949999999999	0.124403862748295	61	systole	3	B	500	systole
780.6948999999997	0.124403862748295	61	systole	4	B	500	systole
781.6548999999998	0.124403862748295	61	systole	5	B	500	systole
782.7324999999998	0.124403862748295	61	systole	6	B	500	systole
783.6825999999999	0.124403862748295	61	systole	7	B	500	systole
784.6224999999997	0.124403862748295	61	systole	8	B	500	systole
785.5626	0.124403862748295	61	systole	9	B	500	systole
787.1825000000001	0.124403862748295	61	systole	10	B	500	systole
789.4799999999998	0.1268788981833495	62	systole	1	B	500	systole
790.3868	0.1268788981833495	62	systole	2	B	500	systole
791.3009999999997	0.1268788981833495	62	systole	3	B	500	systole
792.1609999999998	0.1268788981833495	62	systole	4	B	500	systole
792.9493	0.1268788981833495	62	systole	5	B	500	systole
793.7490999999998	0.1268788981833495	62	systole	6	B	500	systole
794.5874000000001	0.1268788981833495	62	systole	7	B	500	systole
795.3814999999997	0.1268788981833495	62	systole	8	B	500	systole
796.1814999999999	0.1268788981833495	62	systole	9	B	500	systole
797.0224000000001	0.1268788981833495	62	systole	10	B	500	systole
797.7915999999998	0.1268788981833495	62	systole	11	B	500	systole
798.6016999999999	0.1268788981833495	62	systole	12	B	500	systole
802.2807	0.0981120632495731	63	systole	1	B	500	systole
802.9707000000001	0.0981120632495731	63	systole	2	B	500	systole
804.1308000000001	0.0981120632495731	63	systole	3	B	500	systole
805.2908	0.0981120632495731	63	systole	4	B	500	systole
806.3706999999997	0.0981120632495731	63	systole	5	B	500	systole
807.1906999999999	0.0981120632495731	63	systole	6	B	500	systole
808.1708000000001	0.0981120632495731	63	systole	7	B	500	systole
809.1101000000001	0.0981120632495731	63	systole	8	B	500	systole
810.2701999999997	0.0981120632495731	63	systole	9	B	500	systole
811.4026999999999	0.0981120632495731	63	systole	10	B	500	systole
815.5136	0.1181295449496246	64	diastole	1	B	500	diastole
816.4019999999998	0.1181295449496246	64	diastole	2	B	500	diastole
817.3320000000001	0.1181295449496246	64	diastole	3	B	500	diastole
818.2023000000002	0.1181295449496246	64	diastole	4	B	500	diastole
819.0907	0.1181295449496246	64	diastole	5	B	500	diastole
819.9790999999998	0.1181295449496246	64	diastole	6	B	500	diastole
821.9491999999998	0.1181295449496246	64	diastole	7	B	500	diastole
822.7376999999999	0.1181295449496246	64	diastole	8	B	500	diastole
823.5676000000001	0.1181295449496246	64	diastole	9	B	500	diastole
826.5238999999999	0.1093679093755781	65	systole	1	B	500	systole
827.3938999999998	0.1093679093755781	65	systole	2	B	500	systole
828.4439	0.1093679093755781	65	systole	3	B	500	systole
829.4635000000001	0.1093679093755781	65	systole	4	B	500	systole
830.4839	0.1093679093755781	65	systole	5	B	500	systole
831.4008000000001	0.1093679093755781	65	systole	6	B	500	systole
833.4902999999997	0.1093679093755781	65	systole	7	B	500	systole
835.5503000000001	0.1093679093755781	65	systole	8	B	500	systole
838.7182999999998	0.1262252500164322	66	systole	1	B	500	diastole
839.8088	0.1262252500164322	66	systole	2	B	500	diastole
840.8987999999997	0.1262252500164322	66	systole	3	B	500	diastole
841.8868999999997	0.1262252500164322	66	systole	4	B	500	diastole
842.9702	0.1262252500164322	66	systole	5	B	500	diastole
843.9502	0.1262252500164322	66	systole	6	B	500	diastole
844.9601999999998	0.1262252500164322	66	systole	7	B	500	diastole
845.9702999999997	0.1262252500164322	66	systole	8	B	500	diastole
847.0217999999998	0.1262252500164322	66	systole	9	B	500	diastole
851.9484999999997	0.1312490282580256	67	diastole	1	B	500	diastole
853.1018000000001	0.1312490282580256	67	diastole	2	B	500	diastole
854.2216999999998	0.1312490282580256	67	diastole	3	B	500	diastole
855.3369	0.1312490282580256	67	diastole	4	B	500	diastole
856.3068000000001	0.1312490282580256	67	diastole	5	B	500	diastole
857.3068000000001	0.1312490282580256	67	diastole	6	B	500	diastole
858.3066999999999	0.1312490282580256	67	diastole	7	B	500	diastole
859.3133	0.1312490282580256	67	diastole	8	B	500	diastole
863.2450999999999	0.1287532935966737	68	diastole	1	B	500	systole
864.1415999999997	0.1287532935966737	68	diastole	2	B	500	systole
865.1418999999999	0.1287532935966737	68	diastole	3	B	500	systole
866.142	0.1287532935966737	68	diastole	4	B	500	systole
867.1436999999999	0.1287532935966737	68	diastole	5	B	500	systole
868.1802999999998	0.1287532935966737	68	diastole	6	B	500	systole
869.2002	0.1287532935966737	68	diastole	7	B	500	systole
870.2301999999997	0.1287532935966737	68	diastole	8	B	500	systole
871.1535999999999	0.1287532935966737	68	diastole	9	B	500	systole
875.1200999999999	0.1156266232137568	69	diastole	1	B	500	systole
876.1301000000001	0.1156266232137568	69	diastole	2	B	500	systole
877.1850999999999	0.1156266232137568	69	diastole	3	B	500	systole
878.0599999999997	0.1156266232137568	69	diastole	4	B	500	systole
878.9599000000001	0.1156266232137568	69	diastole	5	B	500	systole
880.0399999999997	0.1156266232137568	69	diastole	6	B	500	systole
881.1200000000001	0.1156266232137568	69	diastole	7	B	500	systole
882.1166999999998	0.1156266232137568	69	diastole	8	B	500	systole
883.0451	0.1156266232137568	69	diastole	9	B	500	systole
885.5076000000001	0.1231339474907144	70	systole	1	B	500	systole
886.4376	0.1231339474907144	70	systole	2	B	500	systole
887.3675999999998	0.1231339474907144	70	systole	3	B	500	systole
888.2675999999999	0.1231339474907144	70	systole	4	B	500	systole
889.2991999999997	0.1231339474907144	70	systole	5	B	500	systole
890.3192999999999	0.1231339474907144	70	systole	6	B	500	systole
891.3034999999998	0.1231339474907144	70	systole	7	B	500	systole
892.3452	0.1231339474907144	70	systole	8	B	500	systole
893.3752999999999	0.1231339474907144	70	systole	9	B	500	systole
894.2652	0.1231339474907144	70	systole	10	B	500	systole
896.9817999999998	0.1150050970027223	71	diastole	1	B	500	systole
897.7616999999998	0.1150050970027223	71	diastole	2	B	500	systole
898.5883999999999	0.1150050970027223	71	diastole	3	B	500	systole
899.5833999999998	0.1150050970027223	71	diastole	4	B	500	systole
900.6034999999999	0.1150050970027223	71	diastole	5	B	500	systole
901.6236999999999	0.1150050970027223	71	diastole	6	B	500	systole
902.5334999999998	0.1150050970027223	71	diastole	7	B	500	systole
903.6150999999998	0.1150050970027223	71	diastole	8	B	500	systole
904.6548999999998	0.1150050970027223	71	diastole	9	B	500	systole
905.6948	0.1150050970027223	71	diastole	10	B	500	systole
909.7819999999999	0.1262526524951681	72	diastole	1	B	500	systole
910.8423	0.1262526524951681	72	diastole	2	B	500	systole
911.7688999999998	0.1262526524951681	72	diastole	3	B	500	systole
912.7753	0.1262526524951681	72	diastole	4	B	500	systole
913.6919999999998	0.1262526524951681	72	diastole	5	B	500	systole
914.6418999999999	0.1262526524951681	72	diastole	6	B	500	systole
915.7349999999999	0.1262526524951681	72	diastole	7	B	500	systole
916.8616999999997	0.1262526524951681	72	diastole	8	B	500	systole
917.7719	0.1262526524951681	72	diastole	9	B	500	systole
922.5617	0.1281274566426873	73	systole	1	B	500	systole
923.6393	0.1281274566426873	73	systole	2	B	500	systole
924.6993999999997	0.1281274566426873	73	systole	3	B	500	systole
925.6717999999998	0.1281274566426873	73	systole	4	B	500	systole
926.6618999999998	0.1281274566426873	73	systole	5	B	500	systole
927.6243999999999	0.1281274566426873	73	systole	6	B	500	systole
928.5743999999997	0.1281274566426873	73	systole	7	B	500	systole
929.6744999999999	0.1281274566426873	73	systole	8	B	500	systole
933.2537	0.1256368259782903	74	diastole	1	B	500	systole
934.3437000000001	0.1256368259782903	74	diastole	2	B	500	systole
935.3628999999999	0.1256368259782903	74	diastole	3	B	500	systole
936.213	0.1256368259782903	74	diastole	4	B	500	systole
936.9849999999999	0.1256368259782903	74	diastole	5	B	500	systole
937.722	0.1256368259782903	74	diastole	6	B	500	systole
938.6049	0.1256368259782903	74	diastole	7	B	500	systole
939.6098999999997	0.1256368259782903	74	diastole	8	B	500	systole
940.5898999999997	0.1256368259782903	74	diastole	9	B	500	systole
941.4880999999998	0.1256368259782903	74	diastole	10	B	500	systole
945.1078	0.1206274877185933	75	systole	1	B	500	systole
946.1290999999999	0.1206274877185933	75	systole	2	B	500	systole
947.1386999999997	0.1206274877185933	75	systole	3	B	500	systole
948.2805000000001	0.1206274877185933	75	systole	4	B	500	systole
949.2704999999999	0.1206274877185933	75	systole	5	B	500	systole
950.3697	0.1206274877185933	75	systole	6	B	500	systole
951.4397999999999	0.1206274877185933	75	systole	7	B	500	systole
952.4417000000001	0.1206274877185933	75	systole	8	B	500	systole
953.4612999999997	0.1206274877185933	75	systole	9	B	500	systole
957.1081999999999	0.1293482948094606	76	diastole	1	B	500	systole
958.1780999999999	0.1293482948094606	76	diastole	2	B	500	systole
959.2481	0.1293482948094606	76	diastole	3	B	500	systole
960.2328999999997	0.1293482948094606	76	diastole	4	B	500	systole
961.1596999999999	0.1293482948094606	76	diastole	5	B	500	systole
962.1197	0.1293482948094606	76	diastole	6	B	500	systole
963.0754	0.1293482948094606	76	diastole	7	B	500	systole
963.9284	0.1293482948094606	76	diastole	8	B	500	systole
965.9183999999998	0.1293482948094606	76	diastole	9	B	500	systole
968.9857999999997	0.1218708344968035	77	systole	1	B	500	diastole
969.8758999999998	0.1218708344968035	77	systole	2	B	500	diastole
970.9021	0.1218708344968035	77	systole	3	B	500	diastole
971.8459	0.1218708344968035	77	systole	4	B	500	diastole
972.7958999999998	0.1218708344968035	77	systole	5	B	500	diastole
974.8353999999997	0.1218708344968035	77	systole	6	B	500	diastole
976.8457000000001	0.1218708344968035	77	systole	7	B	500	diastole
977.7863999999997	0.1218708344968035	77	systole	8	B	500	diastole
981.1967999999999	0.1243665926740504	78	diastole	1	B	500	systole
982.2384	0.1243665926740504	78	diastole	2	B	500	systole
983.28	0.1243665926740504	78	diastole	3	B	500	systole
984.3216	0.1243665926740504	78	diastole	4	B	500	systole
985.2317999999998	0.1243665926740504	78	diastole	5	B	500	systole
986.1517000000001	0.1243665926740504	78	diastole	6	B	500	systole
989.1717000000001	0.1243665926740504	78	diastole	7	B	500	systole
992.2131999999999	0.1267722492339089	79	diastole	1	B	500	systole
993.2230999999999	0.1267722492339089	79	diastole	2	B	500	systole
994.1137000000001	0.1267722492339089	79	diastole	3	B	500	systole
995.1330999999998	0.1267722492339089	79	diastole	4	B	500	systole
996.1526000000001	0.1267722492339089	79	diastole	5	B	500	systole
997.0608	0.1267722492339089	79	diastole	6	B	500	systole
998.0907999999997	0.1267722492339089	79	diastole	7	B	500	systole
999.0109	0.1267722492339089	79	diastole	8	B	500	systole
1000.0107999999998	0.1267722492339089	79	diastole	9	B	500	systole
1001.0107	0.1267722492339089	79	diastole	10	B	500	systole
1004.4633000000001	0.1275002016918733	80	systole	1	B	500	systole
1005.4232999999997	0.1275002016918733	80	systole	2	B	500	systole
1006.4747	0.1275002016918733	80	systole	3	B	500	systole
1007.5147	0.1275002016918733	80	systole	4	B	500	systole
1008.4826	0.1275002016918733	80	systole	5	B	500	systole
1009.5330000000001	0.1275002016918733	80	systole	6	B	500	systole
1010.5829999999999	0.1275002016918733	80	systole	7	B	500	systole
1011.5011999999999	0.1275002016918733	80	systole	8	B	500	systole
1012.3963000000001	0.1275002016918733	80	systole	9	B	500	systole
1015.7133999999999	0.1212425337871536	81	diastole	1	B	500	systole
1016.6566999999998	0.1212425337871536	81	diastole	2	B	500	systole
1017.5017999999998	0.1212425337871536	81	diastole	3	B	500	systole
1018.3718999999999	0.1212425337871536	81	diastole	4	B	500	systole
1019.3918999999999	0.1212425337871536	81	diastole	5	B	500	systole
1020.4118999999998	0.1212425337871536	81	diastole	6	B	500	systole
1021.3318999999999	0.1212425337871536	81	diastole	7	B	500	systole
1022.3952999999999	0.1212425337871536	81	diastole	8	B	500	systole
1023.392	0.1212425337871536	81	diastole	9	B	500	systole
1024.3720999999998	0.1212425337871536	81	diastole	10	B	500	systole
1027.6301	0.1243676096783019	82	diastole	1	B	500	systole
1028.5901000000001	0.1243676096783019	82	diastole	2	B	500	systole
1029.5500999999997	0.1243676096783019	82	diastole	3	B	500	systole
1030.4567	0.1243676096783019	82	diastole	4	B	500	systole
1031.3967	0.1243676096783019	82	diastole	5	B	500	systole
1032.4783999999997	0.1243676096783019	82	diastole	6	B	500	systole
1033.3266999999998	0.1243676096783019	82	diastole	7	B	500	systole
1034.2834	0.1243676096783019	82	diastole	8	B	500	systole
1035.1602	0.1243676096783019	82	diastole	9	B	500	systole
1036.1202	0.1243676096783019	82	diastole	10	B	500	systole
1039.6235	0.1156261750147678	83	diastole	1	B	500	diastole
1040.4152000000001	0.1156261750147678	83	diastole	2	B	500	diastole
1041.2069	0.1156261750147678	83	diastole	3	B	500	diastole
1042.0869	0.1156261750147678	83	diastole	4	B	500	diastole
1042.9754	0.1156261750147678	83	diastole	5	B	500	diastole
1043.9653	0.1156261750147678	83	diastole	6	B	500	diastole
1044.9113999999997	0.1156261750147678	83	diastole	7	B	500	diastole
1045.8268999999998	0.1156261750147678	83	diastole	8	B	500	diastole
1047.4968999999999	0.1156261750147678	83	diastole	9	B	500	diastole
1050.6901999999998	0.1131546880351379	84	systole	1	B	500	systole
1051.6501999999998	0.1131546880351379	84	systole	2	B	500	systole
1052.5037999999997	0.1131546880351379	84	systole	3	B	500	systole
1053.3854	0.1131546880351379	84	systole	4	B	500	systole
1054.267	0.1131546880351379	84	systole	5	B	500	systole
1055.0509999999997	0.1131546880351379	84	systole	6	B	500	systole
1055.8147999999999	0.1131546880351379	84	systole	7	B	500	systole
1056.5844	0.1131546880351379	84	systole	8	B	500	systole
1057.4347999999998	0.1131546880351379	84	systole	9	B	500	systole
1058.2472999999998	0.1131546880351379	84	systole	10	B	500	systole
1059.2762999999998	0.1131546880351379	84	systole	11	B	500	systole
1062.3623999999998	0.1107252059155143	85	systole	1	B	500	diastole
1063.2821999999999	0.1107252059155143	85	systole	2	B	500	diastole
1064.3695999999998	0.1107252059155143	85	systole	3	B	500	diastole
1065.3329	0.1107252059155143	85	systole	4	B	500	diastole
1066.2728999999997	0.1107252059155143	85	systole	5	B	500	diastole
1067.3457	0.1107252059155143	85	systole	6	B	500	diastole
1068.2256999999997	0.1107252059155143	85	systole	7	B	500	diastole
1069.2357	0.1107252059155143	85	systole	8	B	500	diastole
1070.2456999999997	0.1107252059155143	85	systole	9	B	500	diastole
1071.3189999999997	0.1107252059155143	85	systole	10	B	500	diastole
1074.8500999999999	0.1268721254309639	86	diastole	1	B	500	diastole
1075.8081999999997	0.1268721254309639	86	diastole	2	B	500	diastole
1076.9201999999998	0.1268721254309639	86	diastole	3	B	500	diastole
1077.8668999999998	0.1268721254309639	86	diastole	4	B	500	diastole
1078.8468999999998	0.1268721254309639	86	diastole	5	B	500	diastole
1079.9198	0.1268721254309639	86	diastole	6	B	500	diastole
1081.0548000000001	0.1268721254309639	86	diastole	7	B	500	diastole
1082.0033999999998	0.1268721254309639	86	diastole	8	B	500	diastole
1083.1146999999999	0.1268721254309639	86	diastole	9	B	500	diastole
1085.68	0.1287242812104523	87	systole	1	B	500	diastole
1086.7000999999998	0.1287242812104523	87	systole	2	B	500	diastole
1087.6384999999998	0.1287242812104523	87	systole	3	B	500	diastole
1088.6109	0.1287242812104523	87	systole	4	B	500	diastole
1089.6009999999999	0.1287242812104523	87	systole	5	B	500	diastole
1090.5910000000001	0.1287242812104523	87	systole	6	B	500	diastole
1091.4889	0.1287242812104523	87	systole	7	B	500	diastole
1092.4392999999998	0.1287242812104523	87	systole	8	B	500	diastole
1093.2877999999998	0.1287242812104523	87	systole	9	B	500	diastole
1094.2537	0.1287242812104523	87	systole	10	B	500	diastole
1095.0874000000001	0.1287242812104523	87	systole	11	B	500	diastole
1099.7634999999998	0.1181247641216032	88	diastole	1	B	500	diastole
1101.3902	0.1181247641216032	88	diastole	2	B	500	diastole
1102.9997999999998	0.1181247641216032	88	diastole	3	B	500	diastole
1103.7587	0.1181247641216032	88	diastole	4	B	500	diastole
1104.5267000000001	0.1181247641216032	88	diastole	5	B	500	diastole
1105.1849	0.1181247641216032	88	diastole	6	B	500	diastole
1105.8317	0.1181247641216032	88	diastole	7	B	500	diastole
1106.5617	0.1181247641216032	88	diastole	8	B	500	diastole
1108.2148999999997	0.1181247641216032	88	diastole	9	B	500	diastole
1111.7522000000001	0.1043771562399342	89	diastole	1	B	500	diastole
1112.7362	0.1043771562399342	89	diastole	2	B	500	diastole
1113.7096	0.1043771562399342	89	diastole	3	B	500	diastole
1114.6499999999999	0.1043771562399342	89	diastole	4	B	500	diastole
1115.5903	0.1043771562399342	89	diastole	5	B	500	diastole
1116.6379	0.1043771562399342	89	diastole	6	B	500	diastole
1117.4619999999998	0.1043771562399342	89	diastole	7	B	500	diastole
1118.3115999999998	0.1043771562399342	89	diastole	8	B	500	diastole
1119.2016999999998	0.1043771562399342	89	diastole	9	B	500	diastole
1121.0516	0.1043771562399342	89	diastole	10	B	500	diastole
1125.0136999999997	0.1175112745841033	90	diastole	1	B	500	diastole
1125.9538	0.1175112745841033	90	diastole	2	B	500	diastole
1126.8068999999998	0.1175112745841033	90	diastole	3	B	500	diastole
1127.6768	0.1175112745841033	90	diastole	4	B	500	diastole
1128.5285000000001	0.1175112745841033	90	diastole	5	B	500	diastole
1129.5069	0.1175112745841033	90	diastole	6	B	500	diastole
1130.4552	0.1175112745841033	90	diastole	7	B	500	diastole
1131.3951999999997	0.1175112745841033	90	diastole	8	B	500	diastole
1132.3722	0.1175112745841033	90	diastole	9	B	500	diastole
1133.3324	0.1175112745841033	90	diastole	10	B	500	diastole
1134.227	0.1175112745841033	90	diastole	11	B	500	diastole
1137.5732	0.1162438772735185	91	diastole	1	B	500	systole
1138.4232	0.1162438772735185	91	diastole	2	B	500	systole
1139.1449999999998	0.1162438772735185	91	diastole	3	B	500	systole
1139.7868	0.1162438772735185	91	diastole	4	B	500	systole
1140.5368	0.1162438772735185	91	diastole	5	B	500	systole
1141.5968999999998	0.1162438772735185	91	diastole	6	B	500	systole
1142.6568999999997	0.1162438772735185	91	diastole	7	B	500	systole
1143.6285999999998	0.1162438772735185	91	diastole	8	B	500	systole
1144.6604	0.1162438772735185	91	diastole	9	B	500	systole
1145.6507	0.1162438772735185	91	diastole	10	B	500	systole
1146.6467	0.1162438772735185	91	diastole	11	B	500	systole
1150.5269	0.1187445531249977	92	diastole	1	B	500	systole
1151.5568999999998	0.1187445531249977	92	diastole	2	B	500	systole
1152.3915	0.1187445531249977	92	diastole	3	B	500	systole
1153.4068999999997	0.1187445531249977	92	diastole	4	B	500	systole
1154.3969999999997	0.1187445531249977	92	diastole	5	B	500	systole
1155.2115999999999	0.1187445531249977	92	diastole	6	B	500	systole
1156.0516	0.1187445531249977	92	diastole	7	B	500	systole
1156.8648999999998	0.1187445531249977	92	diastole	8	B	500	systole
1157.695	0.1187445531249977	92	diastole	9	B	500	systole
1158.575	0.1187445531249977	92	diastole	10	B	500	systole
1162.2649	0.1100005437037907	93	diastole	1	B	500	diastole
1163.2049999999997	0.1100005437037907	93	diastole	2	B	500	diastole
1164.1451	0.1100005437037907	93	diastole	3	B	500	diastole
1165.0799999999997	0.1100005437037907	93	diastole	4	B	500	diastole
1165.99	0.1100005437037907	93	diastole	5	B	500	diastole
1166.9001	0.1100005437037907	93	diastole	6	B	500	diastole
1167.7602	0.1100005437037907	93	diastole	7	B	500	diastole
1168.807	0.1100005437037907	93	diastole	8	B	500	diastole
1169.8369	0.1100005437037907	93	diastole	9	B	500	diastole
1170.7018	0.1100005437037907	93	diastole	10	B	500	diastole
1175.0022000000001	0.1181353146675974	94	systole	1	B	500	diastole
1175.9518	0.1181353146675974	94	systole	2	B	500	diastole
1176.9014	0.1181353146675974	94	systole	3	B	500	diastole
1177.9093999999998	0.1181353146675974	94	systole	4	B	500	diastole
1178.8996999999997	0.1181353146675974	94	systole	5	B	500	diastole
1179.8645	0.1181353146675974	94	systole	6	B	500	diastole
1181.7658	0.1181353146675974	94	systole	7	B	500	diastole
1183.6553999999999	0.1181353146675974	94	systole	8	B	500	diastole
1184.5954	0.1181353146675974	94	systole	9	B	500	diastole
1187.6645999999998	0.1194032811326906	95	systole	1	B	500	systole
1188.5147	0.1194032811326906	95	systole	2	B	500	systole
1189.3446999999999	0.1194032811326906	95	systole	3	B	500	systole
1190.1746999999998	0.1194032811326906	95	systole	4	B	500	systole
1190.9700999999998	0.1194032811326906	95	systole	5	B	500	systole
1191.8297999999998	0.1194032811326906	95	systole	6	B	500	systole
1192.7049	0.1194032811326906	95	systole	7	B	500	systole
1193.615	0.1194032811326906	95	systole	8	B	500	systole
1194.5440999999998	0.1194032811326906	95	systole	9	B	500	systole
1195.5240000000001	0.1194032811326906	95	systole	10	B	500	systole
1196.5039	0.1194032811326906	95	systole	11	B	500	systole
1197.5936	0.1194032811326906	95	systole	12	B	500	systole
1202.0682	0.1162447938113473	96	diastole	1	B	500	systole
1203.9280999999999	0.1162447938113473	96	diastole	2	B	500	systole
1205.0563999999997	0.1162447938113473	96	diastole	3	B	500	systole
1206.0763	0.1162447938113473	96	diastole	4	B	500	systole
1207.1928999999998	0.1162447938113473	96	diastole	5	B	500	systole
1208.293	0.1162447938113473	96	diastole	6	B	500	systole
1209.2830000000001	0.1162447938113473	96	diastole	7	B	500	systole
1213.1114	0.1299916956340894	97	systole	1	B	500	systole
1214.1811	0.1299916956340894	97	systole	2	B	500	systole
1215.1096	0.1299916956340894	97	systole	3	B	500	systole
1216.2346	0.1299916956340894	97	systole	4	B	500	systole
1217.0278	0.1299916956340894	97	systole	5	B	500	systole
1218.1031	0.1299916956340894	97	systole	6	B	500	systole
1219.0521	0.1299916956340894	97	systole	7	B	500	systole
1219.9869999999999	0.1299916956340894	97	systole	8	B	500	systole
1221.1222	0.1299916956340894	97	systole	9	B	500	systole
1222.2222	0.1299916956340894	97	systole	10	B	500	systole
1226.4648	0.122499942430295	98	diastole	1	B	500	diastole
1227.5048	0.122499942430295	98	diastole	2	B	500	diastole
1228.5865000000001	0.122499942430295	98	diastole	3	B	500	diastole
1229.6564999999998	0.122499942430295	98	diastole	4	B	500	diastole
1230.7263999999998	0.122499942430295	98	diastole	5	B	500	diastole
1231.7964	0.122499942430295	98	diastole	6	B	500	diastole
1232.9014	0.122499942430295	98	diastole	7	B	500	diastole
1233.9914	0.122499942430295	98	diastole	8	B	500	diastole
1235.0114	0.122499942430295	98	diastole	9	B	500	diastole
1238.7634	0.1256229727878235	99	diastole	1	B	500	diastole
1239.8434	0.1256229727878235	99	diastole	2	B	500	diastole
1240.8014	0.1256229727878235	99	diastole	3	B	500	diastole
1241.8032	0.1256229727878235	99	diastole	4	B	500	diastole
1242.8999999999999	0.1256229727878235	99	diastole	5	B	500	diastole
1243.9030999999998	0.1256229727878235	99	diastole	6	B	500	diastole
1244.9898999999998	0.1256229727878235	99	diastole	7	B	500	diastole
1246.0599	0.1256229727878235	99	diastole	8	B	500	diastole
1247.0231999999999	0.1256229727878235	99	diastole	9	B	500	diastole
1251.09	0.1299987355596386	100	diastole	1	B	500	systole
1252.1200000000001	0.1299987355596386	100	diastole	2	B	500	systole
1253.1499999999999	0.1299987355596386	100	diastole	3	B	500	systole
1254.1366	0.1299987355596386	100	diastole	4	B	500	systole
1255.1566	0.1299987355596386	100	diastole	5	B	500	systole
1256.1462	0.1299987355596386	100	diastole	6	B	500	systole
1257.1861999999999	0.1299987355596386	100	diastole	7	B	500	systole
1258.2279	0.1299987355596386	100	diastole	8	B	500	systole
1259.2578999999998	0.1299987355596386	100	diastole	9	B	500	systole
