onset	duration	trial_num	trial_type	tone_num	tone_type	frequency	response
242.2078	0.1287519491161219	1	systole	1	A	1578.5670027440333	coherent
242.4505	0.1287519491161219	1	systole	2	B	500.0	coherent
242.6928	0.1287519491161219	1	systole	3	A	1578.5670027440333	coherent
243.3678	0.1287519491161219	1	systole	4	A	1578.5670027440333	coherent
243.6105	0.1287519491161219	1	systole	5	B	500.0	coherent
243.8528	0.1287519491161219	1	systole	6	A	1578.5670027440333	coherent
244.5279	0.1287519491161219	1	systole	7	A	1578.5670027440333	coherent
244.7705	0.1287519491161219	1	systole	8	B	500.0	coherent
245.0129	0.1287519491161219	1	systole	9	A	1578.5670027440333	coherent
245.6879	0.1287519491161219	1	systole	10	A	1578.5670027440333	coherent
245.9306	0.1287519491161219	1	systole	11	B	500.0	coherent
246.1729	0.1287519491161219	1	systole	12	A	1578.5670027440333	coherent
246.7679	0.1287519491161219	1	systole	13	A	1578.5670027440333	coherent
247.0106	0.1287519491161219	1	systole	14	B	500.0	coherent
247.2529	0.1287519491161219	1	systole	15	A	1578.5670027440333	coherent
247.9279	0.1287519491161219	1	systole	16	A	1578.5670027440333	coherent
248.1705	0.1287519491161219	1	systole	17	B	500.0	coherent
248.4129	0.1287519491161219	1	systole	18	A	1578.5670027440333	coherent
249.0878	0.1287519491161219	1	systole	19	A	1578.5670027440333	coherent
249.3305	0.1287519491161219	1	systole	20	B	500.0	coherent
249.5728	0.1287519491161219	1	systole	21	A	1578.5670027440333	coherent
250.3615	0.1287519491161219	1	systole	22	A	1578.5670027440333	coherent
250.638	0.1287519491161219	1	systole	23	B	500.0	coherent
250.914	0.1287519491161219	1	systole	24	A	1578.5670027440333	coherent
251.5116	0.1287519491161219	1	systole	25	A	1578.5670027440333	coherent
251.788	0.1287519491161219	1	systole	26	B	500.0	coherent
252.0641	0.1287519491161219	1	systole	27	A	1578.5670027440333	coherent
258.2674	0.1443668726715259	2	systole	1	A	2180.0224995339627	coherent
258.5562	0.1443668726715259	2	systole	2	B	500.0	coherent
258.8448	0.1443668726715259	2	systole	3	A	2180.0224995339627	coherent
259.4275	0.1443668726715259	2	systole	4	A	2180.0224995339627	coherent
259.7162	0.1443668726715259	2	systole	5	B	500.0	coherent
260.0049	0.1443668726715259	2	systole	6	A	2180.0224995339627	coherent
260.6721	0.1443668726715259	2	systole	7	A	2180.0224995339627	coherent
260.9621	0.1443668726715259	2	systole	8	B	500.0	coherent
261.2521	0.1443668726715259	2	systole	9	A	2180.0224995339627	coherent
261.9121	0.1443668726715259	2	systole	10	A	2180.0224995339627	coherent
262.2021	0.1443668726715259	2	systole	11	B	500.0	coherent
262.4921	0.1443668726715259	2	systole	12	A	2180.0224995339627	coherent
263.1013	0.1443668726715259	2	systole	13	A	2180.0224995339627	coherent
263.3939	0.1443668726715259	2	systole	14	B	500.0	coherent
263.6863	0.1443668726715259	2	systole	15	A	2180.0224995339627	coherent
264.2813	0.1443668726715259	2	systole	16	A	2180.0224995339627	coherent
264.5738	0.1443668726715259	2	systole	17	B	500.0	coherent
264.8663	0.1443668726715259	2	systole	18	A	2180.0224995339627	coherent
265.4912	0.1443668726715259	2	systole	19	A	2180.0224995339627	coherent
265.7838	0.1443668726715259	2	systole	20	B	500.0	coherent
266.0762	0.1443668726715259	2	systole	21	A	2180.0224995339627	coherent
266.7304	0.1443668726715259	2	systole	22	A	2180.0224995339627	coherent
267.0254	0.1443668726715259	2	systole	23	B	500.0	coherent
267.3204	0.1443668726715259	2	systole	24	A	2180.0224995339627	coherent
267.7813	0.1443668726715259	2	systole	25	A	2180.0224995339627	coherent
268.0739	0.1443668726715259	2	systole	26	B	500.0	coherent
268.3663	0.1443668726715259	2	systole	27	A	2180.0224995339627	coherent
271.8868	0.1506278812885284	3	diastole	1	A	1578.5670027440333	coherent
272.192	0.1506278812885284	3	diastole	2	B	500.0	coherent
272.4968	0.1506278812885284	3	diastole	3	A	1578.5670027440333	coherent
273.1168	0.1506278812885284	3	diastole	4	A	1578.5670027440333	coherent
273.422	0.1506278812885284	3	diastole	5	B	500.0	coherent
273.7268	0.1506278812885284	3	diastole	6	A	1578.5670027440333	coherent
274.1256	0.1506278812885284	3	diastole	7	A	1578.5670027440333	coherent
274.427	0.1506278812885284	3	diastole	8	B	500.0	coherent
274.7281	0.1506278812885284	3	diastole	9	A	1578.5670027440333	coherent
275.3186	0.1506278812885284	3	diastole	10	A	1578.5670027440333	coherent
275.6188	0.1506278812885284	3	diastole	11	B	500.0	coherent
275.9186	0.1506278812885284	3	diastole	12	A	1578.5670027440333	coherent
276.5186	0.1506278812885284	3	diastole	13	A	1578.5670027440333	coherent
276.8188	0.1506278812885284	3	diastole	14	B	500.0	coherent
277.1187	0.1506278812885284	3	diastole	15	A	1578.5670027440333	coherent
277.6203	0.1506278812885284	3	diastole	16	A	1578.5670027440333	coherent
277.9154	0.1506278812885284	3	diastole	17	B	500.0	coherent
278.2103	0.1506278812885284	3	diastole	18	A	1578.5670027440333	coherent
278.7006	0.1506278812885284	3	diastole	19	A	1578.5670027440333	coherent
278.9958	0.1506278812885284	3	diastole	20	B	500.0	coherent
279.2906	0.1506278812885284	3	diastole	21	A	1578.5670027440333	coherent
279.781	0.1506278812885284	3	diastole	22	A	1578.5670027440333	coherent
280.0762	0.1506278812885284	3	diastole	23	B	500.0	coherent
280.371	0.1506278812885284	3	diastole	24	A	1578.5670027440333	coherent
283.7557	0.1431280889664776	4	systole	1	A	1987.9452401467304	coherent
284.0494	0.1431280889664776	4	systole	2	B	500.0	coherent
284.3432	0.1431280889664776	4	systole	3	A	1987.9452401467304	coherent
284.9457	0.1431280889664776	4	systole	4	A	1987.9452401467304	coherent
285.2394	0.1431280889664776	4	systole	5	B	500.0	coherent
285.5332	0.1431280889664776	4	systole	6	A	1987.9452401467304	coherent
286.162	0.1431280889664776	4	systole	7	A	1987.9452401467304	coherent
286.452	0.1431280889664776	4	systole	8	B	500.0	coherent
286.742	0.1431280889664776	4	systole	9	A	1987.9452401467304	coherent
287.3921	0.1431280889664776	4	systole	10	A	1987.9452401467304	coherent
287.682	0.1431280889664776	4	systole	11	B	500.0	coherent
287.9721	0.1431280889664776	4	systole	12	A	1987.9452401467304	coherent
288.5214	0.1431280889664776	4	systole	13	A	1987.9452401467304	coherent
288.8113	0.1431280889664776	4	systole	14	B	500.0	coherent
289.1013	0.1431280889664776	4	systole	15	A	1987.9452401467304	coherent
289.651	0.1431280889664776	4	systole	16	A	1987.9452401467304	coherent
289.9409	0.1431280889664776	4	systole	17	B	500.0	coherent
290.2308	0.1431280889664776	4	systole	18	A	1987.9452401467304	coherent
290.7696	0.1431280889664776	4	systole	19	A	1987.9452401467304	coherent
291.0646	0.1431280889664776	4	systole	20	B	500.0	coherent
291.3596	0.1431280889664776	4	systole	21	A	1987.9452401467304	coherent
291.8696	0.1431280889664776	4	systole	22	A	1987.9452401467304	coherent
292.1646	0.1431280889664776	4	systole	23	B	500.0	coherent
292.4596	0.1431280889664776	4	systole	24	A	1987.9452401467304	coherent
304.7366	0.1425005233613774	5	diastole	1	A	2180.0224995339627	streaming
305.0204	0.1425005233613774	5	diastole	2	B	500.0	streaming
305.3041	0.1425005233613774	5	diastole	3	A	2180.0224995339627	streaming
305.7966	0.1425005233613774	5	diastole	4	A	2180.0224995339627	streaming
306.0804	0.1425005233613774	5	diastole	5	B	500.0	streaming
306.3641	0.1425005233613774	5	diastole	6	A	2180.0224995339627	streaming
306.9469	0.1425005233613774	5	diastole	7	A	2180.0224995339627	streaming
307.2307	0.1425005233613774	5	diastole	8	B	500.0	streaming
307.5144	0.1425005233613774	5	diastole	9	A	2180.0224995339627	streaming
307.9929	0.1425005233613774	5	diastole	10	A	2180.0224995339627	streaming
308.2689	0.1425005233613774	5	diastole	11	B	500.0	streaming
308.5449	0.1425005233613774	5	diastole	12	A	2180.0224995339627	streaming
309.0829	0.1425005233613774	5	diastole	13	A	2180.0224995339627	streaming
309.3589	0.1425005233613774	5	diastole	14	B	500.0	streaming
309.6349	0.1425005233613774	5	diastole	15	A	2180.0224995339627	streaming
310.2413	0.1425005233613774	5	diastole	16	A	2180.0224995339627	streaming
310.5224	0.1425005233613774	5	diastole	17	B	500.0	streaming
310.8033	0.1425005233613774	5	diastole	18	A	2180.0224995339627	streaming
311.3541	0.1425005233613774	5	diastole	19	A	2180.0224995339627	streaming
311.634	0.1425005233613774	5	diastole	20	B	500.0	streaming
311.9136	0.1425005233613774	5	diastole	21	A	2180.0224995339627	streaming
312.4741	0.1425005233613774	5	diastole	22	A	2180.0224995339627	streaming
312.7539	0.1425005233613774	5	diastole	23	B	500.0	streaming
313.0336	0.1425005233613774	5	diastole	24	A	2180.0224995339627	streaming
315.6141	0.1406283811666071	6	systole	1	A	2942.014383864825	coherent
315.8992	0.1406283811666071	6	systole	2	B	500.0	coherent
316.1842	0.1406283811666071	6	systole	3	A	2942.014383864825	coherent
316.774	0.1406283811666071	6	systole	4	A	2942.014383864825	coherent
317.0591	0.1406283811666071	6	systole	5	B	500.0	coherent
317.3441	0.1406283811666071	6	systole	6	A	2942.014383864825	coherent
317.7805	0.1406283811666071	6	systole	7	A	2942.014383864825	coherent
318.0618	0.1406283811666071	6	systole	8	B	500.0	coherent
318.343	0.1406283811666071	6	systole	9	A	2942.014383864825	coherent
318.8009	0.1406283811666071	6	systole	10	A	2942.014383864825	coherent
319.0821	0.1406283811666071	6	systole	11	B	500.0	coherent
319.3634	0.1406283811666071	6	systole	12	A	2942.014383864825	coherent
320.0292	0.1406283811666071	6	systole	13	A	2942.014383864825	coherent
320.3154	0.1406283811666071	6	systole	14	B	500.0	coherent
320.6017	0.1406283811666071	6	systole	15	A	2942.014383864825	coherent
321.1554	0.1406283811666071	6	systole	16	A	2942.014383864825	coherent
321.438	0.1406283811666071	6	systole	17	B	500.0	coherent
321.7204	0.1406283811666071	6	systole	18	A	2942.014383864825	coherent
322.3437	0.1406283811666071	6	systole	19	A	2942.014383864825	coherent
322.6313	0.1406283811666071	6	systole	20	B	500.0	coherent
322.9187	0.1406283811666071	6	systole	21	A	2942.014383864825	coherent
323.5138	0.1406283811666071	6	systole	22	A	2942.014383864825	coherent
323.8013	0.1406283811666071	6	systole	23	B	500.0	coherent
324.0888	0.1406283811666071	6	systole	24	A	2942.014383864825	coherent
324.6117	0.1406283811666071	6	systole	25	A	2942.014383864825	coherent
324.8905	0.1406283811666071	6	systole	26	B	500.0	coherent
325.1692	0.1406283811666071	6	systole	27	A	2942.014383864825	coherent
333.7701	0.1368776898016221	7	diastole	1	A	1253.4921645871675	coherent
334.0439	0.1368776898016221	7	diastole	2	B	500.0	coherent
334.3177	0.1368776898016221	7	diastole	3	A	1253.4921645871675	coherent
334.8201	0.1368776898016221	7	diastole	4	A	1253.4921645871675	coherent
335.0939	0.1368776898016221	7	diastole	5	B	500.0	coherent
335.3677	0.1368776898016221	7	diastole	6	A	1253.4921645871675	coherent
335.8701	0.1368776898016221	7	diastole	7	A	1253.4921645871675	coherent
336.1439	0.1368776898016221	7	diastole	8	B	500.0	coherent
336.4176	0.1368776898016221	7	diastole	9	A	1253.4921645871675	coherent
336.7877	0.1368776898016221	7	diastole	10	A	1253.4921645871675	coherent
337.0539	0.1368776898016221	7	diastole	11	B	500.0	coherent
337.3202	0.1368776898016221	7	diastole	12	A	1253.4921645871675	coherent
338.0601	0.1368776898016221	7	diastole	13	A	1253.4921645871675	coherent
338.3338	0.1368776898016221	7	diastole	14	B	500.0	coherent
338.6076	0.1368776898016221	7	diastole	15	A	1253.4921645871675	coherent
339.0825	0.1368776898016221	7	diastole	16	A	1253.4921645871675	coherent
339.3551	0.1368776898016221	7	diastole	17	B	500.0	coherent
339.6279	0.1368776898016221	7	diastole	18	A	1253.4921645871675	coherent
340.1107	0.1368776898016221	7	diastole	19	A	1253.4921645871675	coherent
340.3834	0.1368776898016221	7	diastole	20	B	500.0	coherent
340.6562	0.1368776898016221	7	diastole	21	A	1253.4921645871675	coherent
341.139	0.1368776898016221	7	diastole	22	A	1253.4921645871675	coherent
341.4117	0.1368776898016221	7	diastole	23	B	500.0	coherent
341.6845	0.1368776898016221	7	diastole	24	A	1253.4921645871675	coherent
342.3456	0.1368776898016221	7	diastole	25	A	1253.4921645871675	coherent
342.6283	0.1368776898016221	7	diastole	26	B	500.0	coherent
342.911	0.1368776898016221	7	diastole	27	A	1253.4921645871675	coherent
348.1972	0.1413526063552126	8	diastole	1	A	2621.646269519023	coherent
348.4736	0.1413526063552126	8	diastole	2	B	500.0	coherent
348.7501	0.1413526063552126	8	diastole	3	A	2621.646269519023	coherent
349.269	0.1413526063552126	8	diastole	4	A	2621.646269519023	coherent
349.5454	0.1413526063552126	8	diastole	5	B	500.0	coherent
349.8219	0.1413526063552126	8	diastole	6	A	2621.646269519023	coherent
350.429	0.1413526063552126	8	diastole	7	A	2621.646269519023	coherent
350.7089	0.1413526063552126	8	diastole	8	B	500.0	coherent
350.989	0.1413526063552126	8	diastole	9	A	2621.646269519023	coherent
351.4104	0.1413526063552126	8	diastole	10	A	2621.646269519023	coherent
351.6853	0.1413526063552126	8	diastole	11	B	500.0	coherent
351.9604	0.1413526063552126	8	diastole	12	A	2621.646269519023	coherent
352.42	0.1413526063552126	8	diastole	13	A	2621.646269519023	coherent
352.695	0.1413526063552126	8	diastole	14	B	500.0	coherent
352.9701	0.1413526063552126	8	diastole	15	A	2621.646269519023	coherent
353.6304	0.1413526063552126	8	diastole	16	A	2621.646269519023	coherent
353.9053	0.1413526063552126	8	diastole	17	B	500.0	coherent
354.1804	0.1413526063552126	8	diastole	18	A	2621.646269519023	coherent
354.8386	0.1413526063552126	8	diastole	19	A	2621.646269519023	coherent
355.1185	0.1413526063552126	8	diastole	20	B	500.0	coherent
355.3986	0.1413526063552126	8	diastole	21	A	2621.646269519023	coherent
356.0727	0.1413526063552126	8	diastole	22	A	2621.646269519023	coherent
356.3551	0.1413526063552126	8	diastole	23	B	500.0	coherent
356.6376	0.1413526063552126	8	diastole	24	A	2621.646269519023	coherent
357.2926	0.1413526063552126	8	diastole	25	A	2621.646269519023	coherent
357.5749	0.1413526063552126	8	diastole	26	B	500.0	coherent
357.8575	0.1413526063552126	8	diastole	27	A	2621.646269519023	coherent
359.9643	0.1412501385784708	9	systole	1	A	2446.423693900757	coherent
360.2469	0.1412501385784708	9	systole	2	B	500.0	coherent
360.5292	0.1412501385784708	9	systole	3	A	2446.423693900757	coherent
360.9741	0.1412501385784708	9	systole	4	A	2446.423693900757	coherent
361.2568	0.1412501385784708	9	systole	5	B	500.0	coherent
361.5391	0.1412501385784708	9	systole	6	A	2446.423693900757	coherent
362.1143	0.1412501385784708	9	systole	7	A	2446.423693900757	coherent
362.3969	0.1412501385784708	9	systole	8	B	500.0	coherent
362.6793	0.1412501385784708	9	systole	9	A	2446.423693900757	coherent
363.2634	0.1412501385784708	9	systole	10	A	2446.423693900757	coherent
363.5486	0.1412501385784708	9	systole	11	B	500.0	coherent
363.8335	0.1412501385784708	9	systole	12	A	2446.423693900757	coherent
364.4035	0.1412501385784708	9	systole	13	A	2446.423693900757	coherent
364.6886	0.1412501385784708	9	systole	14	B	500.0	coherent
364.9735	0.1412501385784708	9	systole	15	A	2446.423693900757	coherent
365.5435	0.1412501385784708	9	systole	16	A	2446.423693900757	coherent
365.8287	0.1412501385784708	9	systole	17	B	500.0	coherent
366.1135	0.1412501385784708	9	systole	18	A	2446.423693900757	coherent
366.7435	0.1412501385784708	9	systole	19	A	2446.423693900757	coherent
367.0286	0.1412501385784708	9	systole	20	B	500.0	coherent
367.3135	0.1412501385784708	9	systole	21	A	2446.423693900757	coherent
367.9435	0.1412501385784708	9	systole	22	A	2446.423693900757	coherent
368.2286	0.1412501385784708	9	systole	23	B	500.0	coherent
368.5135	0.1412501385784708	9	systole	24	A	2446.423693900757	coherent
369.0336	0.1412501385784708	9	systole	25	A	2446.423693900757	coherent
369.3187	0.1412501385784708	9	systole	26	B	500.0	coherent
369.6036	0.1412501385784708	9	systole	27	A	2446.423693900757	coherent
372.5229	0.1437517499434761	10	systole	1	A	3538.000656405778	coherent
372.8104	0.1437517499434761	10	systole	2	B	500.0	coherent
373.0979	0.1437517499434761	10	systole	3	A	3538.000656405778	coherent
373.5829	0.1437517499434761	10	systole	4	A	3538.000656405778	coherent
373.8704	0.1437517499434761	10	systole	5	B	500.0	coherent
374.1579	0.1437517499434761	10	systole	6	A	3538.000656405778	coherent
374.6637	0.1437517499434761	10	systole	7	A	3538.000656405778	coherent
374.9487	0.1437517499434761	10	systole	8	B	500.0	coherent
375.2337	0.1437517499434761	10	systole	9	A	3538.000656405778	coherent
375.8037	0.1437517499434761	10	systole	10	A	3538.000656405778	coherent
376.0887	0.1437517499434761	10	systole	11	B	500.0	coherent
376.3737	0.1437517499434761	10	systole	12	A	3538.000656405778	coherent
376.9	0.1437517499434761	10	systole	13	A	3538.000656405778	coherent
377.1812	0.1437517499434761	10	systole	14	B	500.0	coherent
377.4625	0.1437517499434761	10	systole	15	A	3538.000656405778	coherent
378.01	0.1437517499434761	10	systole	16	A	3538.000656405778	coherent
378.2912	0.1437517499434761	10	systole	17	B	500.0	coherent
378.5725	0.1437517499434761	10	systole	18	A	3538.000656405778	coherent
379.1838	0.1437517499434761	10	systole	19	A	3538.000656405778	coherent
379.4687	0.1437517499434761	10	systole	20	B	500.0	coherent
379.7538	0.1437517499434761	10	systole	21	A	3538.000656405778	coherent
380.2401	0.1437517499434761	10	systole	22	A	3538.000656405778	coherent
380.5214	0.1437517499434761	10	systole	23	B	500.0	coherent
380.8026	0.1437517499434761	10	systole	24	A	3538.000656405778	coherent
381.351	0.1437517499434761	10	systole	25	A	3538.000656405778	coherent
381.6297	0.1437517499434761	10	systole	26	B	500.0	coherent
381.9085	0.1437517499434761	10	systole	27	A	3538.000656405778	coherent
393.6446	0.1399991526268422	11	systole	1	A	2942.014383864825	streaming
393.9271	0.1399991526268422	11	systole	2	B	500.0	streaming
394.2095	0.1399991526268422	11	systole	3	A	2942.014383864825	streaming
394.6842	0.1399991526268422	11	systole	4	A	2942.014383864825	streaming
394.9667	0.1399991526268422	11	systole	5	B	500.0	streaming
395.2491	0.1399991526268422	11	systole	6	A	2942.014383864825	streaming
395.7238	0.1399991526268422	11	systole	7	A	2942.014383864825	streaming
396.0063	0.1399991526268422	11	systole	8	B	500.0	streaming
396.2887	0.1399991526268422	11	systole	9	A	2942.014383864825	streaming
396.8438	0.1399991526268422	11	systole	10	A	2942.014383864825	streaming
397.1263	0.1399991526268422	11	systole	11	B	500.0	streaming
397.4087	0.1399991526268422	11	systole	12	A	2942.014383864825	streaming
397.9234	0.1399991526268422	11	systole	13	A	2942.014383864825	streaming
398.2059	0.1399991526268422	11	systole	14	B	500.0	streaming
398.4883	0.1399991526268422	11	systole	15	A	2942.014383864825	streaming
399.1484	0.1399991526268422	11	systole	16	A	2942.014383864825	streaming
399.4321	0.1399991526268422	11	systole	17	B	500.0	streaming
399.7158	0.1399991526268422	11	systole	18	A	2942.014383864825	streaming
400.2308	0.1399991526268422	11	systole	19	A	2942.014383864825	streaming
400.5121	0.1399991526268422	11	systole	20	B	500.0	streaming
400.7932	0.1399991526268422	11	systole	21	A	2942.014383864825	streaming
401.3304	0.1399991526268422	11	systole	22	A	2942.014383864825	streaming
401.6092	0.1399991526268422	11	systole	23	B	500.0	streaming
401.888	0.1399991526268422	11	systole	24	A	2942.014383864825	streaming
402.4387	0.1399991526268422	11	systole	25	A	2942.014383864825	streaming
402.7176	0.1399991526268422	11	systole	26	B	500.0	streaming
402.9963	0.1399991526268422	11	systole	27	A	2942.014383864825	streaming
405.9547	0.1392738250433467	12	systole	1	A	1731.0897269735058	coherent
406.2369	0.1392738250433467	12	systole	2	B	500.0	coherent
406.5197	0.1392738250433467	12	systole	3	A	1731.0897269735058	coherent
406.8905	0.1392738250433467	12	systole	4	A	1731.0897269735058	coherent
407.1688	0.1392738250433467	12	systole	5	B	500.0	coherent
407.4476	0.1392738250433467	12	systole	6	A	1731.0897269735058	coherent
407.8409	0.1392738250433467	12	systole	7	A	1731.0897269735058	coherent
408.1192	0.1392738250433467	12	systole	8	B	500.0	coherent
408.3979	0.1392738250433467	12	systole	9	A	1731.0897269735058	coherent
408.9998	0.1392738250433467	12	systole	10	A	1731.0897269735058	coherent
409.2833	0.1392738250433467	12	systole	11	B	500.0	coherent
409.5673	0.1392738250433467	12	systole	12	A	1731.0897269735058	coherent
410.1106	0.1392738250433467	12	systole	13	A	1731.0897269735058	coherent
410.3916	0.1392738250433467	12	systole	14	B	500.0	coherent
410.6731	0.1392738250433467	12	systole	15	A	1731.0897269735058	coherent
411.2306	0.1392738250433467	12	systole	16	A	1731.0897269735058	coherent
411.5116	0.1392738250433467	12	systole	17	B	500.0	coherent
411.793	0.1392738250433467	12	systole	18	A	1731.0897269735058	coherent
412.3506	0.1392738250433467	12	systole	19	A	1731.0897269735058	coherent
412.6316	0.1392738250433467	12	systole	20	B	500.0	coherent
412.913	0.1392738250433467	12	systole	21	A	1731.0897269735058	coherent
413.4406	0.1392738250433467	12	systole	22	A	1731.0897269735058	coherent
413.7215	0.1392738250433467	12	systole	23	B	500.0	coherent
414.003	0.1392738250433467	12	systole	24	A	1731.0897269735058	coherent
414.5305	0.1392738250433467	12	systole	25	A	1731.0897269735058	coherent
414.8115	0.1392738250433467	12	systole	26	B	500.0	coherent
415.093	0.1392738250433467	12	systole	27	A	1731.0897269735058	coherent
416.9809	0.1393761141807772	13	systole	1	A	1812.791509567848	streaming
417.2595	0.1393761141807772	13	systole	2	B	500.0	streaming
417.5384	0.1393761141807772	13	systole	3	A	1812.791509567848	streaming
418.0712	0.1393761141807772	13	systole	4	A	1812.791509567848	streaming
418.3498	0.1393761141807772	13	systole	5	B	500.0	streaming
418.6287	0.1393761141807772	13	systole	6	A	1812.791509567848	streaming
419.1615	0.1393761141807772	13	systole	7	A	1812.791509567848	streaming
419.4401	0.1393761141807772	13	systole	8	B	500.0	streaming
419.719	0.1393761141807772	13	systole	9	A	1812.791509567848	streaming
420.3282	0.1393761141807772	13	systole	10	A	1812.791509567848	streaming
420.6031	0.1393761141807772	13	systole	11	B	500.0	streaming
420.8783	0.1393761141807772	13	systole	12	A	1812.791509567848	streaming
421.5086	0.1393761141807772	13	systole	13	A	1812.791509567848	streaming
421.7835	0.1393761141807772	13	systole	14	B	500.0	streaming
422.0587	0.1393761141807772	13	systole	15	A	1812.791509567848	streaming
422.539	0.1393761141807772	13	systole	16	A	1812.791509567848	streaming
422.8114	0.1393761141807772	13	systole	17	B	500.0	streaming
423.0841	0.1393761141807772	13	systole	18	A	1812.791509567848	streaming
423.6494	0.1393761141807772	13	systole	19	A	1812.791509567848	streaming
423.9218	0.1393761141807772	13	systole	20	B	500.0	streaming
424.1945	0.1393761141807772	13	systole	21	A	1812.791509567848	streaming
424.7771	0.1393761141807772	13	systole	22	A	1812.791509567848	streaming
425.0544	0.1393761141807772	13	systole	23	B	500.0	streaming
425.3321	0.1393761141807772	13	systole	24	A	1812.791509567848	streaming
425.9677	0.1393761141807772	13	systole	25	A	1812.791509567848	streaming
426.245	0.1393761141807772	13	systole	26	B	500.0	streaming
426.5227	0.1393761141807772	13	systole	27	A	1812.791509567848	streaming
431.0201	0.1412739261868409	14	diastole	1	A	1196.9977780158051	coherent
431.3026	0.1412739261868409	14	diastole	2	B	500.0	coherent
431.5852	0.1412739261868409	14	diastole	3	A	1196.9977780158051	coherent
432.1302	0.1412739261868409	14	diastole	4	A	1196.9977780158051	coherent
432.4127	0.1412739261868409	14	diastole	5	B	500.0	coherent
432.6953	0.1412739261868409	14	diastole	6	A	1196.9977780158051	coherent
433.1835	0.1412739261868409	14	diastole	7	A	1196.9977780158051	coherent
433.461	0.1412739261868409	14	diastole	8	B	500.0	coherent
433.7386	0.1412739261868409	14	diastole	9	A	1196.9977780158051	coherent
434.3073	0.1412739261868409	14	diastole	10	A	1196.9977780158051	coherent
434.5858	0.1412739261868409	14	diastole	11	B	500.0	coherent
434.8644	0.1412739261868409	14	diastole	12	A	1196.9977780158051	coherent
435.4254	0.1412739261868409	14	diastole	13	A	1196.9977780158051	coherent
435.7038	0.1412739261868409	14	diastole	14	B	500.0	coherent
435.9825	0.1412739261868409	14	diastole	15	A	1196.9977780158051	coherent
436.4655	0.1412739261868409	14	diastole	16	A	1196.9977780158051	coherent
436.744	0.1412739261868409	14	diastole	17	B	500.0	coherent
437.0225	0.1412739261868409	14	diastole	18	A	1196.9977780158051	coherent
437.6055	0.1412739261868409	14	diastole	19	A	1196.9977780158051	coherent
437.8839	0.1412739261868409	14	diastole	20	B	500.0	coherent
438.1625	0.1412739261868409	14	diastole	21	A	1196.9977780158051	coherent
438.6153	0.1412739261868409	14	diastole	22	A	1196.9977780158051	coherent
438.8938	0.1412739261868409	14	diastole	23	B	500.0	coherent
439.1723	0.1412739261868409	14	diastole	24	A	1196.9977780158051	coherent
442.074	0.1392607196466997	15	diastole	1	A	1253.4921645871675	coherent
442.3537	0.1392607196466997	15	diastole	2	B	500.0	coherent
442.6335	0.1392607196466997	15	diastole	3	A	1253.4921645871675	coherent
443.2439	0.1392607196466997	15	diastole	4	A	1253.4921645871675	coherent
443.5236	0.1392607196466997	15	diastole	5	B	500.0	coherent
443.8034	0.1392607196466997	15	diastole	6	A	1253.4921645871675	coherent
444.2739	0.1392607196466997	15	diastole	7	A	1253.4921645871675	coherent
444.5537	0.1392607196466997	15	diastole	8	B	500.0	coherent
444.8335	0.1392607196466997	15	diastole	9	A	1253.4921645871675	coherent
445.2782	0.1392607196466997	15	diastole	10	A	1253.4921645871675	coherent
445.557	0.1392607196466997	15	diastole	11	B	500.0	coherent
445.8357	0.1392607196466997	15	diastole	12	A	1253.4921645871675	coherent
446.4494	0.1392607196466997	15	diastole	13	A	1253.4921645871675	coherent
446.7318	0.1392607196466997	15	diastole	14	B	500.0	coherent
447.0144	0.1392607196466997	15	diastole	15	A	1253.4921645871675	coherent
447.5993	0.1392607196466997	15	diastole	16	A	1253.4921645871675	coherent
447.8818	0.1392607196466997	15	diastole	17	B	500.0	coherent
448.1643	0.1392607196466997	15	diastole	18	A	1253.4921645871675	coherent
448.5481	0.1392607196466997	15	diastole	19	A	1253.4921645871675	coherent
448.8269	0.1392607196466997	15	diastole	20	B	500.0	coherent
449.1056	0.1392607196466997	15	diastole	21	A	1253.4921645871675	coherent
449.5181	0.1392607196466997	15	diastole	22	A	1253.4921645871675	coherent
449.7968	0.1392607196466997	15	diastole	23	B	500.0	coherent
450.0756	0.1392607196466997	15	diastole	24	A	1253.4921645871675	coherent
450.66	0.1392607196466997	15	diastole	25	A	1253.4921645871675	coherent
450.9387	0.1392607196466997	15	diastole	26	B	500.0	coherent
451.2175	0.1392607196466997	15	diastole	27	A	1253.4921645871675	coherent
453.7442	0.1325218499405309	16	systole	1	A	1169.7126981694591	coherent
454.0041	0.1325218499405309	16	systole	2	B	500.0	coherent
454.2642	0.1325218499405309	16	systole	3	A	1169.7126981694591	coherent
455.0223	0.1325218499405309	16	systole	4	A	1169.7126981694591	coherent
455.2822	0.1325218499405309	16	systole	5	B	500.0	coherent
455.5423	0.1325218499405309	16	systole	6	A	1169.7126981694591	coherent
456.3004	0.1325218499405309	16	systole	7	A	1169.7126981694591	coherent
456.5603	0.1325218499405309	16	systole	8	B	500.0	coherent
456.8204	0.1325218499405309	16	systole	9	A	1169.7126981694591	coherent
457.609	0.1325218499405309	16	systole	10	A	1169.7126981694591	coherent
457.8904	0.1325218499405309	16	systole	11	B	500.0	coherent
458.172	0.1325218499405309	16	systole	12	A	1169.7126981694591	coherent
458.7918	0.1325218499405309	16	systole	13	A	1169.7126981694591	coherent
459.0794	0.1325218499405309	16	systole	14	B	500.0	coherent
459.3672	0.1325218499405309	16	systole	15	A	1169.7126981694591	coherent
459.8728	0.1325218499405309	16	systole	16	A	1169.7126981694591	coherent
460.1552	0.1325218499405309	16	systole	17	B	500.0	coherent
460.4378	0.1325218499405309	16	systole	18	A	1169.7126981694591	coherent
460.8327	0.1325218499405309	16	systole	19	A	1169.7126981694591	coherent
461.1152	0.1325218499405309	16	systole	20	B	500.0	coherent
461.3978	0.1325218499405309	16	systole	21	A	1169.7126981694591	coherent
461.5786	0.1325218499405309	16	systole	22	A	1169.7126981694591	coherent
461.8136	0.1325218499405309	16	systole	23	B	500.0	coherent
462.0486	0.1325218499405309	16	systole	24	A	1169.7126981694591	coherent
462.4987	0.1325218499405309	16	systole	25	A	1169.7126981694591	coherent
462.7336	0.1325218499405309	16	systole	26	B	500.0	coherent
462.9687	0.1325218499405309	16	systole	27	A	1169.7126981694591	coherent
465.3712	0.1400331344921142	17	diastole	1	A	1282.731510155574	coherent
465.6575	0.1400331344921142	17	diastole	2	B	500.0	coherent
465.9438	0.1400331344921142	17	diastole	3	A	1282.731510155574	coherent
466.5412	0.1400331344921142	17	diastole	4	A	1282.731510155574	coherent
466.8275	0.1400331344921142	17	diastole	5	B	500.0	coherent
467.1138	0.1400331344921142	17	diastole	6	A	1282.731510155574	coherent
467.526	0.1400331344921142	17	diastole	7	A	1282.731510155574	coherent
467.8061	0.1400331344921142	17	diastole	8	B	500.0	coherent
468.0862	0.1400331344921142	17	diastole	9	A	1282.731510155574	coherent
468.5967	0.1400331344921142	17	diastole	10	A	1282.731510155574	coherent
468.8717	0.1400331344921142	17	diastole	11	B	500.0	coherent
469.1466	0.1400331344921142	17	diastole	12	A	1282.731510155574	coherent
469.7671	0.1400331344921142	17	diastole	13	A	1282.731510155574	coherent
470.0421	0.1400331344921142	17	diastole	14	B	500.0	coherent
470.317	0.1400331344921142	17	diastole	15	A	1282.731510155574	coherent
470.7981	0.1400331344921142	17	diastole	16	A	1282.731510155574	coherent
471.068	0.1400331344921142	17	diastole	17	B	500.0	coherent
471.3379	0.1400331344921142	17	diastole	18	A	1282.731510155574	coherent
471.8577	0.1400331344921142	17	diastole	19	A	1282.731510155574	coherent
472.1276	0.1400331344921142	17	diastole	20	B	500.0	coherent
472.3975	0.1400331344921142	17	diastole	21	A	1282.731510155574	coherent
473.037	0.1400331344921142	17	diastole	22	A	1282.731510155574	coherent
473.3157	0.1400331344921142	17	diastole	23	B	500.0	coherent
473.5943	0.1400331344921142	17	diastole	24	A	1282.731510155574	coherent
474.0374	0.1400331344921142	17	diastole	25	A	1282.731510155574	coherent
474.3161	0.1400331344921142	17	diastole	26	B	500.0	coherent
474.5947	0.1400331344921142	17	diastole	27	A	1282.731510155574	coherent
477.3068	0.136210860859137	18	diastole	1	A	4062.961875947593	streaming
477.5817	0.136210860859137	18	diastole	2	B	500.0	streaming
477.8565	0.136210860859137	18	diastole	3	A	4062.961875947593	streaming
478.4066	0.136210860859137	18	diastole	4	A	4062.961875947593	streaming
478.6817	0.136210860859137	18	diastole	5	B	500.0	streaming
478.9565	0.136210860859137	18	diastole	6	A	4062.961875947593	streaming
479.3926	0.136210860859137	18	diastole	7	A	4062.961875947593	streaming
479.6651	0.136210860859137	18	diastole	8	B	500.0	streaming
479.9375	0.136210860859137	18	diastole	9	A	4062.961875947593	streaming
480.3928	0.136210860859137	18	diastole	10	A	4062.961875947593	streaming
480.6652	0.136210860859137	18	diastole	11	B	500.0	streaming
480.9376	0.136210860859137	18	diastole	12	A	4062.961875947593	streaming
481.524	0.136210860859137	18	diastole	13	A	4062.961875947593	streaming
481.8004	0.136210860859137	18	diastole	14	B	500.0	streaming
482.0765	0.136210860859137	18	diastole	15	A	4062.961875947593	streaming
482.634	0.136210860859137	18	diastole	16	A	4062.961875947593	streaming
482.9104	0.136210860859137	18	diastole	17	B	500.0	streaming
483.1865	0.136210860859137	18	diastole	18	A	4062.961875947593	streaming
483.614	0.136210860859137	18	diastole	19	A	4062.961875947593	streaming
483.8904	0.136210860859137	18	diastole	20	B	500.0	streaming
484.1665	0.136210860859137	18	diastole	21	A	4062.961875947593	streaming
484.724	0.136210860859137	18	diastole	22	A	4062.961875947593	streaming
485.0003	0.136210860859137	18	diastole	23	B	500.0	streaming
485.2765	0.136210860859137	18	diastole	24	A	4062.961875947593	streaming
485.834	0.136210860859137	18	diastole	25	A	4062.961875947593	streaming
486.1103	0.136210860859137	18	diastole	26	B	500.0	streaming
486.3865	0.136210860859137	18	diastole	27	A	4062.961875947593	streaming
489.2014	0.1362449402804486	19	diastole	1	A	4254.720409722799	streaming
489.4788	0.1362449402804486	19	diastole	2	B	500.0	streaming
489.7563	0.1362449402804486	19	diastole	3	A	4254.720409722799	streaming
490.3414	0.1362449402804486	19	diastole	4	A	4254.720409722799	streaming
490.6188	0.1362449402804486	19	diastole	5	B	500.0	streaming
490.8964	0.1362449402804486	19	diastole	6	A	4254.720409722799	streaming
491.3327	0.1362449402804486	19	diastole	7	A	4254.720409722799	streaming
491.6052	0.1362449402804486	19	diastole	8	B	500.0	streaming
491.8777	0.1362449402804486	19	diastole	9	A	4254.720409722799	streaming
492.4727	0.1362449402804486	19	diastole	10	A	4254.720409722799	streaming
492.7452	0.1362449402804486	19	diastole	11	B	500.0	streaming
493.0177	0.1362449402804486	19	diastole	12	A	4254.720409722799	streaming
493.6128	0.1362449402804486	19	diastole	13	A	4254.720409722799	streaming
493.8852	0.1362449402804486	19	diastole	14	B	500.0	streaming
494.1578	0.1362449402804486	19	diastole	15	A	4254.720409722799	streaming
494.5808	0.1362449402804486	19	diastole	16	A	4254.720409722799	streaming
494.8458	0.1362449402804486	19	diastole	17	B	500.0	streaming
495.1109	0.1362449402804486	19	diastole	18	A	4254.720409722799	streaming
495.6167	0.1362449402804486	19	diastole	19	A	4254.720409722799	streaming
495.8792	0.1362449402804486	19	diastole	20	B	500.0	streaming
496.1418	0.1362449402804486	19	diastole	21	A	4254.720409722799	streaming
496.6845	0.1362449402804486	19	diastole	22	A	4254.720409722799	streaming
496.9483	0.1362449402804486	19	diastole	23	B	500.0	streaming
497.2122	0.1362449402804486	19	diastole	24	A	4254.720409722799	streaming
497.7449	0.1362449402804486	19	diastole	25	A	4254.720409722799	streaming
498.0087	0.1362449402804486	19	diastole	26	B	500.0	streaming
498.2726	0.1362449402804486	19	diastole	27	A	4254.720409722799	streaming
501.13	0.1331478911451995	20	diastole	1	A	4062.961875947593	coherent
501.4039	0.1331478911451995	20	diastole	2	B	500.0	coherent
501.6775	0.1331478911451995	20	diastole	3	A	4062.961875947593	coherent
502.2701	0.1331478911451995	20	diastole	4	A	4062.961875947593	coherent
502.5439	0.1331478911451995	20	diastole	5	B	500.0	coherent
502.8175	0.1331478911451995	20	diastole	6	A	4062.961875947593	coherent
503.3401	0.1331478911451995	20	diastole	7	A	4062.961875947593	coherent
503.614	0.1331478911451995	20	diastole	8	B	500.0	coherent
503.8876	0.1331478911451995	20	diastole	9	A	4062.961875947593	coherent
504.3447	0.1331478911451995	20	diastole	10	A	4062.961875947593	coherent
504.6123	0.1331478911451995	20	diastole	11	B	500.0	coherent
504.8797	0.1331478911451995	20	diastole	12	A	4062.961875947593	coherent
505.5401	0.1331478911451995	20	diastole	13	A	4062.961875947593	coherent
505.814	0.1331478911451995	20	diastole	14	B	500.0	coherent
506.0876	0.1331478911451995	20	diastole	15	A	4062.961875947593	coherent
506.5317	0.1331478911451995	20	diastole	16	A	4062.961875947593	coherent
506.8005	0.1331478911451995	20	diastole	17	B	500.0	coherent
507.0691	0.1331478911451995	20	diastole	18	A	4062.961875947593	coherent
507.5517	0.1331478911451995	20	diastole	19	A	4062.961875947593	coherent
507.8206	0.1331478911451995	20	diastole	20	B	500.0	coherent
508.0892	0.1331478911451995	20	diastole	21	A	4062.961875947593	coherent
508.7271	0.1331478911451995	20	diastole	22	A	4062.961875947593	coherent
509.0022	0.1331478911451995	20	diastole	23	B	500.0	coherent
509.2771	0.1331478911451995	20	diastole	24	A	4062.961875947593	coherent
509.7019	0.1331478911451995	20	diastole	25	A	4062.961875947593	coherent
509.9708	0.1331478911451995	20	diastole	26	B	500.0	coherent
510.2394	0.1331478911451995	20	diastole	27	A	4062.961875947593	coherent
514.1499	0.1338595252018422	21	diastole	1	A	1282.731510155574	coherent
514.4236	0.1338595252018422	21	diastole	2	B	500.0	coherent
514.6974	0.1338595252018422	21	diastole	3	A	1282.731510155574	coherent
515.2883	0.1338595252018422	21	diastole	4	A	1282.731510155574	coherent
515.562	0.1338595252018422	21	diastole	5	B	500.0	coherent
515.8357	0.1338595252018422	21	diastole	6	A	1282.731510155574	coherent
516.3143	0.1338595252018422	21	diastole	7	A	1282.731510155574	coherent
516.582	0.1338595252018422	21	diastole	8	B	500.0	coherent
516.8498	0.1338595252018422	21	diastole	9	A	1282.731510155574	coherent
517.3744	0.1338595252018422	21	diastole	10	A	1282.731510155574	coherent
517.6421	0.1338595252018422	21	diastole	11	B	500.0	coherent
517.9098	0.1338595252018422	21	diastole	12	A	1282.731510155574	coherent
518.3558	0.1338595252018422	21	diastole	13	A	1282.731510155574	coherent
518.6273	0.1338595252018422	21	diastole	14	B	500.0	coherent
518.8988	0.1338595252018422	21	diastole	15	A	1282.731510155574	coherent
519.3158	0.1338595252018422	21	diastole	16	A	1282.731510155574	coherent
519.5873	0.1338595252018422	21	diastole	17	B	500.0	coherent
519.8588	0.1338595252018422	21	diastole	18	A	1282.731510155574	coherent
520.3916	0.1338595252018422	21	diastole	19	A	1282.731510155574	coherent
520.6606	0.1338595252018422	21	diastole	20	B	500.0	coherent
520.9296	0.1338595252018422	21	diastole	21	A	1282.731510155574	coherent
521.4216	0.1338595252018422	21	diastole	22	A	1282.731510155574	coherent
521.6906	0.1338595252018422	21	diastole	23	B	500.0	coherent
521.9596	0.1338595252018422	21	diastole	24	A	1282.731510155574	coherent
524.408	0.1368762709316797	22	systole	1	A	1196.9977780158051	coherent
524.6805	0.1368762709316797	22	systole	2	B	500.0	coherent
524.953	0.1368762709316797	22	systole	3	A	1196.9977780158051	coherent
525.4681	0.1368762709316797	22	systole	4	A	1196.9977780158051	coherent
525.7405	0.1368762709316797	22	systole	5	B	500.0	coherent
526.0131	0.1368762709316797	22	systole	6	A	1196.9977780158051	coherent
526.6027	0.1368762709316797	22	systole	7	A	1196.9977780158051	coherent
526.8764	0.1368762709316797	22	systole	8	B	500.0	coherent
527.1502	0.1368762709316797	22	systole	9	A	1196.9977780158051	coherent
527.6581	0.1368762709316797	22	systole	10	A	1196.9977780158051	coherent
527.9305	0.1368762709316797	22	systole	11	B	500.0	coherent
528.2031	0.1368762709316797	22	systole	12	A	1196.9977780158051	coherent
528.7181	0.1368762709316797	22	systole	13	A	1196.9977780158051	coherent
528.9905	0.1368762709316797	22	systole	14	B	500.0	coherent
529.2631	0.1368762709316797	22	systole	15	A	1196.9977780158051	coherent
529.7791	0.1368762709316797	22	systole	16	A	1196.9977780158051	coherent
530.049	0.1368762709316797	22	systole	17	B	500.0	coherent
530.3191	0.1368762709316797	22	systole	18	A	1196.9977780158051	coherent
530.8777	0.1368762709316797	22	systole	19	A	1196.9977780158051	coherent
531.1501	0.1368762709316797	22	systole	20	B	500.0	coherent
531.4226	0.1368762709316797	22	systole	21	A	1196.9977780158051	coherent
531.9674	0.1368762709316797	22	systole	22	A	1196.9977780158051	coherent
532.2397	0.1368762709316797	22	systole	23	B	500.0	coherent
532.5123	0.1368762709316797	22	systole	24	A	1196.9977780158051	coherent
532.9586	0.1368762709316797	22	systole	25	A	1196.9977780158051	coherent
533.2285	0.1368762709316797	22	systole	26	B	500.0	coherent
533.4986	0.1368762709316797	22	systole	27	A	1196.9977780158051	coherent
535.6985	0.1331368434475734	23	diastole	1	A	1312.6529017338555	coherent
535.9685	0.1331368434475734	23	diastole	2	B	500.0	coherent
536.2385	0.1331368434475734	23	diastole	3	A	1312.6529017338555	coherent
536.7174	0.1331368434475734	23	diastole	4	A	1312.6529017338555	coherent
536.9837	0.1331368434475734	23	diastole	5	B	500.0	coherent
537.2499	0.1331368434475734	23	diastole	6	A	1312.6529017338555	coherent
537.7573	0.1331368434475734	23	diastole	7	A	1312.6529017338555	coherent
538.0236	0.1331368434475734	23	diastole	8	B	500.0	coherent
538.2899	0.1331368434475734	23	diastole	9	A	1312.6529017338555	coherent
538.9285	0.1331368434475734	23	diastole	10	A	1312.6529017338555	coherent
539.1985	0.1331368434475734	23	diastole	11	B	500.0	coherent
539.4684	0.1331368434475734	23	diastole	12	A	1312.6529017338555	coherent
540.0526	0.1331368434475734	23	diastole	13	A	1312.6529017338555	coherent
540.3251	0.1331368434475734	23	diastole	14	B	500.0	coherent
540.5975	0.1331368434475734	23	diastole	15	A	1312.6529017338555	coherent
541.0313	0.1331368434475734	23	diastole	16	A	1312.6529017338555	coherent
541.3	0.1331368434475734	23	diastole	17	B	500.0	coherent
541.5687	0.1331368434475734	23	diastole	18	A	1312.6529017338555	coherent
542.1415	0.1331368434475734	23	diastole	19	A	1312.6529017338555	coherent
542.4103	0.1331368434475734	23	diastole	20	B	500.0	coherent
542.679	0.1331368434475734	23	diastole	21	A	1312.6529017338555	coherent
543.2868	0.1331368434475734	23	diastole	22	A	1312.6529017338555	coherent
543.5618	0.1331368434475734	23	diastole	23	B	500.0	coherent
543.8368	0.1331368434475734	23	diastole	24	A	1312.6529017338555	coherent
544.437	0.1331368434475734	23	diastole	25	A	1312.6529017338555	coherent
544.712	0.1331368434475734	23	diastole	26	B	500.0	coherent
544.987	0.1331368434475734	23	diastole	27	A	1312.6529017338555	coherent
547.1562	0.1381188749219291	24	systole	1	A	1253.4921645871675	streaming
547.4337	0.1381188749219291	24	systole	2	B	500.0	streaming
547.7112	0.1381188749219291	24	systole	3	A	1253.4921645871675	streaming
548.2962	0.1381188749219291	24	systole	4	A	1253.4921645871675	streaming
548.5737	0.1381188749219291	24	systole	5	B	500.0	streaming
548.8512	0.1381188749219291	24	systole	6	A	1253.4921645871675	streaming
549.3016	0.1381188749219291	24	systole	7	A	1253.4921645871675	streaming
549.5778	0.1381188749219291	24	systole	8	B	500.0	streaming
549.8541	0.1381188749219291	24	systole	9	A	1253.4921645871675	streaming
550.2989	0.1381188749219291	24	systole	10	A	1253.4921645871675	streaming
550.5688	0.1381188749219291	24	systole	11	B	500.0	streaming
550.8389	0.1381188749219291	24	systole	12	A	1253.4921645871675	streaming
551.4617	0.1381188749219291	24	systole	13	A	1253.4921645871675	streaming
551.7379	0.1381188749219291	24	systole	14	B	500.0	streaming
552.0141	0.1381188749219291	24	systole	15	A	1253.4921645871675	streaming
552.4788	0.1381188749219291	24	systole	16	A	1253.4921645871675	streaming
552.7488	0.1381188749219291	24	systole	17	B	500.0	streaming
553.0188	0.1381188749219291	24	systole	18	A	1253.4921645871675	streaming
553.4937	0.1381188749219291	24	systole	19	A	1253.4921645871675	streaming
553.7564	0.1381188749219291	24	systole	20	B	500.0	streaming
554.0192	0.1381188749219291	24	systole	21	A	1253.4921645871675	streaming
554.5354	0.1381188749219291	24	systole	22	A	1253.4921645871675	streaming
554.798	0.1381188749219291	24	systole	23	B	500.0	streaming
555.0608	0.1381188749219291	24	systole	24	A	1253.4921645871675	streaming
555.6307	0.1381188749219291	24	systole	25	A	1253.4921645871675	streaming
555.898	0.1381188749219291	24	systole	26	B	500.0	streaming
556.1653	0.1381188749219291	24	systole	27	A	1253.4921645871675	streaming
563.3777	0.136155899730511	25	systole	1	A	886.9712202217811	streaming
563.6522	0.136155899730511	25	systole	2	B	500.0	streaming
563.9277	0.136155899730511	25	systole	3	A	886.9712202217811	streaming
564.538	0.136155899730511	25	systole	4	A	886.9712202217811	streaming
564.8125	0.136155899730511	25	systole	5	B	500.0	streaming
565.088	0.136155899730511	25	systole	6	A	886.9712202217811	streaming
565.5581	0.136155899730511	25	systole	7	A	886.9712202217811	streaming
565.8326	0.136155899730511	25	systole	8	B	500.0	streaming
566.1081	0.136155899730511	25	systole	9	A	886.9712202217811	streaming
566.5781	0.136155899730511	25	systole	10	A	886.9712202217811	streaming
566.8527	0.136155899730511	25	systole	11	B	500.0	streaming
567.1281	0.136155899730511	25	systole	12	A	886.9712202217811	streaming
567.6781	0.136155899730511	25	systole	13	A	886.9712202217811	streaming
567.9526	0.136155899730511	25	systole	14	B	500.0	streaming
568.2282	0.136155899730511	25	systole	15	A	886.9712202217811	streaming
568.6614	0.136155899730511	25	systole	16	A	886.9712202217811	streaming
568.9259	0.136155899730511	25	systole	17	B	500.0	streaming
569.1914	0.136155899730511	25	systole	18	A	886.9712202217811	streaming
569.6813	0.136155899730511	25	systole	19	A	886.9712202217811	streaming
569.9459	0.136155899730511	25	systole	20	B	500.0	streaming
570.2113	0.136155899730511	25	systole	21	A	886.9712202217811	streaming
570.8443	0.136155899730511	25	systole	22	A	886.9712202217811	streaming
571.115	0.136155899730511	25	systole	23	B	500.0	streaming
571.3867	0.136155899730511	25	systole	24	A	886.9712202217811	streaming
571.8421	0.136155899730511	25	systole	25	A	886.9712202217811	streaming
572.1042	0.136155899730511	25	systole	26	B	500.0	streaming
572.3671	0.136155899730511	25	systole	27	A	886.9712202217811	streaming
576.0585	0.1312429182580672	26	systole	1	A	720.7460505647621	coherent
576.3214	0.1312429182580672	26	systole	2	B	500.0	coherent
576.586	0.1312429182580672	26	systole	3	A	720.7460505647621	coherent
577.1502	0.1312429182580672	26	systole	4	A	720.7460505647621	coherent
577.4131	0.1312429182580672	26	systole	5	B	500.0	coherent
577.6777	0.1312429182580672	26	systole	6	A	720.7460505647621	coherent
578.0672	0.1312429182580672	26	systole	7	A	720.7460505647621	coherent
578.3238	0.1312429182580672	26	systole	8	B	500.0	coherent
578.5822	0.1312429182580672	26	systole	9	A	720.7460505647621	coherent
579.0072	0.1312429182580672	26	systole	10	A	720.7460505647621	coherent
579.2638	0.1312429182580672	26	systole	11	B	500.0	coherent
579.5222	0.1312429182580672	26	systole	12	A	720.7460505647621	coherent
580.1601	0.1312429182580672	26	systole	13	A	720.7460505647621	coherent
580.423	0.1312429182580672	26	systole	14	B	500.0	coherent
580.6876	0.1312429182580672	26	systole	15	A	720.7460505647621	coherent
581.2901	0.1312429182580672	26	systole	16	A	720.7460505647621	coherent
581.553	0.1312429182580672	26	systole	17	B	500.0	coherent
581.8176	0.1312429182580672	26	systole	18	A	720.7460505647621	coherent
582.3801	0.1312429182580672	26	systole	19	A	720.7460505647621	coherent
582.643	0.1312429182580672	26	systole	20	B	500.0	coherent
582.9076	0.1312429182580672	26	systole	21	A	720.7460505647621	coherent
583.4701	0.1312429182580672	26	systole	22	A	720.7460505647621	coherent
583.733	0.1312429182580672	26	systole	23	B	500.0	coherent
583.9976	0.1312429182580672	26	systole	24	A	720.7460505647621	coherent
586.601	0.1349879176123067	27	systole	1	A	720.7460505647621	coherent
586.8651	0.1349879176123067	27	systole	2	B	500.0	coherent
587.131	0.1349879176123067	27	systole	3	A	720.7460505647621	coherent
587.651	0.1349879176123067	27	systole	4	A	720.7460505647621	coherent
587.9151	0.1349879176123067	27	systole	5	B	500.0	coherent
588.1809	0.1349879176123067	27	systole	6	A	720.7460505647621	coherent
588.701	0.1349879176123067	27	systole	7	A	720.7460505647621	coherent
588.9651	0.1349879176123067	27	systole	8	B	500.0	coherent
589.2309	0.1349879176123067	27	systole	9	A	720.7460505647621	coherent
589.8093	0.1349879176123067	27	systole	10	A	720.7460505647621	coherent
590.0784	0.1349879176123067	27	systole	11	B	500.0	coherent
590.3492	0.1349879176123067	27	systole	12	A	720.7460505647621	coherent
590.8993	0.1349879176123067	27	systole	13	A	720.7460505647621	coherent
591.1683	0.1349879176123067	27	systole	14	B	500.0	coherent
591.4392	0.1349879176123067	27	systole	15	A	720.7460505647621	coherent
591.8505	0.1349879176123067	27	systole	16	A	720.7460505647621	coherent
592.1147	0.1349879176123067	27	systole	17	B	500.0	coherent
592.3805	0.1349879176123067	27	systole	18	A	720.7460505647621	coherent
592.8183	0.1349879176123067	27	systole	19	A	720.7460505647621	coherent
593.0762	0.1349879176123067	27	systole	20	B	500.0	coherent
593.3359	0.1349879176123067	27	systole	21	A	720.7460505647621	coherent
593.7201	0.1349879176123067	27	systole	22	A	720.7460505647621	coherent
593.9731	0.1349879176123067	27	systole	23	B	500.0	coherent
594.2278	0.1349879176123067	27	systole	24	A	720.7460505647621	coherent
594.6402	0.1349879176123067	27	systole	25	A	720.7460505647621	coherent
594.8932	0.1349879176123067	27	systole	26	B	500.0	coherent
595.1479	0.1349879176123067	27	systole	27	A	720.7460505647621	coherent
595.718	0.1349879176123067	27	systole	28	A	720.7460505647621	coherent
595.976	0.1349879176123067	27	systole	29	B	500.0	coherent
596.2356	0.1349879176123067	27	systole	30	A	720.7460505647621	coherent
599.3356	0.1250166078098118	28	diastole	1	A	1374.6058324966025	streaming
599.5857	0.1250166078098118	28	diastole	2	B	500.0	streaming
599.8357	0.1250166078098118	28	diastole	3	A	1374.6058324966025	streaming
600.4947	0.1250166078098118	28	diastole	4	A	1374.6058324966025	streaming
600.7534	0.1250166078098118	28	diastole	5	B	500.0	streaming
601.012	0.1250166078098118	28	diastole	6	A	1374.6058324966025	streaming
601.7145	0.1250166078098118	28	diastole	7	A	1374.6058324966025	streaming
601.982	0.1250166078098118	28	diastole	8	B	500.0	streaming
602.2494	0.1250166078098118	28	diastole	9	A	1374.6058324966025	streaming
602.8846	0.1250166078098118	28	diastole	10	A	1374.6058324966025	streaming
603.1521	0.1250166078098118	28	diastole	11	B	500.0	streaming
603.4195	0.1250166078098118	28	diastole	12	A	1374.6058324966025	streaming
604.0646	0.1250166078098118	28	diastole	13	A	1374.6058324966025	streaming
604.3322	0.1250166078098118	28	diastole	14	B	500.0	streaming
604.5996	0.1250166078098118	28	diastole	15	A	1374.6058324966025	streaming
605.2448	0.1250166078098118	28	diastole	16	A	1374.6058324966025	streaming
605.5123	0.1250166078098118	28	diastole	17	B	500.0	streaming
605.7797	0.1250166078098118	28	diastole	18	A	1374.6058324966025	streaming
606.4005	0.1250166078098118	28	diastole	19	A	1374.6058324966025	streaming
606.6743	0.1250166078098118	28	diastole	20	B	500.0	streaming
606.948	0.1250166078098118	28	diastole	21	A	1374.6058324966025	streaming
607.4205	0.1250166078098118	28	diastole	22	A	1374.6058324966025	streaming
607.6943	0.1250166078098118	28	diastole	23	B	500.0	streaming
607.968	0.1250166078098118	28	diastole	24	A	1374.6058324966025	streaming
611.6444	0.1393802093807608	29	diastole	1	A	928.8333655934664	coherent
611.9203	0.1393802093807608	29	diastole	2	B	500.0	coherent
612.1969	0.1393802093807608	29	diastole	3	A	928.8333655934664	coherent
612.6964	0.1393802093807608	29	diastole	4	A	928.8333655934664	coherent
612.9672	0.1393802093807608	29	diastole	5	B	500.0	coherent
613.2389	0.1393802093807608	29	diastole	6	A	928.8333655934664	coherent
613.7765	0.1393802093807608	29	diastole	7	A	928.8333655934664	coherent
614.0474	0.1393802093807608	29	diastole	8	B	500.0	coherent
614.3191	0.1393802093807608	29	diastole	9	A	928.8333655934664	coherent
614.8567	0.1393802093807608	29	diastole	10	A	928.8333655934664	coherent
615.1275	0.1393802093807608	29	diastole	11	B	500.0	coherent
615.3992	0.1393802093807608	29	diastole	12	A	928.8333655934664	coherent
616.025	0.1393802093807608	29	diastole	13	A	928.8333655934664	coherent
616.3008	0.1393802093807608	29	diastole	14	B	500.0	coherent
616.5775	0.1393802093807608	29	diastole	15	A	928.8333655934664	coherent
617.165	0.1393802093807608	29	diastole	16	A	928.8333655934664	coherent
617.4409	0.1393802093807608	29	diastole	17	B	500.0	coherent
617.7175	0.1393802093807608	29	diastole	18	A	928.8333655934664	coherent
618.0585	0.1393802093807608	29	diastole	19	A	928.8333655934664	coherent
618.3244	0.1393802093807608	29	diastole	20	B	500.0	coherent
618.5911	0.1393802093807608	29	diastole	21	A	928.8333655934664	coherent
619.0185	0.1393802093807608	29	diastole	22	A	928.8333655934664	coherent
619.2844	0.1393802093807608	29	diastole	23	B	500.0	coherent
619.5511	0.1393802093807608	29	diastole	24	A	928.8333655934664	coherent
621.7588	0.1331372302956879	30	systole	1	A	720.7460505647621	coherent
622.0305	0.1331372302956879	30	systole	2	B	500.0	coherent
622.3039	0.1331372302956879	30	systole	3	A	720.7460505647621	coherent
622.7513	0.1331372302956879	30	systole	4	A	720.7460505647621	coherent
623.0154	0.1331372302956879	30	systole	5	B	500.0	coherent
623.2813	0.1331372302956879	30	systole	6	A	720.7460505647621	coherent
623.7713	0.1331372302956879	30	systole	7	A	720.7460505647621	coherent
624.0354	0.1331372302956879	30	systole	8	B	500.0	coherent
624.3013	0.1331372302956879	30	systole	9	A	720.7460505647621	coherent
624.7913	0.1331372302956879	30	systole	10	A	720.7460505647621	coherent
625.0554	0.1331372302956879	30	systole	11	B	500.0	coherent
625.3213	0.1331372302956879	30	systole	12	A	720.7460505647621	coherent
625.5837	0.1331372302956879	30	systole	13	A	720.7460505647621	coherent
625.8376	0.1331372302956879	30	systole	14	B	500.0	coherent
626.0932	0.1331372302956879	30	systole	15	A	720.7460505647621	coherent
626.4137	0.1331372302956879	30	systole	16	A	720.7460505647621	coherent
626.6675	0.1331372302956879	30	systole	17	B	500.0	coherent
626.9232	0.1331372302956879	30	systole	18	A	720.7460505647621	coherent
627.2436	0.1331372302956879	30	systole	19	A	720.7460505647621	coherent
627.4975	0.1331372302956879	30	systole	20	B	500.0	coherent
627.7531	0.1331372302956879	30	systole	21	A	720.7460505647621	coherent
628.2938	0.1331372302956879	30	systole	22	A	720.7460505647621	coherent
628.5504	0.1331372302956879	30	systole	23	B	500.0	coherent
628.8088	0.1331372302956879	30	systole	24	A	720.7460505647621	coherent
629.3283	0.1331372302956879	30	systole	25	A	720.7460505647621	coherent
629.5862	0.1331372302956879	30	systole	26	B	500.0	coherent
629.8458	0.1331372302956879	30	systole	27	A	720.7460505647621	coherent
630.3583	0.1331372302956879	30	systole	28	A	720.7460505647621	coherent
630.6162	0.1331372302956879	30	systole	29	B	500.0	coherent
630.8758	0.1331372302956879	30	systole	30	A	720.7460505647621	coherent
633.1759	0.1306272617657669	31	systole	1	A	720.7460505647621	coherent
633.4412	0.1306272617657669	31	systole	2	B	500.0	coherent
633.7083	0.1306272617657669	31	systole	3	A	720.7460505647621	coherent
634.3059	0.1306272617657669	31	systole	4	A	720.7460505647621	coherent
634.5713	0.1306272617657669	31	systole	5	B	500.0	coherent
634.8384	0.1306272617657669	31	systole	6	A	720.7460505647621	coherent
635.306	0.1306272617657669	31	systole	7	A	720.7460505647621	coherent
635.5714	0.1306272617657669	31	systole	8	B	500.0	coherent
635.8385	0.1306272617657669	31	systole	9	A	720.7460505647621	coherent
636.5119	0.1306272617657669	31	systole	10	A	720.7460505647621	coherent
636.7897	0.1306272617657669	31	systole	11	B	500.0	coherent
637.0693	0.1306272617657669	31	systole	12	A	720.7460505647621	coherent
637.6718	0.1306272617657669	31	systole	13	A	720.7460505647621	coherent
637.9497	0.1306272617657669	31	systole	14	B	500.0	coherent
638.2293	0.1306272617657669	31	systole	15	A	720.7460505647621	coherent
638.6934	0.1306272617657669	31	systole	16	A	720.7460505647621	coherent
638.9663	0.1306272617657669	31	systole	17	B	500.0	coherent
639.2409	0.1306272617657669	31	systole	18	A	720.7460505647621	coherent
639.815	0.1306272617657669	31	systole	19	A	720.7460505647621	coherent
640.0879	0.1306272617657669	31	systole	20	B	500.0	coherent
640.3626	0.1306272617657669	31	systole	21	A	720.7460505647621	coherent
640.7759	0.1306272617657669	31	systole	22	A	720.7460505647621	coherent
641.0413	0.1306272617657669	31	systole	23	B	500.0	coherent
641.3084	0.1306272617657669	31	systole	24	A	720.7460505647621	coherent
641.7644	0.1306272617657669	31	systole	25	A	720.7460505647621	coherent
642.0297	0.1306272617657669	31	systole	26	B	500.0	coherent
642.2969	0.1306272617657669	31	systole	27	A	720.7460505647621	coherent
644.7712	0.132499644823838	32	systole	1	A	737.5583956554606	coherent
645.0354	0.132499644823838	32	systole	2	B	500.0	coherent
645.3012	0.132499644823838	32	systole	3	A	737.5583956554606	coherent
645.7612	0.132499644823838	32	systole	4	A	737.5583956554606	coherent
646.0254	0.132499644823838	32	systole	5	B	500.0	coherent
646.2912	0.132499644823838	32	systole	6	A	737.5583956554606	coherent
646.7512	0.132499644823838	32	systole	7	A	737.5583956554606	coherent
647.0154	0.132499644823838	32	systole	8	B	500.0	coherent
647.2812	0.132499644823838	32	systole	9	A	737.5583956554606	coherent
647.8712	0.132499644823838	32	systole	10	A	737.5583956554606	coherent
648.1354	0.132499644823838	32	systole	11	B	500.0	coherent
648.4012	0.132499644823838	32	systole	12	A	737.5583956554606	coherent
648.9358	0.132499644823838	32	systole	13	A	737.5583956554606	coherent
649.2012	0.132499644823838	32	systole	14	B	500.0	coherent
649.4683	0.132499644823838	32	systole	15	A	737.5583956554606	coherent
649.9958	0.132499644823838	32	systole	16	A	737.5583956554606	coherent
650.2612	0.132499644823838	32	systole	17	B	500.0	coherent
650.5283	0.132499644823838	32	systole	18	A	737.5583956554606	coherent
651.135	0.132499644823838	32	systole	19	A	737.5583956554606	coherent
651.4029	0.132499644823838	32	systole	20	B	500.0	coherent
651.6725	0.132499644823838	32	systole	21	A	737.5583956554606	coherent
652.1304	0.132499644823838	32	systole	22	A	737.5583956554606	coherent
652.3971	0.132499644823838	32	systole	23	B	500.0	coherent
652.6654	0.132499644823838	32	systole	24	A	737.5583956554606	coherent
653.2751	0.132499644823838	32	systole	25	A	737.5583956554606	coherent
653.543	0.132499644823838	32	systole	26	B	500.0	coherent
653.8126	0.132499644823838	32	systole	27	A	737.5583956554606	coherent
654.4151	0.132499644823838	32	systole	28	A	737.5583956554606	coherent
654.6831	0.132499644823838	32	systole	29	B	500.0	coherent
654.9526	0.132499644823838	32	systole	30	A	737.5583956554606	coherent
657.8589	0.1356268561794422	33	systole	1	A	737.5583956554606	coherent
658.1306	0.1356268561794422	33	systole	2	B	500.0	coherent
658.4039	0.1356268561794422	33	systole	3	A	737.5583956554606	coherent
658.9535	0.1356268561794422	33	systole	4	A	737.5583956554606	coherent
659.2264	0.1356268561794422	33	systole	5	B	500.0	coherent
659.501	0.1356268561794422	33	systole	6	A	737.5583956554606	coherent
660.0388	0.1356268561794422	33	systole	7	A	737.5583956554606	coherent
660.3105	0.1356268561794422	33	systole	8	B	500.0	coherent
660.5838	0.1356268561794422	33	systole	9	A	737.5583956554606	coherent
660.9989	0.1356268561794422	33	systole	10	A	737.5583956554606	coherent
661.2706	0.1356268561794422	33	systole	11	B	500.0	coherent
661.5439	0.1356268561794422	33	systole	12	A	737.5583956554606	coherent
662.1133	0.1356268561794422	33	systole	13	A	737.5583956554606	coherent
662.3863	0.1356268561794422	33	systole	14	B	500.0	coherent
662.6608	0.1356268561794422	33	systole	15	A	737.5583956554606	coherent
663.1387	0.1356268561794422	33	systole	16	A	737.5583956554606	coherent
663.4104	0.1356268561794422	33	systole	17	B	500.0	coherent
663.6837	0.1356268561794422	33	systole	18	A	737.5583956554606	coherent
664.1687	0.1356268561794422	33	systole	19	A	737.5583956554606	coherent
664.4404	0.1356268561794422	33	systole	20	B	500.0	coherent
664.7137	0.1356268561794422	33	systole	21	A	737.5583956554606	coherent
665.174	0.1356268561794422	33	systole	22	A	737.5583956554606	coherent
665.4445	0.1356268561794422	33	systole	23	B	500.0	coherent
665.7165	0.1356268561794422	33	systole	24	A	737.5583956554606	coherent
666.1839	0.1356268561794422	33	systole	25	A	737.5583956554606	coherent
666.4544	0.1356268561794422	33	systole	26	B	500.0	coherent
666.7264	0.1356268561794422	33	systole	27	A	737.5583956554606	coherent
667.2139	0.1356268561794422	33	systole	28	A	737.5583956554606	coherent
667.4843	0.1356268561794422	33	systole	29	B	500.0	coherent
667.7564	0.1356268561794422	33	systole	30	A	737.5583956554606	coherent
670.3136	0.1312516749021597	34	systole	1	A	737.5583956554606	coherent
670.5703	0.1312516749021597	34	systole	2	B	500.0	coherent
670.8286	0.1312516749021597	34	systole	3	A	737.5583956554606	coherent
671.2636	0.1312516749021597	34	systole	4	A	737.5583956554606	coherent
671.5203	0.1312516749021597	34	systole	5	B	500.0	coherent
671.7787	0.1312516749021597	34	systole	6	A	737.5583956554606	coherent
672.372	0.1312516749021597	34	systole	7	A	737.5583956554606	coherent
672.6336	0.1312516749021597	34	systole	8	B	500.0	coherent
672.897	0.1312516749021597	34	systole	9	A	737.5583956554606	coherent
673.4619	0.1312516749021597	34	systole	10	A	737.5583956554606	coherent
673.7236	0.1312516749021597	34	systole	11	B	500.0	coherent
673.9869	0.1312516749021597	34	systole	12	A	737.5583956554606	coherent
674.4722	0.1312516749021597	34	systole	13	A	737.5583956554606	coherent
674.7339	0.1312516749021597	34	systole	14	B	500.0	coherent
674.9972	0.1312516749021597	34	systole	15	A	737.5583956554606	coherent
675.4825	0.1312516749021597	34	systole	16	A	737.5583956554606	coherent
675.7441	0.1312516749021597	34	systole	17	B	500.0	coherent
676.0075	0.1312516749021597	34	systole	18	A	737.5583956554606	coherent
676.4927	0.1312516749021597	34	systole	19	A	737.5583956554606	coherent
676.7544	0.1312516749021597	34	systole	20	B	500.0	coherent
677.0177	0.1312516749021597	34	systole	21	A	737.5583956554606	coherent
677.6498	0.1312516749021597	34	systole	22	A	737.5583956554606	coherent
677.919	0.1312516749021597	34	systole	23	B	500.0	coherent
678.1898	0.1312516749021597	34	systole	24	A	737.5583956554606	coherent
678.6698	0.1312516749021597	34	systole	25	A	737.5583956554606	coherent
678.9389	0.1312516749021597	34	systole	26	B	500.0	coherent
679.2098	0.1312516749021597	34	systole	27	A	737.5583956554606	coherent
679.6897	0.1312516749021597	34	systole	28	A	737.5583956554606	coherent
679.9589	0.1312516749021597	34	systole	29	B	500.0	coherent
680.2297	0.1312516749021597	34	systole	30	A	737.5583956554606	coherent
682.9237	0.1337309749796986	35	systole	1	A	754.7629107028698	coherent
683.1803	0.1337309749796986	35	systole	2	B	500.0	coherent
683.4386	0.1337309749796986	35	systole	3	A	754.7629107028698	coherent
683.7137	0.1337309749796986	35	systole	4	A	754.7629107028698	coherent
683.9704	0.1337309749796986	35	systole	5	B	500.0	coherent
684.2286	0.1337309749796986	35	systole	6	A	754.7629107028698	coherent
684.6602	0.1337309749796986	35	systole	7	A	754.7629107028698	coherent
684.9132	0.1337309749796986	35	systole	8	B	500.0	coherent
685.1678	0.1337309749796986	35	systole	9	A	754.7629107028698	coherent
685.62	0.1337309749796986	35	systole	10	A	754.7629107028698	coherent
685.8731	0.1337309749796986	35	systole	11	B	500.0	coherent
686.1276	0.1337309749796986	35	systole	12	A	754.7629107028698	coherent
686.6401	0.1337309749796986	35	systole	13	A	754.7629107028698	coherent
686.8931	0.1337309749796986	35	systole	14	B	500.0	coherent
687.1477	0.1337309749796986	35	systole	15	A	754.7629107028698	coherent
687.6801	0.1337309749796986	35	systole	16	A	754.7629107028698	coherent
687.9331	0.1337309749796986	35	systole	17	B	500.0	coherent
688.1877	0.1337309749796986	35	systole	18	A	754.7629107028698	coherent
688.72	0.1337309749796986	35	systole	19	A	754.7629107028698	coherent
688.9731	0.1337309749796986	35	systole	20	B	500.0	coherent
689.2277	0.1337309749796986	35	systole	21	A	754.7629107028698	coherent
689.82	0.1337309749796986	35	systole	22	A	754.7629107028698	coherent
690.073	0.1337309749796986	35	systole	23	B	500.0	coherent
690.3276	0.1337309749796986	35	systole	24	A	754.7629107028698	coherent
690.6962	0.1337309749796986	35	systole	25	A	754.7629107028698	coherent
690.9454	0.1337309749796986	35	systole	26	B	500.0	coherent
691.1962	0.1337309749796986	35	systole	27	A	754.7629107028698	coherent
691.5863	0.1337309749796986	35	systole	28	A	754.7629107028698	coherent
691.8355	0.1337309749796986	35	systole	29	B	500.0	coherent
692.0863	0.1337309749796986	35	systole	30	A	754.7629107028698	coherent
696.6124	0.1300071222358383	36	diastole	1	A	4999.999999999997	streaming
696.8723	0.1300071222358383	36	diastole	2	B	500.0	streaming
697.1324	0.1300071222358383	36	diastole	3	A	4999.999999999997	streaming
697.7624	0.1300071222358383	36	diastole	4	A	4999.999999999997	streaming
698.0223	0.1300071222358383	36	diastole	5	B	500.0	streaming
698.2824	0.1300071222358383	36	diastole	6	A	4999.999999999997	streaming
698.8194	0.1300071222358383	36	diastole	7	A	4999.999999999997	streaming
699.0806	0.1300071222358383	36	diastole	8	B	500.0	streaming
699.3419	0.1300071222358383	36	diastole	9	A	4999.999999999997	streaming
699.9594	0.1300071222358383	36	diastole	10	A	4999.999999999997	streaming
700.2206	0.1300071222358383	36	diastole	11	B	500.0	streaming
700.4819	0.1300071222358383	36	diastole	12	A	4999.999999999997	streaming
700.9582	0.1300071222358383	36	diastole	13	A	4999.999999999997	streaming
701.2157	0.1300071222358383	36	diastole	14	B	500.0	streaming
701.4732	0.1300071222358383	36	diastole	15	A	4999.999999999997	streaming
702.1194	0.1300071222358383	36	diastole	16	A	4999.999999999997	streaming
702.3806	0.1300071222358383	36	diastole	17	B	500.0	streaming
702.6419	0.1300071222358383	36	diastole	18	A	4999.999999999997	streaming
703.3149	0.1300071222358383	36	diastole	19	A	4999.999999999997	streaming
703.5824	0.1300071222358383	36	diastole	20	B	500.0	streaming
703.85	0.1300071222358383	36	diastole	21	A	4999.999999999997	streaming
704.3094	0.1300071222358383	36	diastole	22	A	4999.999999999997	streaming
704.5706	0.1300071222358383	36	diastole	23	B	500.0	streaming
704.8319	0.1300071222358383	36	diastole	24	A	4999.999999999997	streaming
707.4236	0.1386468415730632	37	diastole	1	A	4999.999999999997	streaming
707.6909	0.1386468415730632	37	diastole	2	B	500.0	streaming
707.9582	0.1386468415730632	37	diastole	3	A	4999.999999999997	streaming
708.4837	0.1386468415730632	37	diastole	4	A	4999.999999999997	streaming
708.751	0.1386468415730632	37	diastole	5	B	500.0	streaming
709.0183	0.1386468415730632	37	diastole	6	A	4999.999999999997	streaming
709.6904	0.1386468415730632	37	diastole	7	A	4999.999999999997	streaming
709.9676	0.1386468415730632	37	diastole	8	B	500.0	streaming
710.245	0.1386468415730632	37	diastole	9	A	4999.999999999997	streaming
710.7104	0.1386468415730632	37	diastole	10	A	4999.999999999997	streaming
710.9876	0.1386468415730632	37	diastole	11	B	500.0	streaming
711.265	0.1386468415730632	37	diastole	12	A	4999.999999999997	streaming
711.6638	0.1386468415730632	37	diastole	13	A	4999.999999999997	streaming
711.9311	0.1386468415730632	37	diastole	14	B	500.0	streaming
712.1984	0.1386468415730632	37	diastole	15	A	4999.999999999997	streaming
712.8603	0.1386468415730632	37	diastole	16	A	4999.999999999997	streaming
713.1375	0.1386468415730632	37	diastole	17	B	500.0	streaming
713.4148	0.1386468415730632	37	diastole	18	A	4999.999999999997	streaming
713.932	0.1386468415730632	37	diastole	19	A	4999.999999999997	streaming
714.2043	0.1386468415730632	37	diastole	20	B	500.0	streaming
714.4766	0.1386468415730632	37	diastole	21	A	4999.999999999997	streaming
715.1315	0.1386468415730632	37	diastole	22	A	4999.999999999997	streaming
715.409	0.1386468415730632	37	diastole	23	B	500.0	streaming
715.6865	0.1386468415730632	37	diastole	24	A	4999.999999999997	streaming
716.172	0.1386468415730632	37	diastole	25	A	4999.999999999997	streaming
716.4443	0.1386468415730632	37	diastole	26	B	500.0	streaming
716.7166	0.1386468415730632	37	diastole	27	A	4999.999999999997	streaming
720.6471	0.1374960090615786	38	diastole	1	A	4999.999999999997	coherent
720.922	0.1374960090615786	38	diastole	2	B	500.0	coherent
721.1971	0.1374960090615786	38	diastole	3	A	4999.999999999997	coherent
721.6771	0.1374960090615786	38	diastole	4	A	4999.999999999997	coherent
721.9521	0.1374960090615786	38	diastole	5	B	500.0	coherent
722.2271	0.1374960090615786	38	diastole	6	A	4999.999999999997	coherent
722.8113	0.1374960090615786	38	diastole	7	A	4999.999999999997	coherent
723.0888	0.1374960090615786	38	diastole	8	B	500.0	coherent
723.3663	0.1374960090615786	38	diastole	9	A	4999.999999999997	coherent
723.7771	0.1374960090615786	38	diastole	10	A	4999.999999999997	coherent
724.052	0.1374960090615786	38	diastole	11	B	500.0	coherent
724.327	0.1374960090615786	38	diastole	12	A	4999.999999999997	coherent
724.9172	0.1374960090615786	38	diastole	13	A	4999.999999999997	coherent
725.1922	0.1374960090615786	38	diastole	14	B	500.0	coherent
725.4672	0.1374960090615786	38	diastole	15	A	4999.999999999997	coherent
726.0574	0.1374960090615786	38	diastole	16	A	4999.999999999997	coherent
726.3323	0.1374960090615786	38	diastole	17	B	500.0	coherent
726.6073	0.1374960090615786	38	diastole	18	A	4999.999999999997	coherent
727.0631	0.1374960090615786	38	diastole	19	A	4999.999999999997	coherent
727.3355	0.1374960090615786	38	diastole	20	B	500.0	coherent
727.6081	0.1374960090615786	38	diastole	21	A	4999.999999999997	coherent
728.2319	0.1374960090615786	38	diastole	22	A	4999.999999999997	coherent
728.5094	0.1374960090615786	38	diastole	23	B	500.0	coherent
728.7869	0.1374960090615786	38	diastole	24	A	4999.999999999997	coherent
732.7958	0.1412612696876749	39	diastole	1	A	950.4996196948616	coherent
733.0755	0.1412612696876749	39	diastole	2	B	500.0	coherent
733.3559	0.1412612696876749	39	diastole	3	A	950.4996196948616	coherent
733.8655	0.1412612696876749	39	diastole	4	A	950.4996196948616	coherent
734.1451	0.1412612696876749	39	diastole	5	B	500.0	coherent
734.4255	0.1412612696876749	39	diastole	6	A	950.4996196948616	coherent
735.044	0.1412612696876749	39	diastole	7	A	950.4996196948616	coherent
735.3287	0.1412612696876749	39	diastole	8	B	500.0	coherent
735.6141	0.1412612696876749	39	diastole	9	A	950.4996196948616	coherent
736.0541	0.1412612696876749	39	diastole	10	A	950.4996196948616	coherent
736.3388	0.1412612696876749	39	diastole	11	B	500.0	coherent
736.6242	0.1412612696876749	39	diastole	12	A	950.4996196948616	coherent
737.0641	0.1412612696876749	39	diastole	13	A	950.4996196948616	coherent
737.3488	0.1412612696876749	39	diastole	14	B	500.0	coherent
737.6343	0.1412612696876749	39	diastole	15	A	950.4996196948616	coherent
738.2143	0.1412612696876749	39	diastole	16	A	950.4996196948616	coherent
738.499	0.1412612696876749	39	diastole	17	B	500.0	coherent
738.7845	0.1412612696876749	39	diastole	18	A	950.4996196948616	coherent
739.3643	0.1412612696876749	39	diastole	19	A	950.4996196948616	coherent
739.649	0.1412612696876749	39	diastole	20	B	500.0	coherent
739.9345	0.1412612696876749	39	diastole	21	A	950.4996196948616	coherent
740.4514	0.1412612696876749	39	diastole	22	A	950.4996196948616	coherent
740.7285	0.1412612696876749	39	diastole	23	B	500.0	coherent
741.0064	0.1412612696876749	39	diastole	24	A	950.4996196948616	coherent
744.762	0.1387564365868456	40	diastole	1	A	972.6712675344384	streaming
745.0354	0.1387564365868456	40	diastole	2	B	500.0	streaming
745.3095	0.1387564365868456	40	diastole	3	A	972.6712675344384	streaming
745.7837	0.1387564365868456	40	diastole	4	A	972.6712675344384	streaming
746.0571	0.1387564365868456	40	diastole	5	B	500.0	streaming
746.3312	0.1387564365868456	40	diastole	6	A	972.6712675344384	streaming
746.9079	0.1387564365868456	40	diastole	7	A	972.6712675344384	streaming
747.1838	0.1387564365868456	40	diastole	8	B	500.0	streaming
747.4604	0.1387564365868456	40	diastole	9	A	972.6712675344384	streaming
747.9479	0.1387564365868456	40	diastole	10	A	972.6712675344384	streaming
748.2238	0.1387564365868456	40	diastole	11	B	500.0	streaming
748.5004	0.1387564365868456	40	diastole	12	A	972.6712675344384	streaming
748.9879	0.1387564365868456	40	diastole	13	A	972.6712675344384	streaming
749.2638	0.1387564365868456	40	diastole	14	B	500.0	streaming
749.5404	0.1387564365868456	40	diastole	15	A	972.6712675344384	streaming
750.0279	0.1387564365868456	40	diastole	16	A	972.6712675344384	streaming
750.3038	0.1387564365868456	40	diastole	17	B	500.0	streaming
750.5803	0.1387564365868456	40	diastole	18	A	972.6712675344384	streaming
751.1922	0.1387564365868456	40	diastole	19	A	972.6712675344384	streaming
751.4707	0.1387564365868456	40	diastole	20	B	500.0	streaming
751.7498	0.1387564365868456	40	diastole	21	A	972.6712675344384	streaming
752.3219	0.1387564365868456	40	diastole	22	A	972.6712675344384	streaming
752.6003	0.1387564365868456	40	diastole	23	B	500.0	streaming
752.8794	0.1387564365868456	40	diastole	24	A	972.6712675344384	streaming
756.0662	0.1412046863115392	41	diastole	1	A	737.5583956554606	coherent
756.3489	0.1412046863115392	41	diastole	2	B	500.0	coherent
756.6332	0.1412046863115392	41	diastole	3	A	737.5583956554606	coherent
757.1361	0.1412046863115392	41	diastole	4	A	737.5583956554606	coherent
757.4188	0.1412046863115392	41	diastole	5	B	500.0	coherent
757.7031	0.1412046863115392	41	diastole	6	A	737.5583956554606	coherent
758.206	0.1412046863115392	41	diastole	7	A	737.5583956554606	coherent
758.4887	0.1412046863115392	41	diastole	8	B	500.0	coherent
758.773	0.1412046863115392	41	diastole	9	A	737.5583956554606	coherent
759.2759	0.1412046863115392	41	diastole	10	A	737.5583956554606	coherent
759.5586	0.1412046863115392	41	diastole	11	B	500.0	coherent
759.8429	0.1412046863115392	41	diastole	12	A	737.5583956554606	coherent
760.4772	0.1412046863115392	41	diastole	13	A	737.5583956554606	coherent
760.7601	0.1412046863115392	41	diastole	14	B	500.0	coherent
761.0447	0.1412046863115392	41	diastole	15	A	737.5583956554606	coherent
761.6772	0.1412046863115392	41	diastole	16	A	737.5583956554606	coherent
761.9601	0.1412046863115392	41	diastole	17	B	500.0	coherent
762.2447	0.1412046863115392	41	diastole	18	A	737.5583956554606	coherent
762.8772	0.1412046863115392	41	diastole	19	A	737.5583956554606	coherent
763.1602	0.1412046863115392	41	diastole	20	B	500.0	coherent
763.4447	0.1412046863115392	41	diastole	21	A	737.5583956554606	coherent
763.8875	0.1412046863115392	41	diastole	22	A	737.5583956554606	coherent
764.1617	0.1412046863115392	41	diastole	23	B	500.0	coherent
764.4374	0.1412046863115392	41	diastole	24	A	737.5583956554606	coherent
765.1073	0.1412046863115392	41	diastole	25	A	737.5583956554606	coherent
765.3902	0.1412046863115392	41	diastole	26	B	500.0	coherent
765.6748	0.1412046863115392	41	diastole	27	A	737.5583956554606	coherent
768.6489	0.1356212001992389	42	systole	1	A	772.3687435845811	coherent
768.9207	0.1356212001992389	42	systole	2	B	500.0	coherent
769.194	0.1356212001992389	42	systole	3	A	772.3687435845811	coherent
769.7589	0.1356212001992389	42	systole	4	A	772.3687435845811	coherent
770.0307	0.1356212001992389	42	systole	5	B	500.0	coherent
770.304	0.1356212001992389	42	systole	6	A	772.3687435845811	coherent
770.7238	0.1356212001992389	42	systole	7	A	772.3687435845811	coherent
770.9943	0.1356212001992389	42	systole	8	B	500.0	coherent
771.2663	0.1356212001992389	42	systole	9	A	772.3687435845811	coherent
771.734	0.1356212001992389	42	systole	10	A	772.3687435845811	coherent
772.0045	0.1356212001992389	42	systole	11	B	500.0	coherent
772.2765	0.1356212001992389	42	systole	12	A	772.3687435845811	coherent
772.7442	0.1356212001992389	42	systole	13	A	772.3687435845811	coherent
773.0147	0.1356212001992389	42	systole	14	B	500.0	coherent
773.2867	0.1356212001992389	42	systole	15	A	772.3687435845811	coherent
773.869	0.1356212001992389	42	systole	16	A	772.3687435845811	coherent
774.1408	0.1356212001992389	42	systole	17	B	500.0	coherent
774.414	0.1356212001992389	42	systole	18	A	772.3687435845811	coherent
774.8542	0.1356212001992389	42	systole	19	A	772.3687435845811	coherent
775.1247	0.1356212001992389	42	systole	20	B	500.0	coherent
775.3967	0.1356212001992389	42	systole	21	A	772.3687435845811	coherent
775.9114	0.1356212001992389	42	systole	22	A	772.3687435845811	coherent
776.1807	0.1356212001992389	42	systole	23	B	500.0	coherent
776.4514	0.1356212001992389	42	systole	24	A	772.3687435845811	coherent
777.0246	0.1356212001992389	42	systole	25	A	772.3687435845811	coherent
777.2952	0.1356212001992389	42	systole	26	B	500.0	coherent
777.5672	0.1356212001992389	42	systole	27	A	772.3687435845811	coherent
781.9398	0.1338647414813749	43	diastole	1	A	737.5583956554606	coherent
782.2125	0.1338647414813749	43	diastole	2	B	500.0	coherent
782.4869	0.1338647414813749	43	diastole	3	A	737.5583956554606	coherent
783.0799	0.1338647414813749	43	diastole	4	A	737.5583956554606	coherent
783.3526	0.1338647414813749	43	diastole	5	B	500.0	coherent
783.627	0.1338647414813749	43	diastole	6	A	737.5583956554606	coherent
784.0668	0.1338647414813749	43	diastole	7	A	737.5583956554606	coherent
784.3337	0.1338647414813749	43	diastole	8	B	500.0	coherent
784.6022	0.1338647414813749	43	diastole	9	A	737.5583956554606	coherent
785.1939	0.1338647414813749	43	diastole	10	A	737.5583956554606	coherent
785.4656	0.1338647414813749	43	diastole	11	B	500.0	coherent
785.7389	0.1338647414813749	43	diastole	12	A	737.5583956554606	coherent
786.2139	0.1338647414813749	43	diastole	13	A	737.5583956554606	coherent
786.4856	0.1338647414813749	43	diastole	14	B	500.0	coherent
786.7589	0.1338647414813749	43	diastole	15	A	737.5583956554606	coherent
787.2338	0.1338647414813749	43	diastole	16	A	737.5583956554606	coherent
787.5055	0.1338647414813749	43	diastole	17	B	500.0	coherent
787.7788	0.1338647414813749	43	diastole	18	A	737.5583956554606	coherent
788.1471	0.1338647414813749	43	diastole	19	A	737.5583956554606	coherent
788.4088	0.1338647414813749	43	diastole	20	B	500.0	coherent
788.6721	0.1338647414813749	43	diastole	21	A	737.5583956554606	coherent
789.1671	0.1338647414813749	43	diastole	22	A	737.5583956554606	coherent
789.4288	0.1338647414813749	43	diastole	23	B	500.0	coherent
789.6921	0.1338647414813749	43	diastole	24	A	737.5583956554606	coherent
790.1871	0.1338647414813749	43	diastole	25	A	737.5583956554606	coherent
790.4487	0.1338647414813749	43	diastole	26	B	500.0	coherent
790.7121	0.1338647414813749	43	diastole	27	A	737.5583956554606	coherent
793.9479	0.1312518817721866	44	systole	1	A	4999.999999999997	coherent
794.2067	0.1312518817721866	44	systole	2	B	500.0	coherent
794.4655	0.1312518817721866	44	systole	3	A	4999.999999999997	coherent
794.9883	0.1312518817721866	44	systole	4	A	4999.999999999997	coherent
795.2471	0.1312518817721866	44	systole	5	B	500.0	coherent
795.5059	0.1312518817721866	44	systole	6	A	4999.999999999997	coherent
796.018	0.1312518817721866	44	systole	7	A	4999.999999999997	coherent
796.2767	0.1312518817721866	44	systole	8	B	500.0	coherent
796.5356	0.1312518817721866	44	systole	9	A	4999.999999999997	coherent
796.8331	0.1312518817721866	44	systole	10	A	4999.999999999997	coherent
797.0905	0.1312518817721866	44	systole	11	B	500.0	coherent
797.348	0.1312518817721866	44	systole	12	A	4999.999999999997	coherent
797.653	0.1312518817721866	44	systole	13	A	4999.999999999997	coherent
797.9105	0.1312518817721866	44	systole	14	B	500.0	coherent
798.168	0.1312518817721866	44	systole	15	A	4999.999999999997	coherent
798.473	0.1312518817721866	44	systole	16	A	4999.999999999997	coherent
798.7304	0.1312518817721866	44	systole	17	B	500.0	coherent
798.988	0.1312518817721866	44	systole	18	A	4999.999999999997	coherent
799.6359	0.1312518817721866	44	systole	19	A	4999.999999999997	coherent
799.8947	0.1312518817721866	44	systole	20	B	500.0	coherent
800.1535	0.1312518817721866	44	systole	21	A	4999.999999999997	coherent
800.7939	0.1312518817721866	44	systole	22	A	4999.999999999997	coherent
801.0527	0.1312518817721866	44	systole	23	B	500.0	coherent
801.3115	0.1312518817721866	44	systole	24	A	4999.999999999997	coherent
801.7941	0.1312518817721866	44	systole	25	A	4999.999999999997	coherent
802.0529	0.1312518817721866	44	systole	26	B	500.0	coherent
802.3117	0.1312518817721866	44	systole	27	A	4999.999999999997	coherent
802.7946	0.1312518817721866	44	systole	28	A	4999.999999999997	coherent
803.0533	0.1312518817721866	44	systole	29	B	500.0	coherent
803.3121	0.1312518817721866	44	systole	30	A	4999.999999999997	coherent
806.227	0.1301063587889075	45	systole	1	A	772.3687435845811	streaming
806.4928	0.1301063587889075	45	systole	2	B	500.0	streaming
806.7601	0.1301063587889075	45	systole	3	A	772.3687435845811	streaming
807.247	0.1301063587889075	45	systole	4	A	772.3687435845811	streaming
807.5128	0.1301063587889075	45	systole	5	B	500.0	streaming
807.7801	0.1301063587889075	45	systole	6	A	772.3687435845811	streaming
808.3688	0.1301063587889075	45	systole	7	A	772.3687435845811	streaming
808.6406	0.1301063587889075	45	systole	8	B	500.0	streaming
808.9139	0.1301063587889075	45	systole	9	A	772.3687435845811	streaming
809.4288	0.1301063587889075	45	systole	10	A	772.3687435845811	streaming
809.7006	0.1301063587889075	45	systole	11	B	500.0	streaming
809.9738	0.1301063587889075	45	systole	12	A	772.3687435845811	streaming
810.4887	0.1301063587889075	45	systole	13	A	772.3687435845811	streaming
810.7605	0.1301063587889075	45	systole	14	B	500.0	streaming
811.0338	0.1301063587889075	45	systole	15	A	772.3687435845811	streaming
811.5104	0.1301063587889075	45	systole	16	A	772.3687435845811	streaming
811.7772	0.1301063587889075	45	systole	17	B	500.0	streaming
812.0454	0.1301063587889075	45	systole	18	A	772.3687435845811	streaming
812.5504	0.1301063587889075	45	systole	19	A	772.3687435845811	streaming
812.8172	0.1301063587889075	45	systole	20	B	500.0	streaming
813.0854	0.1301063587889075	45	systole	21	A	772.3687435845811	streaming
813.5904	0.1301063587889075	45	systole	22	A	772.3687435845811	streaming
813.8572	0.1301063587889075	45	systole	23	B	500.0	streaming
814.1254	0.1301063587889075	45	systole	24	A	772.3687435845811	streaming
814.6019	0.1301063587889075	45	systole	25	A	772.3687435845811	streaming
814.8637	0.1301063587889075	45	systole	26	B	500.0	streaming
815.1269	0.1301063587889075	45	systole	27	A	772.3687435845811	streaming
818.4984	0.1312480697524733	46	diastole	1	A	754.7629107028698	coherent
818.7638	0.1312480697524733	46	diastole	2	B	500.0	coherent
819.0308	0.1312480697524733	46	diastole	3	A	754.7629107028698	coherent
819.5883	0.1312480697524733	46	diastole	4	A	754.7629107028698	coherent
819.8538	0.1312480697524733	46	diastole	5	B	500.0	coherent
820.1208	0.1312480697524733	46	diastole	6	A	754.7629107028698	coherent
820.5069	0.1312480697524733	46	diastole	7	A	754.7629107028698	coherent
820.7686	0.1312480697524733	46	diastole	8	B	500.0	coherent
821.0319	0.1312480697524733	46	diastole	9	A	754.7629107028698	coherent
821.6141	0.1312480697524733	46	diastole	10	A	754.7629107028698	coherent
821.8771	0.1312480697524733	46	diastole	11	B	500.0	coherent
822.1416	0.1312480697524733	46	diastole	12	A	754.7629107028698	coherent
822.6443	0.1312480697524733	46	diastole	13	A	754.7629107028698	coherent
822.9073	0.1312480697524733	46	diastole	14	B	500.0	coherent
823.1719	0.1312480697524733	46	diastole	15	A	754.7629107028698	coherent
823.6746	0.1312480697524733	46	diastole	16	A	754.7629107028698	coherent
823.9376	0.1312480697524733	46	diastole	17	B	500.0	coherent
824.2021	0.1312480697524733	46	diastole	18	A	754.7629107028698	coherent
824.6233	0.1312480697524733	46	diastole	19	A	754.7629107028698	coherent
824.8825	0.1312480697524733	46	diastole	20	B	500.0	coherent
825.1433	0.1312480697524733	46	diastole	21	A	754.7629107028698	coherent
825.7023	0.1312480697524733	46	diastole	22	A	754.7629107028698	coherent
825.9665	0.1312480697524733	46	diastole	23	B	500.0	coherent
826.2324	0.1312480697524733	46	diastole	24	A	754.7629107028698	coherent
826.7526	0.1312480697524733	46	diastole	25	A	754.7629107028698	coherent
827.0169	0.1312480697524733	46	diastole	26	B	500.0	coherent
827.2827	0.1312480697524733	46	diastole	27	A	754.7629107028698	coherent
830.5255	0.1337718045688234	47	systole	1	A	642.2610321338576	coherent
830.7894	0.1337718045688234	47	systole	2	B	500.0	coherent
831.053	0.1337718045688234	47	systole	3	A	642.2610321338576	coherent
831.5852	0.1337718045688234	47	systole	4	A	642.2610321338576	coherent
831.8491	0.1337718045688234	47	systole	5	B	500.0	coherent
832.1127	0.1337718045688234	47	systole	6	A	642.2610321338576	coherent
832.7537	0.1337718045688234	47	systole	7	A	642.2610321338576	coherent
833.0225	0.1337718045688234	47	systole	8	B	500.0	coherent
833.2911	0.1337718045688234	47	systole	9	A	642.2610321338576	coherent
833.7752	0.1337718045688234	47	systole	10	A	642.2610321338576	coherent
834.0391	0.1337718045688234	47	systole	11	B	500.0	coherent
834.3027	0.1337718045688234	47	systole	12	A	642.2610321338576	coherent
834.8148	0.1337718045688234	47	systole	13	A	642.2610321338576	coherent
835.0787	0.1337718045688234	47	systole	14	B	500.0	coherent
835.3423	0.1337718045688234	47	systole	15	A	642.2610321338576	coherent
835.9089	0.1337718045688234	47	systole	16	A	642.2610321338576	coherent
836.1765	0.1337718045688234	47	systole	17	B	500.0	coherent
836.4438	0.1337718045688234	47	systole	18	A	642.2610321338576	coherent
836.884	0.1337718045688234	47	systole	19	A	642.2610321338576	coherent
837.1503	0.1337718045688234	47	systole	20	B	500.0	coherent
837.4163	0.1337718045688234	47	systole	21	A	642.2610321338576	coherent
837.9943	0.1337718045688234	47	systole	22	A	642.2610321338576	coherent
838.2606	0.1337718045688234	47	systole	23	B	500.0	coherent
838.5266	0.1337718045688234	47	systole	24	A	642.2610321338576	coherent
839.0691	0.1337718045688234	47	systole	25	A	642.2610321338576	coherent
839.3367	0.1337718045688234	47	systole	26	B	500.0	coherent
839.604	0.1337718045688234	47	systole	27	A	642.2610321338576	coherent
842.1594	0.1337302816682495	48	systole	1	A	657.2426114322549	coherent
842.427	0.1337302816682495	48	systole	2	B	500.0	coherent
842.6943	0.1337302816682495	48	systole	3	A	657.2426114322549	coherent
843.1293	0.1337302816682495	48	systole	4	A	657.2426114322549	coherent
843.3969	0.1337302816682495	48	systole	5	B	500.0	coherent
843.6642	0.1337302816682495	48	systole	6	A	657.2426114322549	coherent
844.0992	0.1337302816682495	48	systole	7	A	657.2426114322549	coherent
844.3668	0.1337302816682495	48	systole	8	B	500.0	coherent
844.6341	0.1337302816682495	48	systole	9	A	657.2426114322549	coherent
845.1201	0.1337302816682495	48	systole	10	A	657.2426114322549	coherent
845.3852	0.1337302816682495	48	systole	11	B	500.0	coherent
845.65	0.1337302816682495	48	systole	12	A	657.2426114322549	coherent
846.1501	0.1337302816682495	48	systole	13	A	657.2426114322549	coherent
846.4152	0.1337302816682495	48	systole	14	B	500.0	coherent
846.68	0.1337302816682495	48	systole	15	A	657.2426114322549	coherent
847.1802	0.1337302816682495	48	systole	16	A	657.2426114322549	coherent
847.4453	0.1337302816682495	48	systole	17	B	500.0	coherent
847.7101	0.1337302816682495	48	systole	18	A	657.2426114322549	coherent
848.1768	0.1337302816682495	48	systole	19	A	657.2426114322549	coherent
848.4382	0.1337302816682495	48	systole	20	B	500.0	coherent
848.6992	0.1337302816682495	48	systole	21	A	657.2426114322549	coherent
849.1871	0.1337302816682495	48	systole	22	A	657.2426114322549	coherent
849.4485	0.1337302816682495	48	systole	23	B	500.0	coherent
849.7095	0.1337302816682495	48	systole	24	A	657.2426114322549	coherent
850.2087	0.1337302816682495	48	systole	25	A	657.2426114322549	coherent
850.4701	0.1337302816682495	48	systole	26	B	500.0	coherent
850.7312	0.1337302816682495	48	systole	27	A	657.2426114322549	coherent
851.3972	0.1337302816682495	48	systole	28	A	657.2426114322549	coherent
851.6635	0.1337302816682495	48	systole	29	B	500.0	coherent
851.9296	0.1337302816682495	48	systole	30	A	657.2426114322549	coherent
855.8277	0.1375044565065764	49	diastole	1	A	772.3687435845811	coherent
856.102	0.1375044565065764	49	diastole	2	B	500.0	coherent
856.3777	0.1375044565065764	49	diastole	3	A	772.3687435845811	coherent
856.9677	0.1375044565065764	49	diastole	4	A	772.3687435845811	coherent
857.2419	0.1375044565065764	49	diastole	5	B	500.0	coherent
857.5177	0.1375044565065764	49	diastole	6	A	772.3687435845811	coherent
858.0276	0.1375044565065764	49	diastole	7	A	772.3687435845811	coherent
858.3019	0.1375044565065764	49	diastole	8	B	500.0	coherent
858.5776	0.1375044565065764	49	diastole	9	A	772.3687435845811	coherent
859.0181	0.1375044565065764	49	diastole	10	A	772.3687435845811	coherent
859.2923	0.1375044565065764	49	diastole	11	B	500.0	coherent
859.5681	0.1375044565065764	49	diastole	12	A	772.3687435845811	coherent
860.0526	0.1375044565065764	49	diastole	13	A	772.3687435845811	coherent
860.3206	0.1375044565065764	49	diastole	14	B	500.0	coherent
860.5901	0.1375044565065764	49	diastole	15	A	772.3687435845811	coherent
861.0426	0.1375044565065764	49	diastole	16	A	772.3687435845811	coherent
861.3107	0.1375044565065764	49	diastole	17	B	500.0	coherent
861.5801	0.1375044565065764	49	diastole	18	A	772.3687435845811	coherent
862.0327	0.1375044565065764	49	diastole	19	A	772.3687435845811	coherent
862.3007	0.1375044565065764	49	diastole	20	B	500.0	coherent
862.5702	0.1375044565065764	49	diastole	21	A	772.3687435845811	coherent
863.2127	0.1375044565065764	49	diastole	22	A	772.3687435845811	coherent
863.4807	0.1375044565065764	49	diastole	23	B	500.0	coherent
863.7502	0.1375044565065764	49	diastole	24	A	772.3687435845811	coherent
866.137	0.1374962250120006	50	systole	1	A	657.2426114322549	coherent
866.4122	0.1374962250120006	50	systole	2	B	500.0	coherent
866.687	0.1374962250120006	50	systole	3	A	657.2426114322549	coherent
867.267	0.1374962250120006	50	systole	4	A	657.2426114322549	coherent
867.5421	0.1374962250120006	50	systole	5	B	500.0	coherent
867.8169	0.1374962250120006	50	systole	6	A	657.2426114322549	coherent
868.227	0.1374962250120006	50	systole	7	A	657.2426114322549	coherent
868.5021	0.1374962250120006	50	systole	8	B	500.0	coherent
868.777	0.1374962250120006	50	systole	9	A	657.2426114322549	coherent
869.328	0.1374962250120006	50	systole	10	A	657.2426114322549	coherent
869.6007	0.1374962250120006	50	systole	11	B	500.0	coherent
869.8731	0.1374962250120006	50	systole	12	A	657.2426114322549	coherent
870.2076	0.1374962250120006	50	systole	13	A	657.2426114322549	coherent
870.4803	0.1374962250120006	50	systole	14	B	500.0	coherent
870.7527	0.1374962250120006	50	systole	15	A	657.2426114322549	coherent
870.9878	0.1374962250120006	50	systole	16	A	657.2426114322549	coherent
871.2605	0.1374962250120006	50	systole	17	B	500.0	coherent
871.5328	0.1374962250120006	50	systole	18	A	657.2426114322549	coherent
871.7679	0.1374962250120006	50	systole	19	A	657.2426114322549	coherent
872.0406	0.1374962250120006	50	systole	20	B	500.0	coherent
872.313	0.1374962250120006	50	systole	21	A	657.2426114322549	coherent
872.8866	0.1374962250120006	50	systole	22	A	657.2426114322549	coherent
873.1481	0.1374962250120006	50	systole	23	B	500.0	coherent
873.4092	0.1374962250120006	50	systole	24	A	657.2426114322549	coherent
874.068	0.1374962250120006	50	systole	25	A	657.2426114322549	coherent
874.3406	0.1374962250120006	50	systole	26	B	500.0	coherent
874.613	0.1374962250120006	50	systole	27	A	657.2426114322549	coherent
875.208	0.1374962250120006	50	systole	28	A	657.2426114322549	coherent
875.4807	0.1374962250120006	50	systole	29	B	500.0	coherent
875.753	0.1374962250120006	50	systole	30	A	657.2426114322549	coherent
878.0269	0.1244763975264504	51	systole	1	A	657.2426114322549	coherent
878.2798	0.1244763975264504	51	systole	2	B	500.0	coherent
878.5323	0.1244763975264504	51	systole	3	A	657.2426114322549	coherent
879.1269	0.1244763975264504	51	systole	4	A	657.2426114322549	coherent
879.3797	0.1244763975264504	51	systole	5	B	500.0	coherent
879.6323	0.1244763975264504	51	systole	6	A	657.2426114322549	coherent
880.0869	0.1244763975264504	51	systole	7	A	657.2426114322549	coherent
880.3421	0.1244763975264504	51	systole	8	B	500.0	coherent
880.597	0.1244763975264504	51	systole	9	A	657.2426114322549	coherent
881.0386	0.1244763975264504	51	systole	10	A	657.2426114322549	coherent
881.2937	0.1244763975264504	51	systole	11	B	500.0	coherent
881.5486	0.1244763975264504	51	systole	12	A	657.2426114322549	coherent
882.0874	0.1244763975264504	51	systole	13	A	657.2426114322549	coherent
882.3509	0.1244763975264504	51	systole	14	B	500.0	coherent
882.6141	0.1244763975264504	51	systole	15	A	657.2426114322549	coherent
883.2102	0.1244763975264504	51	systole	16	A	657.2426114322549	coherent
883.4827	0.1244763975264504	51	systole	17	B	500.0	coherent
883.7548	0.1244763975264504	51	systole	18	A	657.2426114322549	coherent
884.3002	0.1244763975264504	51	systole	19	A	657.2426114322549	coherent
884.5726	0.1244763975264504	51	systole	20	B	500.0	coherent
884.8447	0.1244763975264504	51	systole	21	A	657.2426114322549	coherent
885.2073	0.1244763975264504	51	systole	22	A	657.2426114322549	coherent
885.4708	0.1244763975264504	51	systole	23	B	500.0	coherent
885.734	0.1244763975264504	51	systole	24	A	657.2426114322549	coherent
886.2251	0.1244763975264504	51	systole	25	A	657.2426114322549	coherent
886.4825	0.1244763975264504	51	systole	26	B	500.0	coherent
886.7397	0.1244763975264504	51	systole	27	A	657.2426114322549	coherent
887.341	0.1244763975264504	51	systole	28	A	657.2426114322549	coherent
887.611	0.1244763975264504	51	systole	29	B	500.0	coherent
887.8806	0.1244763975264504	51	systole	30	A	657.2426114322549	coherent
891.7086	0.1350005437270738	52	systole	1	A	672.5736556787729	coherent
891.9788	0.1350005437270738	52	systole	2	B	500.0	coherent
892.2487	0.1350005437270738	52	systole	3	A	672.5736556787729	coherent
892.8286	0.1350005437270738	52	systole	4	A	672.5736556787729	coherent
893.0988	0.1350005437270738	52	systole	5	B	500.0	coherent
893.3686	0.1350005437270738	52	systole	6	A	672.5736556787729	coherent
893.9532	0.1350005437270738	52	systole	7	A	672.5736556787729	coherent
894.2246	0.1350005437270738	52	systole	8	B	500.0	coherent
894.4957	0.1350005437270738	52	systole	9	A	672.5736556787729	coherent
894.9732	0.1350005437270738	52	systole	10	A	672.5736556787729	coherent
895.2447	0.1350005437270738	52	systole	11	B	500.0	coherent
895.5158	0.1350005437270738	52	systole	12	A	672.5736556787729	coherent
895.9933	0.1350005437270738	52	systole	13	A	672.5736556787729	coherent
896.2647	0.1350005437270738	52	systole	14	B	500.0	coherent
896.5358	0.1350005437270738	52	systole	15	A	672.5736556787729	coherent
897.0133	0.1350005437270738	52	systole	16	A	672.5736556787729	coherent
897.2847	0.1350005437270738	52	systole	17	B	500.0	coherent
897.5558	0.1350005437270738	52	systole	18	A	672.5736556787729	coherent
898.0333	0.1350005437270738	52	systole	19	A	672.5736556787729	coherent
898.3047	0.1350005437270738	52	systole	20	B	500.0	coherent
898.5758	0.1350005437270738	52	systole	21	A	672.5736556787729	coherent
899.0533	0.1350005437270738	52	systole	22	A	672.5736556787729	coherent
899.3247	0.1350005437270738	52	systole	23	B	500.0	coherent
899.5958	0.1350005437270738	52	systole	24	A	672.5736556787729	coherent
900.0733	0.1350005437270738	52	systole	25	A	672.5736556787729	coherent
900.3447	0.1350005437270738	52	systole	26	B	500.0	coherent
900.6158	0.1350005437270738	52	systole	27	A	672.5736556787729	coherent
903.7508	0.1393722567590885	53	systole	1	A	672.5736556787729	coherent
904.0298	0.1393722567590885	53	systole	2	B	500.0	coherent
904.3083	0.1393722567590885	53	systole	3	A	672.5736556787729	coherent
904.901	0.1393722567590885	53	systole	4	A	672.5736556787729	coherent
905.1799	0.1393722567590885	53	systole	5	B	500.0	coherent
905.4585	0.1393722567590885	53	systole	6	A	672.5736556787729	coherent
905.9773	0.1393722567590885	53	systole	7	A	672.5736556787729	coherent
906.2524	0.1393722567590885	53	systole	8	B	500.0	coherent
906.5272	0.1393722567590885	53	systole	9	A	672.5736556787729	coherent
907.0672	0.1393722567590885	53	systole	10	A	672.5736556787729	coherent
907.3424	0.1393722567590885	53	systole	11	B	500.0	coherent
907.6172	0.1393722567590885	53	systole	12	A	672.5736556787729	coherent
908.0814	0.1393722567590885	53	systole	13	A	672.5736556787729	coherent
908.3578	0.1393722567590885	53	systole	14	B	500.0	coherent
908.6339	0.1393722567590885	53	systole	15	A	672.5736556787729	coherent
909.091	0.1393722567590885	53	systole	16	A	672.5736556787729	coherent
909.3675	0.1393722567590885	53	systole	17	B	500.0	coherent
909.6435	0.1393722567590885	53	systole	18	A	672.5736556787729	coherent
910.151	0.1393722567590885	53	systole	19	A	672.5736556787729	coherent
910.4274	0.1393722567590885	53	systole	20	B	500.0	coherent
910.7035	0.1393722567590885	53	systole	21	A	672.5736556787729	coherent
911.3214	0.1393722567590885	53	systole	22	A	672.5736556787729	coherent
911.5978	0.1393722567590885	53	systole	23	B	500.0	coherent
911.8739	0.1393722567590885	53	systole	24	A	672.5736556787729	coherent
912.3437	0.1393722567590885	53	systole	25	A	672.5736556787729	coherent
912.6126	0.1393722567590885	53	systole	26	B	500.0	coherent
912.8812	0.1393722567590885	53	systole	27	A	672.5736556787729	coherent
915.7708	0.1343750098021701	54	systole	1	A	672.5736556787729	coherent
916.0497	0.1343750098021701	54	systole	2	B	500.0	coherent
916.3282	0.1343750098021701	54	systole	3	A	672.5736556787729	coherent
916.9537	0.1343750098021701	54	systole	4	A	672.5736556787729	coherent
917.2389	0.1343750098021701	54	systole	5	B	500.0	coherent
917.5237	0.1343750098021701	54	systole	6	A	672.5736556787729	coherent
918.1138	0.1343750098021701	54	systole	7	A	672.5736556787729	coherent
918.3989	0.1343750098021701	54	systole	8	B	500.0	coherent
918.6838	0.1343750098021701	54	systole	9	A	672.5736556787729	coherent
919.1371	0.1343750098021701	54	systole	10	A	672.5736556787729	coherent
919.4123	0.1343750098021701	54	systole	11	B	500.0	coherent
919.6871	0.1343750098021701	54	systole	12	A	672.5736556787729	coherent
920.2846	0.1343750098021701	54	systole	13	A	672.5736556787729	coherent
920.5673	0.1343750098021701	54	systole	14	B	500.0	coherent
920.8496	0.1343750098021701	54	systole	15	A	672.5736556787729	coherent
921.2779	0.1343750098021701	54	systole	16	A	672.5736556787729	coherent
921.5506	0.1343750098021701	54	systole	17	B	500.0	coherent
921.8229	0.1343750098021701	54	systole	18	A	672.5736556787729	coherent
922.3079	0.1343750098021701	54	systole	19	A	672.5736556787729	coherent
922.5805	0.1343750098021701	54	systole	20	B	500.0	coherent
922.8529	0.1343750098021701	54	systole	21	A	672.5736556787729	coherent
923.2877	0.1343750098021701	54	systole	22	A	672.5736556787729	coherent
923.5603	0.1343750098021701	54	systole	23	B	500.0	coherent
923.8327	0.1343750098021701	54	systole	24	A	672.5736556787729	coherent
924.4277	0.1343750098021701	54	systole	25	A	672.5736556787729	coherent
924.7004	0.1343750098021701	54	systole	26	B	500.0	coherent
924.9727	0.1343750098021701	54	systole	27	A	672.5736556787729	coherent
928.5994	0.1337541188113391	55	systole	1	A	688.262316600777	coherent
928.867	0.1337541188113391	55	systole	2	B	500.0	coherent
929.1344	0.1337541188113391	55	systole	3	A	688.262316600777	coherent
929.6294	0.1337541188113391	55	systole	4	A	688.262316600777	coherent
929.8971	0.1337541188113391	55	systole	5	B	500.0	coherent
930.1644	0.1337541188113391	55	systole	6	A	688.262316600777	coherent
930.5702	0.1337541188113391	55	systole	7	A	688.262316600777	coherent
930.8354	0.1337541188113391	55	systole	8	B	500.0	coherent
931.1002	0.1337541188113391	55	systole	9	A	688.262316600777	coherent
931.3673	0.1337541188113391	55	systole	10	A	688.262316600777	coherent
931.6262	0.1337541188113391	55	systole	11	B	500.0	coherent
931.8848	0.1337541188113391	55	systole	12	A	688.262316600777	coherent
932.1474	0.1337541188113391	55	systole	13	A	688.262316600777	coherent
932.4064	0.1337541188113391	55	systole	14	B	500.0	coherent
932.6649	0.1337541188113391	55	systole	15	A	688.262316600777	coherent
932.9276	0.1337541188113391	55	systole	16	A	688.262316600777	coherent
933.1865	0.1337541188113391	55	systole	17	B	500.0	coherent
933.445	0.1337541188113391	55	systole	18	A	688.262316600777	coherent
933.7775	0.1337541188113391	55	systole	19	A	688.262316600777	coherent
934.0365	0.1337541188113391	55	systole	20	B	500.0	coherent
934.295	0.1337541188113391	55	systole	21	A	688.262316600777	coherent
934.9275	0.1337541188113391	55	systole	22	A	688.262316600777	coherent
935.1865	0.1337541188113391	55	systole	23	B	500.0	coherent
935.4451	0.1337541188113391	55	systole	24	A	688.262316600777	coherent
935.8655	0.1337541188113391	55	systole	25	A	688.262316600777	coherent
936.1157	0.1337541188113391	55	systole	26	B	500.0	coherent
936.3655	0.1337541188113391	55	systole	27	A	688.262316600777	coherent
936.9656	0.1337541188113391	55	systole	28	A	688.262316600777	coherent
937.2157	0.1337541188113391	55	systole	29	B	500.0	coherent
937.4656	0.1337541188113391	55	systole	30	A	688.262316600777	coherent
940.673	0.1318778352579102	56	systole	1	A	688.262316600777	coherent
940.9444	0.1318778352579102	56	systole	2	B	500.0	coherent
941.2155	0.1318778352579102	56	systole	3	A	688.262316600777	coherent
941.595	0.1318778352579102	56	systole	4	A	688.262316600777	coherent
941.8664	0.1318778352579102	56	systole	5	B	500.0	coherent
942.1374	0.1318778352579102	56	systole	6	A	688.262316600777	coherent
942.6449	0.1318778352579102	56	systole	7	A	688.262316600777	coherent
942.9163	0.1318778352579102	56	systole	8	B	500.0	coherent
943.1874	0.1318778352579102	56	systole	9	A	688.262316600777	coherent
943.7534	0.1318778352579102	56	systole	10	A	688.262316600777	coherent
