onset	duration	trial_num	trial_type	tone_num	tone_type	frequency	response
247.0026	0.1024131628801114	1	systole	1	A	1578.5670027440333	coherent
247.1976	0.1024131628801114	1	systole	2	B	500.0	coherent
247.3922	0.1024131628801114	1	systole	3	A	1578.5670027440333	coherent
247.7426	0.1024131628801114	1	systole	4	A	1578.5670027440333	coherent
247.9376	0.1024131628801114	1	systole	5	B	500.0	coherent
248.1322	0.1024131628801114	1	systole	6	A	1578.5670027440333	coherent
248.5948	0.1024131628801114	1	systole	7	A	1578.5670027440333	coherent
248.7986	0.1024131628801114	1	systole	8	B	500.0	coherent
249.002	0.1024131628801114	1	systole	9	A	1578.5670027440333	coherent
249.415	0.1024131628801114	1	systole	10	A	1578.5670027440333	coherent
249.6187	0.1024131628801114	1	systole	11	B	500.0	coherent
249.8221	0.1024131628801114	1	systole	12	A	1578.5670027440333	coherent
250.162	0.1024131628801114	1	systole	13	A	1578.5670027440333	coherent
250.3595	0.1024131628801114	1	systole	14	B	500.0	coherent
250.5567	0.1024131628801114	1	systole	15	A	1578.5670027440333	coherent
250.972	0.1024131628801114	1	systole	16	A	1578.5670027440333	coherent
251.1695	0.1024131628801114	1	systole	17	B	500.0	coherent
251.3666	0.1024131628801114	1	systole	18	A	1578.5670027440333	coherent
251.6844	0.1024131628801114	1	systole	19	A	1578.5670027440333	coherent
251.8771	0.1024131628801114	1	systole	20	B	500.0	coherent
252.0695	0.1024131628801114	1	systole	21	A	1578.5670027440333	coherent
252.4744	0.1024131628801114	1	systole	22	A	1578.5670027440333	coherent
252.667	0.1024131628801114	1	systole	23	B	500.0	coherent
252.8594	0.1024131628801114	1	systole	24	A	1578.5670027440333	coherent
253.2643	0.1024131628801114	1	systole	25	A	1578.5670027440333	coherent
253.457	0.1024131628801114	1	systole	26	B	500.0	coherent
253.6493	0.1024131628801114	1	systole	27	A	1578.5670027440333	coherent
254.0444	0.1024131628801114	1	systole	28	A	1578.5670027440333	coherent
254.237	0.1024131628801114	1	systole	29	B	500.0	coherent
254.4294	0.1024131628801114	1	systole	30	A	1578.5670027440333	coherent
254.7642	0.1024131628801114	1	systole	31	A	1578.5670027440333	coherent
254.9569	0.1024131628801114	1	systole	32	B	500.0	coherent
255.1492	0.1024131628801114	1	systole	33	A	1578.5670027440333	coherent
255.5142	0.1024131628801114	1	systole	34	A	1578.5670027440333	coherent
255.7068	0.1024131628801114	1	systole	35	B	500.0	coherent
255.8992	0.1024131628801114	1	systole	36	A	1578.5670027440333	coherent
256.2941	0.1024131628801114	1	systole	37	A	1578.5670027440333	coherent
256.4868	0.1024131628801114	1	systole	38	B	500.0	coherent
256.6792	0.1024131628801114	1	systole	39	A	1578.5670027440333	coherent
279.256	0.083127956255339	2	systole	1	A	2180.0224995339627	coherent
279.4274	0.083127956255339	2	systole	2	B	500.0	coherent
279.5985	0.083127956255339	2	systole	3	A	2180.0224995339627	coherent
280.031	0.083127956255339	2	systole	4	A	2180.0224995339627	coherent
280.2036	0.083127956255339	2	systole	5	B	500.0	coherent
280.3761	0.083127956255339	2	systole	6	A	2180.0224995339627	coherent
280.7702	0.083127956255339	2	systole	7	A	2180.0224995339627	coherent
280.9452	0.083127956255339	2	systole	8	B	500.0	coherent
281.1201	0.083127956255339	2	systole	9	A	2180.0224995339627	coherent
281.4301	0.083127956255339	2	systole	10	A	2180.0224995339627	coherent
281.6051	0.083127956255339	2	systole	11	B	500.0	coherent
281.7801	0.083127956255339	2	systole	12	A	2180.0224995339627	coherent
282.0901	0.083127956255339	2	systole	13	A	2180.0224995339627	coherent
282.2651	0.083127956255339	2	systole	14	B	500.0	coherent
282.44	0.083127956255339	2	systole	15	A	2180.0224995339627	coherent
282.7655	0.083127956255339	2	systole	16	A	2180.0224995339627	coherent
282.9393	0.083127956255339	2	systole	17	B	500.0	coherent
283.113	0.083127956255339	2	systole	18	A	2180.0224995339627	coherent
283.3935	0.083127956255339	2	systole	19	A	2180.0224995339627	coherent
283.5673	0.083127956255339	2	systole	20	B	500.0	coherent
283.741	0.083127956255339	2	systole	21	A	2180.0224995339627	coherent
284.0402	0.083127956255339	2	systole	22	A	2180.0224995339627	coherent
284.2103	0.083127956255339	2	systole	23	B	500.0	coherent
284.3802	0.083127956255339	2	systole	24	A	2180.0224995339627	coherent
284.7502	0.083127956255339	2	systole	25	A	2180.0224995339627	coherent
284.9203	0.083127956255339	2	systole	26	B	500.0	coherent
285.0902	0.083127956255339	2	systole	27	A	2180.0224995339627	coherent
285.4443	0.083127956255339	2	systole	28	A	2180.0224995339627	coherent
285.6156	0.083127956255339	2	systole	29	B	500.0	coherent
285.7867	0.083127956255339	2	systole	30	A	2180.0224995339627	coherent
286.134	0.083127956255339	2	systole	31	A	2180.0224995339627	coherent
286.3052	0.083127956255339	2	systole	32	B	500.0	coherent
286.4764	0.083127956255339	2	systole	33	A	2180.0224995339627	coherent
286.8236	0.083127956255339	2	systole	34	A	2180.0224995339627	coherent
286.9949	0.083127956255339	2	systole	35	B	500.0	coherent
287.166	0.083127956255339	2	systole	36	A	2180.0224995339627	coherent
287.4875	0.083127956255339	2	systole	37	A	2180.0224995339627	coherent
287.6565	0.083127956255339	2	systole	38	B	500.0	coherent
287.8255	0.083127956255339	2	systole	39	A	2180.0224995339627	coherent
288.1595	0.083127956255339	2	systole	40	A	2180.0224995339627	coherent
288.3285	0.083127956255339	2	systole	41	B	500.0	coherent
288.4975	0.083127956255339	2	systole	42	A	2180.0224995339627	coherent
314.2411	0.0881304715876467	3	diastole	1	A	1578.5670027440333	coherent
314.4201	0.0881304715876467	3	diastole	2	B	500.0	coherent
314.5987	0.0881304715876467	3	diastole	3	A	1578.5670027440333	coherent
314.9808	0.0881304715876467	3	diastole	4	A	1578.5670027440333	coherent
315.1597	0.0881304715876467	3	diastole	5	B	500.0	coherent
315.3383	0.0881304715876467	3	diastole	6	A	1578.5670027440333	coherent
315.7218	0.0881304715876467	3	diastole	7	A	1578.5670027440333	coherent
315.9044	0.0881304715876467	3	diastole	8	B	500.0	coherent
316.0867	0.0881304715876467	3	diastole	9	A	1578.5670027440333	coherent
316.3779	0.0881304715876467	3	diastole	10	A	1578.5670027440333	coherent
316.5581	0.0881304715876467	3	diastole	11	B	500.0	coherent
316.7379	0.0881304715876467	3	diastole	12	A	1578.5670027440333	coherent
317.0479	0.0881304715876467	3	diastole	13	A	1578.5670027440333	coherent
317.2281	0.0881304715876467	3	diastole	14	B	500.0	coherent
317.408	0.0881304715876467	3	diastole	15	A	1578.5670027440333	coherent
317.8018	0.0881304715876467	3	diastole	16	A	1578.5670027440333	coherent
317.9845	0.0881304715876467	3	diastole	17	B	500.0	coherent
318.1668	0.0881304715876467	3	diastole	18	A	1578.5670027440333	coherent
318.5419	0.0881304715876467	3	diastole	19	A	1578.5670027440333	coherent
318.7245	0.0881304715876467	3	diastole	20	B	500.0	coherent
318.9068	0.0881304715876467	3	diastole	21	A	1578.5670027440333	coherent
319.2919	0.0881304715876467	3	diastole	22	A	1578.5670027440333	coherent
319.4745	0.0881304715876467	3	diastole	23	B	500.0	coherent
319.6569	0.0881304715876467	3	diastole	24	A	1578.5670027440333	coherent
319.9479	0.0881304715876467	3	diastole	25	A	1578.5670027440333	coherent
320.1281	0.0881304715876467	3	diastole	26	B	500.0	coherent
320.3079	0.0881304715876467	3	diastole	27	A	1578.5670027440333	coherent
320.6534	0.0881304715876467	3	diastole	28	A	1578.5670027440333	coherent
320.8326	0.0881304715876467	3	diastole	29	B	500.0	coherent
321.0113	0.0881304715876467	3	diastole	30	A	1578.5670027440333	coherent
321.3651	0.0881304715876467	3	diastole	31	A	1578.5670027440333	coherent
321.5442	0.0881304715876467	3	diastole	32	B	500.0	coherent
321.723	0.0881304715876467	3	diastole	33	A	1578.5670027440333	coherent
322.0916	0.0881304715876467	3	diastole	34	A	1578.5670027440333	coherent
322.2718	0.0881304715876467	3	diastole	35	B	500.0	coherent
322.4516	0.0881304715876467	3	diastole	36	A	1578.5670027440333	coherent
322.8157	0.0881304715876467	3	diastole	37	A	1578.5670027440333	coherent
322.9948	0.0881304715876467	3	diastole	38	B	500.0	coherent
323.1736	0.0881304715876467	3	diastole	39	A	1578.5670027440333	coherent
357.6291	0.0887223000754602	4	systole	1	A	1987.9452401467304	coherent
357.8064	0.0887223000754602	4	systole	2	B	500.0	coherent
357.9839	0.0887223000754602	4	systole	3	A	1987.9452401467304	coherent
358.4392	0.0887223000754602	4	systole	4	A	1987.9452401467304	coherent
358.6167	0.0887223000754602	4	systole	5	B	500.0	coherent
358.7941	0.0887223000754602	4	systole	6	A	1987.9452401467304	coherent
359.1993	0.0887223000754602	4	systole	7	A	1987.9452401467304	coherent
359.3767	0.0887223000754602	4	systole	8	B	500.0	coherent
359.5542	0.0887223000754602	4	systole	9	A	1987.9452401467304	coherent
359.8758	0.0887223000754602	4	systole	10	A	1987.9452401467304	coherent
360.0495	0.0887223000754602	4	systole	11	B	500.0	coherent
360.2233	0.0887223000754602	4	systole	12	A	1987.9452401467304	coherent
360.6292	0.0887223000754602	4	systole	13	A	1987.9452401467304	coherent
360.8066	0.0887223000754602	4	systole	14	B	500.0	coherent
360.984	0.0887223000754602	4	systole	15	A	1987.9452401467304	coherent
361.4075	0.0887223000754602	4	systole	16	A	1987.9452401467304	coherent
361.5899	0.0887223000754602	4	systole	17	B	500.0	coherent
361.7723	0.0887223000754602	4	systole	18	A	1987.9452401467304	coherent
362.1675	0.0887223000754602	4	systole	19	A	1987.9452401467304	coherent
362.3499	0.0887223000754602	4	systole	20	B	500.0	coherent
362.5323	0.0887223000754602	4	systole	21	A	1987.9452401467304	coherent
362.823	0.0887223000754602	4	systole	22	A	1987.9452401467304	coherent
363.0041	0.0887223000754602	4	systole	23	B	500.0	coherent
363.1854	0.0887223000754602	4	systole	24	A	1987.9452401467304	coherent
363.4931	0.0887223000754602	4	systole	25	A	1987.9452401467304	coherent
363.6742	0.0887223000754602	4	systole	26	B	500.0	coherent
363.8555	0.0887223000754602	4	systole	27	A	1987.9452401467304	coherent
364.1987	0.0887223000754602	4	systole	28	A	1987.9452401467304	coherent
364.3786	0.0887223000754602	4	systole	29	B	500.0	coherent
364.5587	0.0887223000754602	4	systole	30	A	1987.9452401467304	coherent
364.8495	0.0887223000754602	4	systole	31	A	1987.9452401467304	coherent
365.0269	0.0887223000754602	4	systole	32	B	500.0	coherent
365.2045	0.0887223000754602	4	systole	33	A	1987.9452401467304	coherent
365.5103	0.0887223000754602	4	systole	34	A	1987.9452401467304	coherent
365.6852	0.0887223000754602	4	systole	35	B	500.0	coherent
365.8603	0.0887223000754602	4	systole	36	A	1987.9452401467304	coherent
366.1802	0.0887223000754602	4	systole	37	A	1987.9452401467304	coherent
366.3551	0.0887223000754602	4	systole	38	B	500.0	coherent
366.5302	0.0887223000754602	4	systole	39	A	1987.9452401467304	coherent
366.9393	0.0887223000754602	4	systole	40	A	1987.9452401467304	coherent
367.1168	0.0887223000754602	4	systole	41	B	500.0	coherent
367.2943	0.0887223000754602	4	systole	42	A	1987.9452401467304	coherent
406.1992	0.0932523250812664	5	diastole	1	A	2180.0224995339627	coherent
406.3882	0.0932523250812664	5	diastole	2	B	500.0	coherent
406.5771	0.0932523250812664	5	diastole	3	A	2180.0224995339627	coherent
406.9996	0.0932523250812664	5	diastole	4	A	2180.0224995339627	coherent
407.1885	0.0932523250812664	5	diastole	5	B	500.0	coherent
407.3775	0.0932523250812664	5	diastole	6	A	2180.0224995339627	coherent
407.8017	0.0932523250812664	5	diastole	7	A	2180.0224995339627	coherent
407.9929	0.0932523250812664	5	diastole	8	B	500.0	coherent
408.184	0.0932523250812664	5	diastole	9	A	2180.0224995339627	coherent
408.5913	0.0932523250812664	5	diastole	10	A	2180.0224995339627	coherent
408.7825	0.0932523250812664	5	diastole	11	B	500.0	coherent
408.9736	0.0932523250812664	5	diastole	12	A	2180.0224995339627	coherent
409.3809	0.0932523250812664	5	diastole	13	A	2180.0224995339627	coherent
409.5721	0.0932523250812664	5	diastole	14	B	500.0	coherent
409.7632	0.0932523250812664	5	diastole	15	A	2180.0224995339627	coherent
410.111	0.0932523250812664	5	diastole	16	A	2180.0224995339627	coherent
410.3022	0.0932523250812664	5	diastole	17	B	500.0	coherent
410.4933	0.0932523250812664	5	diastole	18	A	2180.0224995339627	coherent
410.8411	0.0932523250812664	5	diastole	19	A	2180.0224995339627	coherent
411.0323	0.0932523250812664	5	diastole	20	B	500.0	coherent
411.2234	0.0932523250812664	5	diastole	21	A	2180.0224995339627	coherent
411.5192	0.0932523250812664	5	diastole	22	A	2180.0224995339627	coherent
411.703	0.0932523250812664	5	diastole	23	B	500.0	coherent
411.8867	0.0932523250812664	5	diastole	24	A	2180.0224995339627	coherent
412.165	0.0932523250812664	5	diastole	25	A	2180.0224995339627	coherent
412.3463	0.0932523250812664	5	diastole	26	B	500.0	coherent
412.5275	0.0932523250812664	5	diastole	27	A	2180.0224995339627	coherent
412.7966	0.0932523250812664	5	diastole	28	A	2180.0224995339627	coherent
412.9729	0.0932523250812664	5	diastole	29	B	500.0	coherent
413.1491	0.0932523250812664	5	diastole	30	A	2180.0224995339627	coherent
413.4883	0.0932523250812664	5	diastole	31	A	2180.0224995339627	coherent
413.6597	0.0932523250812664	5	diastole	32	B	500.0	coherent
413.8309	0.0932523250812664	5	diastole	33	A	2180.0224995339627	coherent
414.2083	0.0932523250812664	5	diastole	34	A	2180.0224995339627	coherent
414.3796	0.0932523250812664	5	diastole	35	B	500.0	coherent
414.5509	0.0932523250812664	5	diastole	36	A	2180.0224995339627	coherent
414.8712	0.0932523250812664	5	diastole	37	A	2180.0224995339627	coherent
415.0414	0.0932523250812664	5	diastole	38	B	500.0	coherent
415.2113	0.0932523250812664	5	diastole	39	A	2180.0224995339627	coherent
415.551	0.0932523250812664	5	diastole	40	A	2180.0224995339627	coherent
415.7211	0.0932523250812664	5	diastole	41	B	500.0	coherent
415.891	0.0932523250812664	5	diastole	42	A	2180.0224995339627	coherent
499.5616	0.0850220374413766	6	diastole	1	A	1987.9452401467304	coherent
499.7315	0.0850220374413766	6	diastole	2	B	500.0	coherent
499.9016	0.0850220374413766	6	diastole	3	A	1987.9452401467304	coherent
500.2416	0.0850220374413766	6	diastole	4	A	1987.9452401467304	coherent
500.4115	0.0850220374413766	6	diastole	5	B	500.0	coherent
500.5815	0.0850220374413766	6	diastole	6	A	1987.9452401467304	coherent
500.865	0.0850220374413766	6	diastole	7	A	1987.9452401467304	coherent
501.0338	0.0850220374413766	6	diastole	8	B	500.0	coherent
501.2026	0.0850220374413766	6	diastole	9	A	1987.9452401467304	coherent
501.4635	0.0850220374413766	6	diastole	10	A	1987.9452401467304	coherent
501.6285	0.0850220374413766	6	diastole	11	B	500.0	coherent
501.7935	0.0850220374413766	6	diastole	12	A	1987.9452401467304	coherent
502.082	0.0850220374413766	6	diastole	13	A	1987.9452401467304	coherent
502.2431	0.0850220374413766	6	diastole	14	B	500.0	coherent
502.4043	0.0850220374413766	6	diastole	15	A	1987.9452401467304	coherent
502.7494	0.0850220374413766	6	diastole	16	A	1987.9452401467304	coherent
502.9118	0.0850220374413766	6	diastole	17	B	500.0	coherent
503.0744	0.0850220374413766	6	diastole	18	A	1987.9452401467304	coherent
503.3452	0.0850220374413766	6	diastole	19	A	1987.9452401467304	coherent
503.5052	0.0850220374413766	6	diastole	20	B	500.0	coherent
503.6652	0.0850220374413766	6	diastole	21	A	1987.9452401467304	coherent
503.9984	0.0850220374413766	6	diastole	22	A	1987.9452401467304	coherent
504.1571	0.0850220374413766	6	diastole	23	B	500.0	coherent
504.316	0.0850220374413766	6	diastole	24	A	1987.9452401467304	coherent
504.6585	0.0850220374413766	6	diastole	25	A	1987.9452401467304	coherent
504.8172	0.0850220374413766	6	diastole	26	B	500.0	coherent
504.9761	0.0850220374413766	6	diastole	27	A	1987.9452401467304	coherent
505.3392	0.0850220374413766	6	diastole	28	A	1987.9452401467304	coherent
505.5017	0.0850220374413766	6	diastole	29	B	500.0	coherent
505.6642	0.0850220374413766	6	diastole	30	A	1987.9452401467304	coherent
505.9411	0.0850220374413766	6	diastole	31	A	1987.9452401467304	coherent
506.0985	0.0850220374413766	6	diastole	32	B	500.0	coherent
506.2561	0.0850220374413766	6	diastole	33	A	1987.9452401467304	coherent
506.658	0.0850220374413766	6	diastole	34	A	1987.9452401467304	coherent
506.8167	0.0850220374413766	6	diastole	35	B	500.0	coherent
506.9755	0.0850220374413766	6	diastole	36	A	1987.9452401467304	coherent
507.3681	0.0850220374413766	6	diastole	37	A	1987.9452401467304	coherent
507.5268	0.0850220374413766	6	diastole	38	B	500.0	coherent
507.6856	0.0850220374413766	6	diastole	39	A	1987.9452401467304	coherent
508.1093	0.0850220374413766	6	diastole	40	A	1987.9452401467304	coherent
508.2717	0.0850220374413766	6	diastole	41	B	500.0	coherent
508.4342	0.0850220374413766	6	diastole	42	A	1987.9452401467304	coherent
508.8151	0.0850220374413766	6	diastole	43	A	1987.9452401467304	coherent
508.98	0.0850220374413766	6	diastole	44	B	500.0	coherent
509.145	0.0850220374413766	6	diastole	45	A	1987.9452401467304	coherent
673.3062	0.0856264100875705	7	systole	1	A	2942.014383864825	coherent
673.4775	0.0856264100875705	7	systole	2	B	500.0	coherent
673.6488	0.0856264100875705	7	systole	3	A	2942.014383864825	coherent
674.026	0.0856264100875705	7	systole	4	A	2942.014383864825	coherent
674.1973	0.0856264100875705	7	systole	5	B	500.0	coherent
674.3686	0.0856264100875705	7	systole	6	A	2942.014383864825	coherent
674.7458	0.0856264100875705	7	systole	7	A	2942.014383864825	coherent
674.9171	0.0856264100875705	7	systole	8	B	500.0	coherent
675.0883	0.0856264100875705	7	systole	9	A	2942.014383864825	coherent
675.4404	0.0856264100875705	7	systole	10	A	2942.014383864825	coherent
675.6129	0.0856264100875705	7	systole	11	B	500.0	coherent
675.7854	0.0856264100875705	7	systole	12	A	2942.014383864825	coherent
676.0804	0.0856264100875705	7	systole	13	A	2942.014383864825	coherent
676.2529	0.0856264100875705	7	systole	14	B	500.0	coherent
676.4254	0.0856264100875705	7	systole	15	A	2942.014383864825	coherent
676.6912	0.0856264100875705	7	systole	16	A	2942.014383864825	coherent
676.8612	0.0856264100875705	7	systole	17	B	500.0	coherent
677.0312	0.0856264100875705	7	systole	18	A	2942.014383864825	coherent
677.3111	0.0856264100875705	7	systole	19	A	2942.014383864825	coherent
677.4812	0.0856264100875705	7	systole	20	B	500.0	coherent
677.6511	0.0856264100875705	7	systole	21	A	2942.014383864825	coherent
677.9083	0.0856264100875705	7	systole	22	A	2942.014383864825	coherent
678.072	0.0856264100875705	7	systole	23	B	500.0	coherent
678.2357	0.0856264100875705	7	systole	24	A	2942.014383864825	coherent
678.4899	0.0856264100875705	7	systole	25	A	2942.014383864825	coherent
678.6487	0.0856264100875705	7	systole	26	B	500.0	coherent
678.8074	0.0856264100875705	7	systole	27	A	2942.014383864825	coherent
679.1345	0.0856264100875705	7	systole	28	A	2942.014383864825	coherent
679.2945	0.0856264100875705	7	systole	29	B	500.0	coherent
679.4545	0.0856264100875705	7	systole	30	A	2942.014383864825	coherent
679.7745	0.0856264100875705	7	systole	31	A	2942.014383864825	coherent
679.9345	0.0856264100875705	7	systole	32	B	500.0	coherent
680.0945	0.0856264100875705	7	systole	33	A	2942.014383864825	coherent
680.4145	0.0856264100875705	7	systole	34	A	2942.014383864825	coherent
680.5745	0.0856264100875705	7	systole	35	B	500.0	coherent
680.7345	0.0856264100875705	7	systole	36	A	2942.014383864825	coherent
681.0061	0.0856264100875705	7	systole	37	A	2942.014383864825	coherent
681.1612	0.0856264100875705	7	systole	38	B	500.0	coherent
681.3162	0.0856264100875705	7	systole	39	A	2942.014383864825	coherent
681.6862	0.0856264100875705	7	systole	40	A	2942.014383864825	coherent
681.8412	0.0856264100875705	7	systole	41	B	500.0	coherent
681.9962	0.0856264100875705	7	systole	42	A	2942.014383864825	coherent
682.3064	0.0856264100875705	7	systole	43	A	2942.014383864825	coherent
682.4615	0.0856264100875705	7	systole	44	B	500.0	coherent
682.6164	0.0856264100875705	7	systole	45	A	2942.014383864825	coherent
682.9361	0.0856264100875705	7	systole	46	A	2942.014383864825	coherent
683.0912	0.0856264100875705	7	systole	47	B	500.0	coherent
683.2462	0.0856264100875705	7	systole	48	A	2942.014383864825	coherent
693.7452	0.0881271935650147	8	diastole	1	A	2942.014383864825	coherent
693.9229	0.0881271935650147	8	diastole	2	B	500.0	coherent
694.1005	0.0881271935650147	8	diastole	3	A	2942.014383864825	coherent
694.4736	0.0881271935650147	8	diastole	4	A	2942.014383864825	coherent
694.6513	0.0881271935650147	8	diastole	5	B	500.0	coherent
694.8289	0.0881271935650147	8	diastole	6	A	2942.014383864825	coherent
695.2043	0.0881271935650147	8	diastole	7	A	2942.014383864825	coherent
695.3835	0.0881271935650147	8	diastole	8	B	500.0	coherent
695.5627	0.0881271935650147	8	diastole	9	A	2942.014383864825	coherent
695.9263	0.0881271935650147	8	diastole	10	A	2942.014383864825	coherent
696.1055	0.0881271935650147	8	diastole	11	B	500.0	coherent
696.2847	0.0881271935650147	8	diastole	12	A	2942.014383864825	coherent
696.5663	0.0881271935650147	8	diastole	13	A	2942.014383864825	coherent
696.7455	0.0881271935650147	8	diastole	14	B	500.0	coherent
696.9247	0.0881271935650147	8	diastole	15	A	2942.014383864825	coherent
697.2343	0.0881271935650147	8	diastole	16	A	2942.014383864825	coherent
697.4136	0.0881271935650147	8	diastole	17	B	500.0	coherent
697.5927	0.0881271935650147	8	diastole	18	A	2942.014383864825	coherent
697.8716	0.0881271935650147	8	diastole	19	A	2942.014383864825	coherent
698.0469	0.0881271935650147	8	diastole	20	B	500.0	coherent
698.222	0.0881271935650147	8	diastole	21	A	2942.014383864825	coherent
698.5316	0.0881271935650147	8	diastole	22	A	2942.014383864825	coherent
698.7069	0.0881271935650147	8	diastole	23	B	500.0	coherent
698.882	0.0881271935650147	8	diastole	24	A	2942.014383864825	coherent
699.2228	0.0881271935650147	8	diastole	25	A	2942.014383864825	coherent
699.3966	0.0881271935650147	8	diastole	26	B	500.0	coherent
699.5703	0.0881271935650147	8	diastole	27	A	2942.014383864825	coherent
699.906	0.0881271935650147	8	diastole	28	A	2942.014383864825	coherent
700.0785	0.0881271935650147	8	diastole	29	B	500.0	coherent
700.251	0.0881271935650147	8	diastole	30	A	2942.014383864825	coherent
700.596	0.0881271935650147	8	diastole	31	A	2942.014383864825	coherent
700.7685	0.0881271935650147	8	diastole	32	B	500.0	coherent
700.941	0.0881271935650147	8	diastole	33	A	2942.014383864825	coherent
701.2208	0.0881271935650147	8	diastole	34	A	2942.014383864825	coherent
701.3906	0.0881271935650147	8	diastole	35	B	500.0	coherent
701.5603	0.0881271935650147	8	diastole	36	A	2942.014383864825	coherent
701.9102	0.0881271935650147	8	diastole	37	A	2942.014383864825	coherent
702.0799	0.0881271935650147	8	diastole	38	B	500.0	coherent
702.2496	0.0881271935650147	8	diastole	39	A	2942.014383864825	coherent
702.6406	0.0881271935650147	8	diastole	40	A	2942.014383864825	coherent
702.8103	0.0881271935650147	8	diastole	41	B	500.0	coherent
702.98	0.0881271935650147	8	diastole	42	A	2942.014383864825	coherent
703.3568	0.0881271935650147	8	diastole	43	A	2942.014383864825	coherent
703.5293	0.0881271935650147	8	diastole	44	B	500.0	coherent
703.7018	0.0881271935650147	8	diastole	45	A	2942.014383864825	coherent
713.608	0.0911336594144813	9	diastole	1	A	2446.423693900757	coherent
713.7917	0.0911336594144813	9	diastole	2	B	500.0	coherent
713.9751	0.0911336594144813	9	diastole	3	A	2446.423693900757	coherent
714.378	0.0911336594144813	9	diastole	4	A	2446.423693900757	coherent
714.5617	0.0911336594144813	9	diastole	5	B	500.0	coherent
714.745	0.0911336594144813	9	diastole	6	A	2446.423693900757	coherent
715.148	0.0911336594144813	9	diastole	7	A	2446.423693900757	coherent
715.3316	0.0911336594144813	9	diastole	8	B	500.0	coherent
715.515	0.0911336594144813	9	diastole	9	A	2446.423693900757	coherent
715.9179	0.0911336594144813	9	diastole	10	A	2446.423693900757	coherent
716.1016	0.0911336594144813	9	diastole	11	B	500.0	coherent
716.2849	0.0911336594144813	9	diastole	12	A	2446.423693900757	coherent
716.6235	0.0911336594144813	9	diastole	13	A	2446.423693900757	coherent
716.8099	0.0911336594144813	9	diastole	14	B	500.0	coherent
716.9959	0.0911336594144813	9	diastole	15	A	2446.423693900757	coherent
717.3935	0.0911336594144813	9	diastole	16	A	2446.423693900757	coherent
717.5799	0.0911336594144813	9	diastole	17	B	500.0	coherent
717.766	0.0911336594144813	9	diastole	18	A	2446.423693900757	coherent
718.1635	0.0911336594144813	9	diastole	19	A	2446.423693900757	coherent
718.3499	0.0911336594144813	9	diastole	20	B	500.0	coherent
718.536	0.0911336594144813	9	diastole	21	A	2446.423693900757	coherent
718.8735	0.0911336594144813	9	diastole	22	A	2446.423693900757	coherent
719.0599	0.0911336594144813	9	diastole	23	B	500.0	coherent
719.246	0.0911336594144813	9	diastole	24	A	2446.423693900757	coherent
719.6334	0.0911336594144813	9	diastole	25	A	2446.423693900757	coherent
719.8198	0.0911336594144813	9	diastole	26	B	500.0	coherent
720.0059	0.0911336594144813	9	diastole	27	A	2446.423693900757	coherent
720.4037	0.0911336594144813	9	diastole	28	A	2446.423693900757	coherent
720.5901	0.0911336594144813	9	diastole	29	B	500.0	coherent
720.7763	0.0911336594144813	9	diastole	30	A	2446.423693900757	coherent
721.1234	0.0911336594144813	9	diastole	31	A	2446.423693900757	coherent
721.3098	0.0911336594144813	9	diastole	32	B	500.0	coherent
721.4959	0.0911336594144813	9	diastole	33	A	2446.423693900757	coherent
721.9079	0.0911336594144813	9	diastole	34	A	2446.423693900757	coherent
722.0968	0.0911336594144813	9	diastole	35	B	500.0	coherent
722.2854	0.0911336594144813	9	diastole	36	A	2446.423693900757	coherent
722.6757	0.0911336594144813	9	diastole	37	A	2446.423693900757	coherent
722.8659	0.0911336594144813	9	diastole	38	B	500.0	coherent
723.0558	0.0911336594144813	9	diastole	39	A	2446.423693900757	coherent
732.5234	0.096224891312886	10	diastole	1	A	3538.000656405778	streaming
732.7148	0.096224891312886	10	diastole	2	B	500.0	streaming
732.9064	0.096224891312886	10	diastole	3	A	3538.000656405778	streaming
733.2838	0.096224891312886	10	diastole	4	A	3538.000656405778	streaming
733.4752	0.096224891312886	10	diastole	5	B	500.0	streaming
733.6668	0.096224891312886	10	diastole	6	A	3538.000656405778	streaming
734.0442	0.096224891312886	10	diastole	7	A	3538.000656405778	streaming
734.2356	0.096224891312886	10	diastole	8	B	500.0	streaming
734.4271	0.096224891312886	10	diastole	9	A	3538.000656405778	streaming
734.777	0.096224891312886	10	diastole	10	A	3538.000656405778	streaming
734.9672	0.096224891312886	10	diastole	11	B	500.0	streaming
735.1576	0.096224891312886	10	diastole	12	A	3538.000656405778	streaming
735.4756	0.096224891312886	10	diastole	13	A	3538.000656405778	streaming
735.6656	0.096224891312886	10	diastole	14	B	500.0	streaming
735.8557	0.096224891312886	10	diastole	15	A	3538.000656405778	streaming
736.1756	0.096224891312886	10	diastole	16	A	3538.000656405778	streaming
736.3656	0.096224891312886	10	diastole	17	B	500.0	streaming
736.5557	0.096224891312886	10	diastole	18	A	3538.000656405778	streaming
736.8756	0.096224891312886	10	diastole	19	A	3538.000656405778	streaming
737.0655	0.096224891312886	10	diastole	20	B	500.0	streaming
737.2556	0.096224891312886	10	diastole	21	A	3538.000656405778	streaming
737.6555	0.096224891312886	10	diastole	22	A	3538.000656405778	streaming
737.8455	0.096224891312886	10	diastole	23	B	500.0	streaming
738.0356	0.096224891312886	10	diastole	24	A	3538.000656405778	streaming
738.4355	0.096224891312886	10	diastole	25	A	3538.000656405778	streaming
738.6255	0.096224891312886	10	diastole	26	B	500.0	streaming
738.8156	0.096224891312886	10	diastole	27	A	3538.000656405778	streaming
739.1782	0.096224891312886	10	diastole	28	A	3538.000656405778	streaming
739.3669	0.096224891312886	10	diastole	29	B	500.0	streaming
739.5557	0.096224891312886	10	diastole	30	A	3538.000656405778	streaming
739.9139	0.096224891312886	10	diastole	31	A	3538.000656405778	streaming
740.1	0.096224891312886	10	diastole	32	B	500.0	streaming
740.2863	0.096224891312886	10	diastole	33	A	3538.000656405778	streaming
740.6439	0.096224891312886	10	diastole	34	A	3538.000656405778	streaming
740.83	0.096224891312886	10	diastole	35	B	500.0	streaming
741.0163	0.096224891312886	10	diastole	36	A	3538.000656405778	streaming
741.461	0.096224891312886	10	diastole	37	A	3538.000656405778	streaming
741.6485	0.096224891312886	10	diastole	38	B	500.0	streaming
741.8361	0.096224891312886	10	diastole	39	A	3538.000656405778	streaming
749.5597	0.090626623306889	11	diastole	1	A	2130.3297690552017	coherent
749.7435	0.090626623306889	11	diastole	2	B	500.0	coherent
749.9272	0.090626623306889	11	diastole	3	A	2130.3297690552017	coherent
750.3809	0.090626623306889	11	diastole	4	A	2130.3297690552017	coherent
750.5685	0.090626623306889	11	diastole	5	B	500.0	coherent
750.7559	0.090626623306889	11	diastole	6	A	2130.3297690552017	coherent
751.1809	0.090626623306889	11	diastole	7	A	2130.3297690552017	coherent
751.3684	0.090626623306889	11	diastole	8	B	500.0	coherent
751.5559	0.090626623306889	11	diastole	9	A	2130.3297690552017	coherent
751.8909	0.090626623306889	11	diastole	10	A	2130.3297690552017	coherent
752.0784	0.090626623306889	11	diastole	11	B	500.0	coherent
752.2659	0.090626623306889	11	diastole	12	A	2130.3297690552017	coherent
752.5409	0.090626623306889	11	diastole	13	A	2130.3297690552017	coherent
752.7284	0.090626623306889	11	diastole	14	B	500.0	coherent
752.9159	0.090626623306889	11	diastole	15	A	2130.3297690552017	coherent
753.1909	0.090626623306889	11	diastole	16	A	2130.3297690552017	coherent
753.3784	0.090626623306889	11	diastole	17	B	500.0	coherent
753.5659	0.090626623306889	11	diastole	18	A	2130.3297690552017	coherent
753.8709	0.090626623306889	11	diastole	19	A	2130.3297690552017	coherent
754.0584	0.090626623306889	11	diastole	20	B	500.0	coherent
754.2459	0.090626623306889	11	diastole	21	A	2130.3297690552017	coherent
754.5509	0.090626623306889	11	diastole	22	A	2130.3297690552017	coherent
754.7384	0.090626623306889	11	diastole	23	B	500.0	coherent
754.9259	0.090626623306889	11	diastole	24	A	2130.3297690552017	coherent
755.2596	0.090626623306889	11	diastole	25	A	2130.3297690552017	coherent
755.4434	0.090626623306889	11	diastole	26	B	500.0	coherent
755.6271	0.090626623306889	11	diastole	27	A	2130.3297690552017	coherent
755.9383	0.090626623306889	11	diastole	28	A	2130.3297690552017	coherent
756.1183	0.090626623306889	11	diastole	29	B	500.0	coherent
756.2983	0.090626623306889	11	diastole	30	A	2130.3297690552017	coherent
756.6826	0.090626623306889	11	diastole	31	A	2130.3297690552017	coherent
756.8651	0.090626623306889	11	diastole	32	B	500.0	coherent
757.0476	0.090626623306889	11	diastole	33	A	2130.3297690552017	coherent
757.3786	0.090626623306889	11	diastole	34	A	2130.3297690552017	coherent
757.5586	0.090626623306889	11	diastole	35	B	500.0	coherent
757.7386	0.090626623306889	11	diastole	36	A	2130.3297690552017	coherent
758.0887	0.090626623306889	11	diastole	37	A	2130.3297690552017	coherent
758.2688	0.090626623306889	11	diastole	38	B	500.0	coherent
758.4488	0.090626623306889	11	diastole	39	A	2130.3297690552017	coherent
762.8899	0.089402099896688	12	systole	1	A	2446.423693900757	coherent
763.065	0.089402099896688	12	systole	2	B	500.0	coherent
763.2398	0.089402099896688	12	systole	3	A	2446.423693900757	coherent
763.5998	0.089402099896688	12	systole	4	A	2446.423693900757	coherent
763.775	0.089402099896688	12	systole	5	B	500.0	coherent
763.9497	0.089402099896688	12	systole	6	A	2446.423693900757	coherent
764.3536	0.089402099896688	12	systole	7	A	2446.423693900757	coherent
764.5325	0.089402099896688	12	systole	8	B	500.0	coherent
764.7111	0.089402099896688	12	systole	9	A	2446.423693900757	coherent
765.0932	0.089402099896688	12	systole	10	A	2446.423693900757	coherent
765.2721	0.089402099896688	12	systole	11	B	500.0	coherent
765.4508	0.089402099896688	12	systole	12	A	2446.423693900757	coherent
765.8207	0.089402099896688	12	systole	13	A	2446.423693900757	coherent
766.0012	0.089402099896688	12	systole	14	B	500.0	coherent
766.1813	0.089402099896688	12	systole	15	A	2446.423693900757	coherent
766.5091	0.089402099896688	12	systole	16	A	2446.423693900757	coherent
766.6895	0.089402099896688	12	systole	17	B	500.0	coherent
766.8696	0.089402099896688	12	systole	18	A	2446.423693900757	coherent
767.2863	0.089402099896688	12	systole	19	A	2446.423693900757	coherent
767.4714	0.089402099896688	12	systole	20	B	500.0	coherent
767.6562	0.089402099896688	12	systole	21	A	2446.423693900757	coherent
768.0462	0.089402099896688	12	systole	22	A	2446.423693900757	coherent
768.2313	0.089402099896688	12	systole	23	B	500.0	coherent
768.4162	0.089402099896688	12	systole	24	A	2446.423693900757	coherent
768.7479	0.089402099896688	12	systole	25	A	2446.423693900757	coherent
768.9307	0.089402099896688	12	systole	26	B	500.0	coherent
769.1133	0.089402099896688	12	systole	27	A	2446.423693900757	coherent
769.5278	0.089402099896688	12	systole	28	A	2446.423693900757	coherent
769.7107	0.089402099896688	12	systole	29	B	500.0	coherent
769.8933	0.089402099896688	12	systole	30	A	2446.423693900757	coherent
770.2478	0.089402099896688	12	systole	31	A	2446.423693900757	coherent
770.4307	0.089402099896688	12	systole	32	B	500.0	coherent
770.6132	0.089402099896688	12	systole	33	A	2446.423693900757	coherent
770.9678	0.089402099896688	12	systole	34	A	2446.423693900757	coherent
771.1507	0.089402099896688	12	systole	35	B	500.0	coherent
771.3332	0.089402099896688	12	systole	36	A	2446.423693900757	coherent
771.7468	0.089402099896688	12	systole	37	A	2446.423693900757	coherent
771.9344	0.089402099896688	12	systole	38	B	500.0	coherent
772.1216	0.089402099896688	12	systole	39	A	2446.423693900757	coherent
777.1743	0.0948904117685742	13	systole	1	A	3538.000656405778	streaming
777.364	0.0948904117685742	13	systole	2	B	500.0	streaming
777.5539	0.0948904117685742	13	systole	3	A	3538.000656405778	streaming
778.0044	0.0948904117685742	13	systole	4	A	3538.000656405778	streaming
778.1941	0.0948904117685742	13	systole	5	B	500.0	streaming
778.3839	0.0948904117685742	13	systole	6	A	3538.000656405778	streaming
778.7343	0.0948904117685742	13	systole	7	A	3538.000656405778	streaming
778.9241	0.0948904117685742	13	systole	8	B	500.0	streaming
779.1139	0.0948904117685742	13	systole	9	A	3538.000656405778	streaming
779.4813	0.0948904117685742	13	systole	10	A	3538.000656405778	streaming
779.6675	0.0948904117685742	13	systole	11	B	500.0	streaming
779.8538	0.0948904117685742	13	systole	12	A	3538.000656405778	streaming
780.2413	0.0948904117685742	13	systole	13	A	3538.000656405778	streaming
780.4275	0.0948904117685742	13	systole	14	B	500.0	streaming
780.6138	0.0948904117685742	13	systole	15	A	3538.000656405778	streaming
781.015	0.0948904117685742	13	systole	16	A	3538.000656405778	streaming
781.205	0.0948904117685742	13	systole	17	B	500.0	streaming
781.395	0.0948904117685742	13	systole	18	A	3538.000656405778	streaming
781.7751	0.0948904117685742	13	systole	19	A	3538.000656405778	streaming
781.965	0.0948904117685742	13	systole	20	B	500.0	streaming
782.155	0.0948904117685742	13	systole	21	A	3538.000656405778	streaming
782.4651	0.0948904117685742	13	systole	22	A	3538.000656405778	streaming
782.655	0.0948904117685742	13	systole	23	B	500.0	streaming
782.845	0.0948904117685742	13	systole	24	A	3538.000656405778	streaming
783.2105	0.0948904117685742	13	systole	25	A	3538.000656405778	streaming
783.3992	0.0948904117685742	13	systole	26	B	500.0	streaming
783.588	0.0948904117685742	13	systole	27	A	3538.000656405778	streaming
783.9767	0.0948904117685742	13	systole	28	A	3538.000656405778	streaming
784.1667	0.0948904117685742	13	systole	29	B	500.0	streaming
784.3567	0.0948904117685742	13	systole	30	A	3538.000656405778	streaming
784.7383	0.0948904117685742	13	systole	31	A	3538.000656405778	streaming
784.9283	0.0948904117685742	13	systole	32	B	500.0	streaming
785.1183	0.0948904117685742	13	systole	33	A	3538.000656405778	streaming
785.4522	0.0948904117685742	13	systole	34	A	3538.000656405778	streaming
785.6409	0.0948904117685742	13	systole	35	B	500.0	streaming
785.8297	0.0948904117685742	13	systole	36	A	3538.000656405778	streaming
786.2221	0.0948904117685742	13	systole	37	A	3538.000656405778	streaming
786.4108	0.0948904117685742	13	systole	38	B	500.0	streaming
786.5996	0.0948904117685742	13	systole	39	A	3538.000656405778	streaming
790.7195	0.0951025849790312	14	systole	1	A	2130.3297690552017	coherent
790.9108	0.0951025849790312	14	systole	2	B	500.0	coherent
791.102	0.0951025849790312	14	systole	3	A	2130.3297690552017	coherent
791.5395	0.0951025849790312	14	systole	4	A	2130.3297690552017	coherent
791.7308	0.0951025849790312	14	systole	5	B	500.0	coherent
791.922	0.0951025849790312	14	systole	6	A	2130.3297690552017	coherent
792.2895	0.0951025849790312	14	systole	7	A	2130.3297690552017	coherent
792.4808	0.0951025849790312	14	systole	8	B	500.0	coherent
792.672	0.0951025849790312	14	systole	9	A	2130.3297690552017	coherent
793.0004	0.0951025849790312	14	systole	10	A	2130.3297690552017	coherent
793.1891	0.0951025849790312	14	systole	11	B	500.0	coherent
793.3779	0.0951025849790312	14	systole	12	A	2130.3297690552017	coherent
793.7203	0.0951025849790312	14	systole	13	A	2130.3297690552017	coherent
793.9091	0.0951025849790312	14	systole	14	B	500.0	coherent
794.0978	0.0951025849790312	14	systole	15	A	2130.3297690552017	coherent
794.5095	0.0951025849790312	14	systole	16	A	2130.3297690552017	coherent
794.7008	0.0951025849790312	14	systole	17	B	500.0	coherent
794.892	0.0951025849790312	14	systole	18	A	2130.3297690552017	coherent
795.2204	0.0951025849790312	14	systole	19	A	2130.3297690552017	coherent
795.4091	0.0951025849790312	14	systole	20	B	500.0	coherent
795.5979	0.0951025849790312	14	systole	21	A	2130.3297690552017	coherent
795.9404	0.0951025849790312	14	systole	22	A	2130.3297690552017	coherent
796.1292	0.0951025849790312	14	systole	23	B	500.0	coherent
796.3179	0.0951025849790312	14	systole	24	A	2130.3297690552017	coherent
796.7103	0.0951025849790312	14	systole	25	A	2130.3297690552017	coherent
796.8991	0.0951025849790312	14	systole	26	B	500.0	coherent
797.0879	0.0951025849790312	14	systole	27	A	2130.3297690552017	coherent
797.4249	0.0951025849790312	14	systole	28	A	2130.3297690552017	coherent
797.6149	0.0951025849790312	14	systole	29	B	500.0	coherent
797.8049	0.0951025849790312	14	systole	30	A	2130.3297690552017	coherent
798.1003	0.0951025849790312	14	systole	31	A	2130.3297690552017	coherent
798.2891	0.0951025849790312	14	systole	32	B	500.0	coherent
798.4778	0.0951025849790312	14	systole	33	A	2130.3297690552017	coherent
798.802	0.0951025849790312	14	systole	34	A	2130.3297690552017	coherent
798.9857	0.0951025849790312	14	systole	35	B	500.0	coherent
799.1695	0.0951025849790312	14	systole	36	A	2130.3297690552017	coherent
799.522	0.0951025849790312	14	systole	37	A	2130.3297690552017	coherent
799.7058	0.0951025849790312	14	systole	38	B	500.0	coherent
799.8895	0.0951025849790312	14	systole	39	A	2130.3297690552017	coherent
806.2919	0.0937566635548137	15	systole	1	A	4157.735780147634	streaming
806.4758	0.0937566635548137	15	systole	2	B	500.0	streaming
806.6594	0.0937566635548137	15	systole	3	A	4157.735780147634	streaming
807.0019	0.0937566635548137	15	systole	4	A	4157.735780147634	streaming
807.1858	0.0937566635548137	15	systole	5	B	500.0	streaming
807.3694	0.0937566635548137	15	systole	6	A	4157.735780147634	streaming
807.7119	0.0937566635548137	15	systole	7	A	4157.735780147634	streaming
807.8958	0.0937566635548137	15	systole	8	B	500.0	streaming
808.0794	0.0937566635548137	15	systole	9	A	4157.735780147634	streaming
808.3664	0.0937566635548137	15	systole	10	A	4157.735780147634	streaming
808.5488	0.0937566635548137	15	systole	11	B	500.0	streaming
808.7309	0.0937566635548137	15	systole	12	A	4157.735780147634	streaming
809.0564	0.0937566635548137	15	systole	13	A	4157.735780147634	streaming
809.2388	0.0937566635548137	15	systole	14	B	500.0	streaming
809.4209	0.0937566635548137	15	systole	15	A	4157.735780147634	streaming
809.8065	0.0937566635548137	15	systole	16	A	4157.735780147634	streaming
809.9889	0.0937566635548137	15	systole	17	B	500.0	streaming
810.171	0.0937566635548137	15	systole	18	A	4157.735780147634	streaming
810.4727	0.0937566635548137	15	systole	19	A	4157.735780147634	streaming
810.6513	0.0937566635548137	15	systole	20	B	500.0	streaming
810.8297	0.0937566635548137	15	systole	21	A	4157.735780147634	streaming
811.1527	0.0937566635548137	15	systole	22	A	4157.735780147634	streaming
811.3313	0.0937566635548137	15	systole	23	B	500.0	streaming
811.5097	0.0937566635548137	15	systole	24	A	4157.735780147634	streaming
811.8298	0.0937566635548137	15	systole	25	A	4157.735780147634	streaming
812.005	0.0937566635548137	15	systole	26	B	500.0	streaming
812.1798	0.0937566635548137	15	systole	27	A	4157.735780147634	streaming
812.5198	0.0937566635548137	15	systole	28	A	4157.735780147634	streaming
812.6949	0.0937566635548137	15	systole	29	B	500.0	streaming
812.8698	0.0937566635548137	15	systole	30	A	4157.735780147634	streaming
813.2298	0.0937566635548137	15	systole	31	A	4157.735780147634	streaming
813.4049	0.0937566635548137	15	systole	32	B	500.0	streaming
813.5798	0.0937566635548137	15	systole	33	A	4157.735780147634	streaming
813.9398	0.0937566635548137	15	systole	34	A	4157.735780147634	streaming
814.1149	0.0937566635548137	15	systole	35	B	500.0	streaming
814.2898	0.0937566635548137	15	systole	36	A	4157.735780147634	streaming
814.7053	0.0937566635548137	15	systole	37	A	4157.735780147634	streaming
814.8791	0.0937566635548137	15	systole	38	B	500.0	streaming
815.0528	0.0937566635548137	15	systole	39	A	4157.735780147634	streaming
815.4753	0.0937566635548137	15	systole	40	A	4157.735780147634	streaming
815.6492	0.0937566635548137	15	systole	41	B	500.0	streaming
815.8228	0.0937566635548137	15	systole	42	A	4157.735780147634	streaming
819.3456	0.0918762914952822	16	systole	1	A	4157.735780147634	streaming
819.5332	0.0918762914952822	16	systole	2	B	500.0	streaming
819.7206	0.0918762914952822	16	systole	3	A	4157.735780147634	streaming
820.0357	0.0918762914952822	16	systole	4	A	4157.735780147634	streaming
820.2233	0.0918762914952822	16	systole	5	B	500.0	streaming
820.4106	0.0918762914952822	16	systole	6	A	4157.735780147634	streaming
820.7957	0.0918762914952822	16	systole	7	A	4157.735780147634	streaming
820.9833	0.0918762914952822	16	systole	8	B	500.0	streaming
821.1707	0.0918762914952822	16	systole	9	A	4157.735780147634	streaming
821.5558	0.0918762914952822	16	systole	10	A	4157.735780147634	streaming
821.7434	0.0918762914952822	16	systole	11	B	500.0	streaming
821.9307	0.0918762914952822	16	systole	12	A	4157.735780147634	streaming
822.305	0.0918762914952822	16	systole	13	A	4157.735780147634	streaming
822.4951	0.0918762914952822	16	systole	14	B	500.0	streaming
822.685	0.0918762914952822	16	systole	15	A	4157.735780147634	streaming
822.9959	0.0918762914952822	16	systole	16	A	4157.735780147634	streaming
823.1835	0.0918762914952822	16	systole	17	B	500.0	streaming
823.3709	0.0918762914952822	16	systole	18	A	4157.735780147634	streaming
823.6959	0.0918762914952822	16	systole	19	A	4157.735780147634	streaming
823.8836	0.0918762914952822	16	systole	20	B	500.0	streaming
824.0709	0.0918762914952822	16	systole	21	A	4157.735780147634	streaming
824.4558	0.0918762914952822	16	systole	22	A	4157.735780147634	streaming
824.6434	0.0918762914952822	16	systole	23	B	500.0	streaming
824.8308	0.0918762914952822	16	systole	24	A	4157.735780147634	streaming
825.1558	0.0918762914952822	16	systole	25	A	4157.735780147634	streaming
825.3435	0.0918762914952822	16	systole	26	B	500.0	streaming
825.5308	0.0918762914952822	16	systole	27	A	4157.735780147634	streaming
825.8867	0.0918762914952822	16	systole	28	A	4157.735780147634	streaming
826.0718	0.0918762914952822	16	systole	29	B	500.0	streaming
826.2567	0.0918762914952822	16	systole	30	A	4157.735780147634	streaming
826.6267	0.0918762914952822	16	systole	31	A	4157.735780147634	streaming
826.8118	0.0918762914952822	16	systole	32	B	500.0	streaming
826.9967	0.0918762914952822	16	systole	33	A	4157.735780147634	streaming
827.3471	0.0918762914952822	16	systole	34	A	4157.735780147634	streaming
827.5322	0.0918762914952822	16	systole	35	B	500.0	streaming
827.7171	0.0918762914952822	16	systole	36	A	4157.735780147634	streaming
828.0675	0.0918762914952822	16	systole	37	A	4157.735780147634	streaming
828.2526	0.0918762914952822	16	systole	38	B	500.0	streaming
828.4375	0.0918762914952822	16	systole	39	A	4157.735780147634	streaming
833.8237	0.0894015404628589	17	systole	1	A	4062.961875947593	coherent
834.0026	0.0894015404628589	17	systole	2	B	500.0	coherent
834.1812	0.0894015404628589	17	systole	3	A	4062.961875947593	coherent
834.5437	0.0894015404628589	17	systole	4	A	4062.961875947593	coherent
834.7225	0.0894015404628589	17	systole	5	B	500.0	coherent
834.9012	0.0894015404628589	17	systole	6	A	4062.961875947593	coherent
835.3236	0.0894015404628589	17	systole	7	A	4062.961875947593	coherent
835.5025	0.0894015404628589	17	systole	8	B	500.0	coherent
835.6811	0.0894015404628589	17	systole	9	A	4062.961875947593	coherent
836.0328	0.0894015404628589	17	systole	10	A	4062.961875947593	coherent
836.2142	0.0894015404628589	17	systole	11	B	500.0	coherent
836.3953	0.0894015404628589	17	systole	12	A	4062.961875947593	coherent
836.7529	0.0894015404628589	17	systole	13	A	4062.961875947593	coherent
836.9343	0.0894015404628589	17	systole	14	B	500.0	coherent
837.1154	0.0894015404628589	17	systole	15	A	4062.961875947593	coherent
837.512	0.0894015404628589	17	systole	16	A	4062.961875947593	coherent
837.6959	0.0894015404628589	17	systole	17	B	500.0	coherent
837.8795	0.0894015404628589	17	systole	18	A	4062.961875947593	coherent
838.212	0.0894015404628589	17	systole	19	A	4062.961875947593	coherent
838.3959	0.0894015404628589	17	systole	20	B	500.0	coherent
838.5796	0.0894015404628589	17	systole	21	A	4062.961875947593	coherent
838.8675	0.0894015404628589	17	systole	22	A	4062.961875947593	coherent
839.0501	0.0894015404628589	17	systole	23	B	500.0	coherent
839.2325	0.0894015404628589	17	systole	24	A	4062.961875947593	coherent
839.5481	0.0894015404628589	17	systole	25	A	4062.961875947593	coherent
839.7282	0.0894015404628589	17	systole	26	B	500.0	coherent
839.9081	0.0894015404628589	17	systole	27	A	4062.961875947593	coherent
840.238	0.0894015404628589	17	systole	28	A	4062.961875947593	coherent
840.4181	0.0894015404628589	17	systole	29	B	500.0	coherent
840.598	0.0894015404628589	17	systole	30	A	4062.961875947593	coherent
840.8697	0.0894015404628589	17	systole	31	A	4062.961875947593	coherent
841.0448	0.0894015404628589	17	systole	32	B	500.0	coherent
841.2197	0.0894015404628589	17	systole	33	A	4062.961875947593	coherent
841.5351	0.0894015404628589	17	systole	34	A	4062.961875947593	coherent
841.7089	0.0894015404628589	17	systole	35	B	500.0	coherent
841.8826	0.0894015404628589	17	systole	36	A	4062.961875947593	coherent
842.245	0.0894015404628589	17	systole	37	A	4062.961875947593	coherent
842.4189	0.0894015404628589	17	systole	38	B	500.0	coherent
842.5925	0.0894015404628589	17	systole	39	A	4062.961875947593	coherent
842.955	0.0894015404628589	17	systole	40	A	4062.961875947593	coherent
843.1288	0.0894015404628589	17	systole	41	B	500.0	coherent
843.3025	0.0894015404628589	17	systole	42	A	4062.961875947593	coherent
849.3985	0.0900004999712109	18	systole	1	A	2034.3166651064248	coherent
849.5785	0.0900004999712109	18	systole	2	B	500.0	coherent
849.7585	0.0900004999712109	18	systole	3	A	2034.3166651064248	coherent
850.1085	0.0900004999712109	18	systole	4	A	2034.3166651064248	coherent
850.2885	0.0900004999712109	18	systole	5	B	500.0	coherent
850.4685	0.0900004999712109	18	systole	6	A	2034.3166651064248	coherent
850.8185	0.0900004999712109	18	systole	7	A	2034.3166651064248	coherent
850.9985	0.0900004999712109	18	systole	8	B	500.0	coherent
851.1785	0.0900004999712109	18	systole	9	A	2034.3166651064248	coherent
851.5785	0.0900004999712109	18	systole	10	A	2034.3166651064248	coherent
851.7585	0.0900004999712109	18	systole	11	B	500.0	coherent
851.9385	0.0900004999712109	18	systole	12	A	2034.3166651064248	coherent
852.2881	0.0900004999712109	18	systole	13	A	2034.3166651064248	coherent
852.4681	0.0900004999712109	18	systole	14	B	500.0	coherent
852.6481	0.0900004999712109	18	systole	15	A	2034.3166651064248	coherent
852.9978	0.0900004999712109	18	systole	16	A	2034.3166651064248	coherent
853.1778	0.0900004999712109	18	systole	17	B	500.0	coherent
853.3578	0.0900004999712109	18	systole	18	A	2034.3166651064248	coherent
853.6735	0.0900004999712109	18	systole	19	A	2034.3166651064248	coherent
853.8523	0.0900004999712109	18	systole	20	B	500.0	coherent
854.031	0.0900004999712109	18	systole	21	A	2034.3166651064248	coherent
854.3539	0.0900004999712109	18	systole	22	A	2034.3166651064248	coherent
854.5326	0.0900004999712109	18	systole	23	B	500.0	coherent
854.7113	0.0900004999712109	18	systole	24	A	2034.3166651064248	coherent
855.0839	0.0900004999712109	18	systole	25	A	2034.3166651064248	coherent
855.2626	0.0900004999712109	18	systole	26	B	500.0	coherent
855.4414	0.0900004999712109	18	systole	27	A	2034.3166651064248	coherent
855.8445	0.0900004999712109	18	systole	28	A	2034.3166651064248	coherent
856.0257	0.0900004999712109	18	systole	29	B	500.0	coherent
856.207	0.0900004999712109	18	systole	30	A	2034.3166651064248	coherent
856.5008	0.0900004999712109	18	systole	31	A	2034.3166651064248	coherent
856.6782	0.0900004999712109	18	systole	32	B	500.0	coherent
856.8557	0.0900004999712109	18	systole	33	A	2034.3166651064248	coherent
857.1962	0.0900004999712109	18	systole	34	A	2034.3166651064248	coherent
857.3724	0.0900004999712109	18	systole	35	B	500.0	coherent
857.5486	0.0900004999712109	18	systole	36	A	2034.3166651064248	coherent
857.8778	0.0900004999712109	18	systole	37	A	2034.3166651064248	coherent
858.054	0.0900004999712109	18	systole	38	B	500.0	coherent
858.2302	0.0900004999712109	18	systole	39	A	2034.3166651064248	coherent
858.5594	0.0900004999712109	18	systole	40	A	2034.3166651064248	coherent
858.7356	0.0900004999712109	18	systole	41	B	500.0	coherent
858.9118	0.0900004999712109	18	systole	42	A	2034.3166651064248	coherent
863.0898	0.0857238151365891	19	diastole	1	A	4157.735780147634	streaming
863.2614	0.0857238151365891	19	diastole	2	B	500.0	streaming
863.4327	0.0857238151365891	19	diastole	3	A	4157.735780147634	streaming
863.7899	0.0857238151365891	19	diastole	4	A	4157.735780147634	streaming
863.9615	0.0857238151365891	19	diastole	5	B	500.0	streaming
864.1328	0.0857238151365891	19	diastole	6	A	4157.735780147634	streaming
864.4688	0.0857238151365891	19	diastole	7	A	4157.735780147634	streaming
864.6402	0.0857238151365891	19	diastole	8	B	500.0	streaming
864.8113	0.0857238151365891	19	diastole	9	A	4157.735780147634	streaming
865.1088	0.0857238151365891	19	diastole	10	A	4157.735780147634	streaming
865.2802	0.0857238151365891	19	diastole	11	B	500.0	streaming
865.4513	0.0857238151365891	19	diastole	12	A	4157.735780147634	streaming
865.7488	0.0857238151365891	19	diastole	13	A	4157.735780147634	streaming
865.9202	0.0857238151365891	19	diastole	14	B	500.0	streaming
866.0913	0.0857238151365891	19	diastole	15	A	4157.735780147634	streaming
866.4088	0.0857238151365891	19	diastole	16	A	4157.735780147634	streaming
866.5801	0.0857238151365891	19	diastole	17	B	500.0	streaming
866.7513	0.0857238151365891	19	diastole	18	A	4157.735780147634	streaming
867.1229	0.0857238151365891	19	diastole	19	A	4157.735780147634	streaming
867.2968	0.0857238151365891	19	diastole	20	B	500.0	streaming
867.4704	0.0857238151365891	19	diastole	21	A	4157.735780147634	streaming
867.8601	0.0857238151365891	19	diastole	22	A	4157.735780147634	streaming
868.0353	0.0857238151365891	19	diastole	23	B	500.0	streaming
868.2101	0.0857238151365891	19	diastole	24	A	4157.735780147634	streaming
868.5529	0.0857238151365891	19	diastole	25	A	4157.735780147634	streaming
868.7268	0.0857238151365891	19	diastole	26	B	500.0	streaming
868.9004	0.0857238151365891	19	diastole	27	A	4157.735780147634	streaming
869.2528	0.0857238151365891	19	diastole	28	A	4157.735780147634	streaming
869.4267	0.0857238151365891	19	diastole	29	B	500.0	streaming
869.6003	0.0857238151365891	19	diastole	30	A	4157.735780147634	streaming
869.9528	0.0857238151365891	19	diastole	31	A	4157.735780147634	streaming
870.1267	0.0857238151365891	19	diastole	32	B	500.0	streaming
870.3003	0.0857238151365891	19	diastole	33	A	4157.735780147634	streaming
870.74	0.0857238151365891	19	diastole	34	A	4157.735780147634	streaming
870.9151	0.0857238151365891	19	diastole	35	B	500.0	streaming
871.09	0.0857238151365891	19	diastole	36	A	4157.735780147634	streaming
871.5016	0.0857238151365891	19	diastole	37	A	4157.735780147634	streaming
871.6767	0.0857238151365891	19	diastole	38	B	500.0	streaming
871.8515	0.0857238151365891	19	diastole	39	A	4157.735780147634	streaming
872.1828	0.0857238151365891	19	diastole	40	A	4157.735780147634	streaming
872.3567	0.0857238151365891	19	diastole	41	B	500.0	streaming
872.5303	0.0857238151365891	19	diastole	42	A	4157.735780147634	streaming
876.4075	0.0931043936870992	20	systole	1	A	2180.0224995339627	coherent
876.59	0.0931043936870992	20	systole	2	B	500.0	coherent
876.7724	0.0931043936870992	20	systole	3	A	2180.0224995339627	coherent
877.1671	0.0931043936870992	20	systole	4	A	2180.0224995339627	coherent
877.3496	0.0931043936870992	20	systole	5	B	500.0	coherent
877.532	0.0931043936870992	20	systole	6	A	2180.0224995339627	coherent
877.9412	0.0931043936870992	20	systole	7	A	2180.0224995339627	coherent
878.1275	0.0931043936870992	20	systole	8	B	500.0	coherent
878.3137	0.0931043936870992	20	systole	9	A	2180.0224995339627	coherent
878.7016	0.0931043936870992	20	systole	10	A	2180.0224995339627	coherent
878.8879	0.0931043936870992	20	systole	11	B	500.0	coherent
879.074	0.0931043936870992	20	systole	12	A	2180.0224995339627	coherent
879.3577	0.0931043936870992	20	systole	13	A	2180.0224995339627	coherent
879.5402	0.0931043936870992	20	systole	14	B	500.0	coherent
879.7226	0.0931043936870992	20	systole	15	A	2180.0224995339627	coherent
880.0276	0.0931043936870992	20	systole	16	A	2180.0224995339627	coherent
880.2101	0.0931043936870992	20	systole	17	B	500.0	coherent
880.3925	0.0931043936870992	20	systole	18	A	2180.0224995339627	coherent
880.7287	0.0931043936870992	20	systole	19	A	2180.0224995339627	coherent
880.9088	0.0931043936870992	20	systole	20	B	500.0	coherent
881.0887	0.0931043936870992	20	systole	21	A	2180.0224995339627	coherent
881.5092	0.0931043936870992	20	systole	22	A	2180.0224995339627	coherent
881.6917	0.0931043936870992	20	systole	23	B	500.0	coherent
881.8741	0.0931043936870992	20	systole	24	A	2180.0224995339627	coherent
882.1976	0.0931043936870992	20	systole	25	A	2180.0224995339627	coherent
882.3801	0.0931043936870992	20	systole	26	B	500.0	coherent
882.5625	0.0931043936870992	20	systole	27	A	2180.0224995339627	coherent
882.886	0.0931043936870992	20	systole	28	A	2180.0224995339627	coherent
883.0685	0.0931043936870992	20	systole	29	B	500.0	coherent
883.2509	0.0931043936870992	20	systole	30	A	2180.0224995339627	coherent
883.5273	0.0931043936870992	20	systole	31	A	2180.0224995339627	coherent
883.7024	0.0931043936870992	20	systole	32	B	500.0	coherent
883.8775	0.0931043936870992	20	systole	33	A	2180.0224995339627	coherent
884.1718	0.0931043936870992	20	systole	34	A	2180.0224995339627	coherent
884.3454	0.0931043936870992	20	systole	35	B	500.0	coherent
884.5189	0.0931043936870992	20	systole	36	A	2180.0224995339627	coherent
884.828	0.0931043936870992	20	systole	37	A	2180.0224995339627	coherent
884.9978	0.0931043936870992	20	systole	38	B	500.0	coherent
885.1676	0.0931043936870992	20	systole	39	A	2180.0224995339627	coherent
885.4979	0.0931043936870992	20	systole	40	A	2180.0224995339627	coherent
885.6678	0.0931043936870992	20	systole	41	B	500.0	coherent
885.8375	0.0931043936870992	20	systole	42	A	2180.0224995339627	coherent
891.7665	0.0868841187329962	21	systole	1	A	4999.999999999997	coherent
891.9379	0.0868841187329962	21	systole	2	B	500.0	coherent
892.1091	0.0868841187329962	21	systole	3	A	4999.999999999997	coherent
892.4465	0.0868841187329962	21	systole	4	A	4999.999999999997	coherent
892.6179	0.0868841187329962	21	systole	5	B	500.0	coherent
892.7891	0.0868841187329962	21	systole	6	A	4999.999999999997	coherent
893.1405	0.0868841187329962	21	systole	7	A	4999.999999999997	coherent
893.3131	0.0868841187329962	21	systole	8	B	500.0	coherent
893.4855	0.0868841187329962	21	systole	9	A	4999.999999999997	coherent
893.8106	0.0868841187329962	21	systole	10	A	4999.999999999997	coherent
893.9832	0.0868841187329962	21	systole	11	B	500.0	coherent
894.1555	0.0868841187329962	21	systole	12	A	4999.999999999997	coherent
894.4806	0.0868841187329962	21	systole	13	A	4999.999999999997	coherent
894.6532	0.0868841187329962	21	systole	14	B	500.0	coherent
894.8255	0.0868841187329962	21	systole	15	A	4999.999999999997	coherent
895.117	0.0868841187329962	21	systole	16	A	4999.999999999997	coherent
895.2858	0.0868841187329962	21	systole	17	B	500.0	coherent
895.4545	0.0868841187329962	21	systole	18	A	4999.999999999997	coherent
895.7569	0.0868841187329962	21	systole	19	A	4999.999999999997	coherent
895.9258	0.0868841187329962	21	systole	20	B	500.0	coherent
896.0945	0.0868841187329962	21	systole	21	A	4999.999999999997	coherent
896.397	0.0868841187329962	21	systole	22	A	4999.999999999997	coherent
896.5659	0.0868841187329962	21	systole	23	B	500.0	coherent
896.7345	0.0868841187329962	21	systole	24	A	4999.999999999997	coherent
897.0132	0.0868841187329962	21	systole	25	A	4999.999999999997	coherent
897.1783	0.0868841187329962	21	systole	26	B	500.0	coherent
897.3432	0.0868841187329962	21	systole	27	A	4999.999999999997	coherent
897.6432	0.0868841187329962	21	systole	28	A	4999.999999999997	coherent
897.8083	0.0868841187329962	21	systole	29	B	500.0	coherent
897.9732	0.0868841187329962	21	systole	30	A	4999.999999999997	coherent
898.3287	0.0868841187329962	21	systole	31	A	4999.999999999997	coherent
898.4925	0.0868841187329962	21	systole	32	B	500.0	coherent
898.6562	0.0868841187329962	21	systole	33	A	4999.999999999997	coherent
899.0187	0.0868841187329962	21	systole	34	A	4999.999999999997	coherent
899.1825	0.0868841187329962	21	systole	35	B	500.0	coherent
899.3462	0.0868841187329962	21	systole	36	A	4999.999999999997	coherent
899.6941	0.0868841187329962	21	systole	37	A	4999.999999999997	coherent
899.8567	0.0868841187329962	21	systole	38	B	500.0	coherent
900.0191	0.0868841187329962	21	systole	39	A	4999.999999999997	coherent
900.3686	0.0868841187329962	21	systole	40	A	4999.999999999997	coherent
900.5325	0.0868841187329962	21	systole	41	B	500.0	coherent
900.6961	0.0868841187329962	21	systole	42	A	4999.999999999997	coherent
901.0333	0.0868841187329962	21	systole	43	A	4999.999999999997	coherent
901.1984	0.0868841187329962	21	systole	44	B	500.0	coherent
901.3633	0.0868841187329962	21	systole	45	A	4999.999999999997	coherent
905.7871	0.0837425187346525	22	systole	1	A	1942.6308330494364	streaming
905.9558	0.0837425187346525	22	systole	2	B	500.0	streaming
906.1246	0.0837425187346525	22	systole	3	A	1942.6308330494364	streaming
906.5017	0.0837425187346525	22	systole	4	A	1942.6308330494364	streaming
906.6716	0.0837425187346525	22	systole	5	B	500.0	streaming
906.8417	0.0837425187346525	22	systole	6	A	1942.6308330494364	streaming
907.2117	0.0837425187346525	22	systole	7	A	1942.6308330494364	streaming
907.3816	0.0837425187346525	22	systole	8	B	500.0	streaming
907.5517	0.0837425187346525	22	systole	9	A	1942.6308330494364	streaming
907.8519	0.0837425187346525	22	systole	10	A	1942.6308330494364	streaming
908.0218	0.0837425187346525	22	systole	11	B	500.0	streaming
908.1919	0.0837425187346525	22	systole	12	A	1942.6308330494364	streaming
908.492	0.0837425187346525	22	systole	13	A	1942.6308330494364	streaming
908.662	0.0837425187346525	22	systole	14	B	500.0	streaming
908.8321	0.0837425187346525	22	systole	15	A	1942.6308330494364	streaming
909.093	0.0837425187346525	22	systole	16	A	1942.6308330494364	streaming
909.2604	0.0837425187346525	22	systole	17	B	500.0	streaming
909.428	0.0837425187346525	22	systole	18	A	1942.6308330494364	streaming
909.6746	0.0837425187346525	22	systole	19	A	1942.6308330494364	streaming
909.837	0.0837425187346525	22	systole	20	B	500.0	streaming
909.9996	0.0837425187346525	22	systole	21	A	1942.6308330494364	streaming
910.3001	0.0837425187346525	22	systole	22	A	1942.6308330494364	streaming
910.4613	0.0837425187346525	22	systole	23	B	500.0	streaming
910.6226	0.0837425187346525	22	systole	24	A	1942.6308330494364	streaming
910.9301	0.0837425187346525	22	systole	25	A	1942.6308330494364	streaming
911.0912	0.0837425187346525	22	systole	26	B	500.0	streaming
911.2526	0.0837425187346525	22	systole	27	A	1942.6308330494364	streaming
911.5654	0.0837425187346525	22	systole	28	A	1942.6308330494364	streaming
911.7254	0.0837425187346525	22	systole	29	B	500.0	streaming
911.8854	0.0837425187346525	22	systole	30	A	1942.6308330494364	streaming
912.2155	0.0837425187346525	22	systole	31	A	1942.6308330494364	streaming
912.3754	0.0837425187346525	22	systole	32	B	500.0	streaming
912.5355	0.0837425187346525	22	systole	33	A	1942.6308330494364	streaming
912.8655	0.0837425187346525	22	systole	34	A	1942.6308330494364	streaming
913.0254	0.0837425187346525	22	systole	35	B	500.0	streaming
913.1855	0.0837425187346525	22	systole	36	A	1942.6308330494364	streaming
913.5855	0.0837425187346525	22	systole	37	A	1942.6308330494364	streaming
913.7455	0.0837425187346525	22	systole	38	B	500.0	streaming
913.9056	0.0837425187346525	22	systole	39	A	1942.6308330494364	streaming
914.26	0.0837425187346525	22	systole	40	A	1942.6308330494364	streaming
914.4212	0.0837425187346525	22	systole	41	B	500.0	streaming
914.5825	0.0837425187346525	22	systole	42	A	1942.6308330494364	streaming
914.9838	0.0837425187346525	22	systole	43	A	1942.6308330494364	streaming
915.1487	0.0837425187346525	22	systole	44	B	500.0	streaming
915.3138	0.0837425187346525	22	systole	45	A	1942.6308330494364	streaming
915.6937	0.0837425187346525	22	systole	46	A	1942.6308330494364	streaming
915.8587	0.0837425187346525	22	systole	47	B	500.0	streaming
916.0237	0.0837425187346525	22	systole	48	A	1942.6308330494364	streaming
918.7237	0.0868743187165819	23	systole	1	A	1282.731510155574	streaming
918.9024	0.0868743187165819	23	systole	2	B	500.0	streaming
919.0812	0.0868743187165819	23	systole	3	A	1282.731510155574	streaming
919.5337	0.0868743187165819	23	systole	4	A	1282.731510155574	streaming
919.7124	0.0868743187165819	23	systole	5	B	500.0	streaming
919.8912	0.0868743187165819	23	systole	6	A	1282.731510155574	streaming
920.2237	0.0868743187165819	23	systole	7	A	1282.731510155574	streaming
920.4024	0.0868743187165819	23	systole	8	B	500.0	streaming
920.5812	0.0868743187165819	23	systole	9	A	1282.731510155574	streaming
920.9137	0.0868743187165819	23	systole	10	A	1282.731510155574	streaming
921.0924	0.0868743187165819	23	systole	11	B	500.0	streaming
921.2712	0.0868743187165819	23	systole	12	A	1282.731510155574	streaming
921.6362	0.0868743187165819	23	systole	13	A	1282.731510155574	streaming
921.8152	0.0868743187165819	23	systole	14	B	500.0	streaming
921.9942	0.0868743187165819	23	systole	15	A	1282.731510155574	streaming
922.3234	0.0868743187165819	23	systole	16	A	1282.731510155574	streaming
922.5049	0.0868743187165819	23	systole	17	B	500.0	streaming
922.6864	0.0868743187165819	23	systole	18	A	1282.731510155574	streaming
923.0418	0.0868743187165819	23	systole	19	A	1282.731510155574	streaming
923.2222	0.0868743187165819	23	systole	20	B	500.0	streaming
923.4027	0.0868743187165819	23	systole	21	A	1282.731510155574	streaming
923.7638	0.0868743187165819	23	systole	22	A	1282.731510155574	streaming
923.9443	0.0868743187165819	23	systole	23	B	500.0	streaming
924.1247	0.0868743187165819	23	systole	24	A	1282.731510155574	streaming
924.5259	0.0868743187165819	23	systole	25	A	1282.731510155574	streaming
924.7074	0.0868743187165819	23	systole	26	B	500.0	streaming
924.8889	0.0868743187165819	23	systole	27	A	1282.731510155574	streaming
925.2059	0.0868743187165819	23	systole	28	A	1282.731510155574	streaming
925.3874	0.0868743187165819	23	systole	29	B	500.0	streaming
925.569	0.0868743187165819	23	systole	30	A	1282.731510155574	streaming
925.9359	0.0868743187165819	23	systole	31	A	1282.731510155574	streaming
926.1174	0.0868743187165819	23	systole	32	B	500.0	streaming
926.2989	0.0868743187165819	23	systole	33	A	1282.731510155574	streaming
926.666	0.0868743187165819	23	systole	34	A	1282.731510155574	streaming
926.8474	0.0868743187165819	23	systole	35	B	500.0	streaming
927.029	0.0868743187165819	23	systole	36	A	1282.731510155574	streaming
927.396	0.0868743187165819	23	systole	37	A	1282.731510155574	streaming
927.5775	0.0868743187165819	23	systole	38	B	500.0	streaming
927.759	0.0868743187165819	23	systole	39	A	1282.731510155574	streaming
928.1397	0.0868743187165819	23	systole	40	A	1282.731510155574	streaming
928.3221	0.0868743187165819	23	systole	41	B	500.0	streaming
928.5046	0.0868743187165819	23	systole	42	A	1282.731510155574	streaming
932.3609	0.0925007687183097	24	diastole	1	A	4157.735780147634	coherent
932.5485	0.0925007687183097	24	diastole	2	B	500.0	coherent
932.7359	0.0925007687183097	24	diastole	3	A	4157.735780147634	coherent
933.1609	0.0925007687183097	24	diastole	4	A	4157.735780147634	coherent
933.3485	0.0925007687183097	24	diastole	5	B	500.0	coherent
933.5359	0.0925007687183097	24	diastole	6	A	4157.735780147634	coherent
933.8908	0.0925007687183097	24	diastole	7	A	4157.735780147634	coherent
934.0785	0.0925007687183097	24	diastole	8	B	500.0	coherent
934.2659	0.0925007687183097	24	diastole	9	A	4157.735780147634	coherent
934.6208	0.0925007687183097	24	diastole	10	A	4157.735780147634	coherent
934.8085	0.0925007687183097	24	diastole	11	B	500.0	coherent
934.9959	0.0925007687183097	24	diastole	12	A	4157.735780147634	coherent
935.4509	0.0925007687183097	24	diastole	13	A	4157.735780147634	coherent
935.6385	0.0925007687183097	24	diastole	14	B	500.0	coherent
935.8259	0.0925007687183097	24	diastole	15	A	4157.735780147634	coherent
936.172	0.0925007687183097	24	diastole	16	A	4157.735780147634	coherent
936.3634	0.0925007687183097	24	diastole	17	B	500.0	coherent
936.5545	0.0925007687183097	24	diastole	18	A	4157.735780147634	coherent
936.9079	0.0925007687183097	24	diastole	19	A	4157.735780147634	coherent
937.0968	0.0925007687183097	24	diastole	20	B	500.0	coherent
937.2854	0.0925007687183097	24	diastole	21	A	4157.735780147634	coherent
937.6579	0.0925007687183097	24	diastole	22	A	4157.735780147634	coherent
937.8468	0.0925007687183097	24	diastole	23	B	500.0	coherent
938.0354	0.0925007687183097	24	diastole	24	A	4157.735780147634	coherent
938.4979	0.0925007687183097	24	diastole	25	A	4157.735780147634	coherent
938.6868	0.0925007687183097	24	diastole	26	B	500.0	coherent
938.8754	0.0925007687183097	24	diastole	27	A	4157.735780147634	coherent
939.3379	0.0925007687183097	24	diastole	28	A	4157.735780147634	coherent
939.5268	0.0925007687183097	24	diastole	29	B	500.0	coherent
939.7154	0.0925007687183097	24	diastole	30	A	4157.735780147634	coherent
940.1321	0.0925007687183097	24	diastole	31	A	4157.735780147634	coherent
940.3235	0.0925007687183097	24	diastole	32	B	500.0	coherent
940.5146	0.0925007687183097	24	diastole	33	A	4157.735780147634	coherent
940.9121	0.0925007687183097	24	diastole	34	A	4157.735780147634	coherent
941.1035	0.0925007687183097	24	diastole	35	B	500.0	coherent
941.2947	0.0925007687183097	24	diastole	36	A	4157.735780147634	coherent
944.5652	0.0950004623737186	25	diastole	1	A	1987.9452401467304	coherent
944.7551	0.0950004623737186	25	diastole	2	B	500.0	coherent
944.9452	0.0950004623737186	25	diastole	3	A	1987.9452401467304	coherent
945.298	0.0950004623737186	25	diastole	4	A	1987.9452401467304	coherent
945.4867	0.0950004623737186	25	diastole	5	B	500.0	coherent
945.6755	0.0950004623737186	25	diastole	6	A	1987.9452401467304	coherent
946.0981	0.0950004623737186	25	diastole	7	A	1987.9452401467304	coherent
946.2867	0.0950004623737186	25	diastole	8	B	500.0	coherent
946.4756	0.0950004623737186	25	diastole	9	A	1987.9452401467304	coherent
946.8508	0.0950004623737186	25	diastole	10	A	1987.9452401467304	coherent
947.0397	0.0950004623737186	25	diastole	11	B	500.0	coherent
947.2287	0.0950004623737186	25	diastole	12	A	1987.9452401467304	coherent
947.5322	0.0950004623737186	25	diastole	13	A	1987.9452401467304	coherent
947.7198	0.0950004623737186	25	diastole	14	B	500.0	coherent
947.9076	0.0950004623737186	25	diastole	15	A	1987.9452401467304	coherent
948.2206	0.0950004623737186	25	diastole	16	A	1987.9452401467304	coherent
948.4082	0.0950004623737186	25	diastole	17	B	500.0	coherent
948.596	0.0950004623737186	25	diastole	18	A	1987.9452401467304	coherent
948.952	0.0950004623737186	25	diastole	19	A	1987.9452401467304	coherent
949.1382	0.0950004623737186	25	diastole	20	B	500.0	coherent
949.3245	0.0950004623737186	25	diastole	21	A	1987.9452401467304	coherent
949.6147	0.0950004623737186	25	diastole	22	A	1987.9452401467304	coherent
949.7996	0.0950004623737186	25	diastole	23	B	500.0	coherent
949.9846	0.0950004623737186	25	diastole	24	A	1987.9452401467304	coherent
950.2847	0.0950004623737186	25	diastole	25	A	1987.9452401467304	coherent
950.4696	0.0950004623737186	25	diastole	26	B	500.0	coherent
950.6546	0.0950004623737186	25	diastole	27	A	1987.9452401467304	coherent
950.9546	0.0950004623737186	25	diastole	28	A	1987.9452401467304	coherent
951.1395	0.0950004623737186	25	diastole	29	B	500.0	coherent
951.3246	0.0950004623737186	25	diastole	30	A	1987.9452401467304	coherent
951.6809	0.0950004623737186	25	diastole	31	A	1987.9452401467304	coherent
951.8633	0.0950004623737186	25	diastole	32	B	500.0	coherent
952.0459	0.0950004623737186	25	diastole	33	A	1987.9452401467304	coherent
952.4213	0.0950004623737186	25	diastole	34	A	1987.9452401467304	coherent
952.6037	0.0950004623737186	25	diastole	35	B	500.0	coherent
952.7863	0.0950004623737186	25	diastole	36	A	1987.9452401467304	coherent
953.1309	0.0950004623737186	25	diastole	37	A	1987.9452401467304	coherent
953.3133	0.0950004623737186	25	diastole	38	B	500.0	coherent
953.4958	0.0950004623737186	25	diastole	39	A	1987.9452401467304	coherent
957.9278	0.0912491875351406	26	systole	1	A	886.9712202217811	coherent
958.1098	0.0912491875351406	26	systole	2	B	500.0	coherent
958.2928	0.0912491875351406	26	systole	3	A	886.9712202217811	coherent
958.6174	0.0912491875351406	26	systole	4	A	886.9712202217811	coherent
958.7994	0.0912491875351406	26	systole	5	B	500.0	coherent
958.9824	0.0912491875351406	26	systole	6	A	886.9712202217811	coherent
959.3075	0.0912491875351406	26	systole	7	A	886.9712202217811	coherent
959.4894	0.0912491875351406	26	systole	8	B	500.0	coherent
959.6725	0.0912491875351406	26	systole	9	A	886.9712202217811	coherent
960.0775	0.0912491875351406	26	systole	10	A	886.9712202217811	coherent
960.2595	0.0912491875351406	26	systole	11	B	500.0	coherent
960.4425	0.0912491875351406	26	systole	12	A	886.9712202217811	coherent
960.8475	0.0912491875351406	26	systole	13	A	886.9712202217811	coherent
961.0295	0.0912491875351406	26	systole	14	B	500.0	coherent
961.2125	0.0912491875351406	26	systole	15	A	886.9712202217811	coherent
961.533	0.0912491875351406	26	systole	16	A	886.9712202217811	coherent
961.7137	0.0912491875351406	26	systole	17	B	500.0	coherent
961.8955	0.0912491875351406	26	systole	18	A	886.9712202217811	coherent
962.3184	0.0912491875351406	26	systole	19	A	886.9712202217811	coherent
962.5006	0.0912491875351406	26	systole	20	B	500.0	coherent
962.6838	0.0912491875351406	26	systole	21	A	886.9712202217811	coherent
963.0984	0.0912491875351406	26	systole	22	A	886.9712202217811	coherent
963.2806	0.0912491875351406	26	systole	23	B	500.0	coherent
963.4638	0.0912491875351406	26	systole	24	A	886.9712202217811	coherent
963.806	0.0912491875351406	26	systole	25	A	886.9712202217811	coherent
963.9853	0.0912491875351406	26	systole	26	B	500.0	coherent
964.1655	0.0912491875351406	26	systole	27	A	886.9712202217811	coherent
964.4621	0.0912491875351406	26	systole	28	A	886.9712202217811	coherent
964.6376	0.0912491875351406	26	systole	29	B	500.0	coherent
964.8142	0.0912491875351406	26	systole	30	A	886.9712202217811	coherent
965.1812	0.0912491875351406	26	systole	31	A	886.9712202217811	coherent
965.3592	0.0912491875351406	26	systole	32	B	500.0	coherent
965.5383	0.0912491875351406	26	systole	33	A	886.9712202217811	coherent
965.8912	0.0912491875351406	26	systole	34	A	886.9712202217811	coherent
966.0692	0.0912491875351406	26	systole	35	B	500.0	coherent
966.2483	0.0912491875351406	26	systole	36	A	886.9712202217811	coherent
966.5612	0.0912491875351406	26	systole	37	A	886.9712202217811	coherent
966.7392	0.0912491875351406	26	systole	38	B	500.0	coherent
966.9183	0.0912491875351406	26	systole	39	A	886.9712202217811	coherent
967.2769	0.0912491875351406	26	systole	40	A	886.9712202217811	coherent
967.4539	0.0912491875351406	26	systole	41	B	500.0	coherent
967.6319	0.0912491875351406	26	systole	42	A	886.9712202217811	coherent
985.0916	0.0931214812444523	27	systole	1	A	907.6609849845596	coherent
985.2774	0.0931214812444523	27	systole	2	B	500.0	coherent
985.4641	0.0931214812444523	27	systole	3	A	907.6609849845596	coherent
985.7916	0.0931214812444523	27	systole	4	A	907.6609849845596	coherent
985.9773	0.0931214812444523	27	systole	5	B	500.0	coherent
986.164	0.0931214812444523	27	systole	6	A	907.6609849845596	coherent
986.4915	0.0931214812444523	27	systole	7	A	907.6609849845596	coherent
986.6773	0.0931214812444523	27	systole	8	B	500.0	coherent
986.864	0.0931214812444523	27	systole	9	A	907.6609849845596	coherent
987.1915	0.0931214812444523	27	systole	10	A	907.6609849845596	coherent
987.3773	0.0931214812444523	27	systole	11	B	500.0	coherent
987.564	0.0931214812444523	27	systole	12	A	907.6609849845596	coherent
987.9365	0.0931214812444523	27	systole	13	A	907.6609849845596	coherent
988.1235	0.0931214812444523	27	systole	14	B	500.0	coherent
988.3114	0.0931214812444523	27	systole	15	A	907.6609849845596	coherent
988.612	0.0931214812444523	27	systole	16	A	907.6609849845596	coherent
988.7978	0.0931214812444523	27	systole	17	B	500.0	coherent
988.9846	0.0931214812444523	27	systole	18	A	907.6609849845596	coherent
989.3221	0.0931214812444523	27	systole	19	A	907.6609849845596	coherent
989.5079	0.0931214812444523	27	systole	20	B	500.0	coherent
989.6946	0.0931214812444523	27	systole	21	A	907.6609849845596	coherent
990.0321	0.0931214812444523	27	systole	22	A	907.6609849845596	coherent
990.2179	0.0931214812444523	27	systole	23	B	500.0	coherent
990.4047	0.0931214812444523	27	systole	24	A	907.6609849845596	coherent
990.6738	0.0931214812444523	27	systole	25	A	907.6609849845596	coherent
990.8546	0.0931214812444523	27	systole	26	B	500.0	coherent
991.0364	0.0931214812444523	27	systole	27	A	907.6609849845596	coherent
991.2953	0.0931214812444523	27	systole	28	A	907.6609849845596	coherent
991.4711	0.0931214812444523	27	systole	29	B	500.0	coherent
991.6478	0.0931214812444523	27	systole	30	A	907.6609849845596	coherent
992.0206	0.0931214812444523	27	systole	31	A	907.6609849845596	coherent
992.1951	0.0931214812444523	27	systole	32	B	500.0	coherent
992.3707	0.0931214812444523	27	systole	33	A	907.6609849845596	coherent
992.7609	0.0931214812444523	27	systole	34	A	907.6609849845596	coherent
992.9355	0.0931214812444523	27	systole	35	B	500.0	coherent
993.1111	0.0931214812444523	27	systole	36	A	907.6609849845596	coherent
993.5014	0.0931214812444523	27	systole	37	A	907.6609849845596	coherent
993.6759	0.0931214812444523	27	systole	38	B	500.0	coherent
993.8515	0.0931214812444523	27	systole	39	A	907.6609849845596	coherent
994.2417	0.0931214812444523	27	systole	40	A	907.6609849845596	coherent
994.4163	0.0931214812444523	27	systole	41	B	500.0	coherent
994.5918	0.0931214812444523	27	systole	42	A	907.6609849845596	coherent
1000.1993	0.0874888124526478	28	diastole	1	A	2081.769764253799	streaming
1000.3706	0.0874888124526478	28	diastole	2	B	500.0	streaming
1000.5419	0.0874888124526478	28	diastole	3	A	2081.769764253799	streaming
1000.8697	0.0874888124526478	28	diastole	4	A	2081.769764253799	streaming
1001.041	0.0874888124526478	28	diastole	5	B	500.0	streaming
1001.2123	0.0874888124526478	28	diastole	6	A	2081.769764253799	streaming
1001.5093	0.0874888124526478	28	diastole	7	A	2081.769764253799	streaming
1001.6807	0.0874888124526478	28	diastole	8	B	500.0	streaming
1001.852	0.0874888124526478	28	diastole	9	A	2081.769764253799	streaming
1002.149	0.0874888124526478	28	diastole	10	A	2081.769764253799	streaming
1002.3203	0.0874888124526478	28	diastole	11	B	500.0	streaming
1002.4917	0.0874888124526478	28	diastole	12	A	2081.769764253799	streaming
1002.8393	0.0874888124526478	28	diastole	13	A	2081.769764253799	streaming
1003.0107	0.0874888124526478	28	diastole	14	B	500.0	streaming
1003.182	0.0874888124526478	28	diastole	15	A	2081.769764253799	streaming
1003.539	0.0874888124526478	28	diastole	16	A	2081.769764253799	streaming
1003.7103	0.0874888124526478	28	diastole	17	B	500.0	streaming
1003.8817	0.0874888124526478	28	diastole	18	A	2081.769764253799	streaming
1004.2112	0.0874888124526478	28	diastole	19	A	2081.769764253799	streaming
1004.3812	0.0874888124526478	28	diastole	20	B	500.0	streaming
1004.5512	0.0874888124526478	28	diastole	21	A	2081.769764253799	streaming
1004.8907	0.0874888124526478	28	diastole	22	A	2081.769764253799	streaming
1005.0607	0.0874888124526478	28	diastole	23	B	500.0	streaming
1005.2307	0.0874888124526478	28	diastole	24	A	2081.769764253799	streaming
1005.6211	0.0874888124526478	28	diastole	25	A	2081.769764253799	streaming
1005.7911	0.0874888124526478	28	diastole	26	B	500.0	streaming
1005.9611	0.0874888124526478	28	diastole	27	A	2081.769764253799	streaming
1006.2836	0.0874888124526478	28	diastole	28	A	2081.769764253799	streaming
1006.4524	0.0874888124526478	28	diastole	29	B	500.0	streaming
1006.6211	0.0874888124526478	28	diastole	30	A	2081.769764253799	streaming
1006.9269	0.0874888124526478	28	diastole	31	A	2081.769764253799	streaming
1007.0944	0.0874888124526478	28	diastole	32	B	500.0	streaming
1007.2619	0.0874888124526478	28	diastole	33	A	2081.769764253799	streaming
1007.5773	0.0874888124526478	28	diastole	34	A	2081.769764253799	streaming
1007.7448	0.0874888124526478	28	diastole	35	B	500.0	streaming
1007.9123	0.0874888124526478	28	diastole	36	A	2081.769764253799	streaming
1008.3181	0.0874888124526478	28	diastole	37	A	2081.769764253799	streaming
1008.4893	0.0874888124526478	28	diastole	38	B	500.0	streaming
1008.6605	0.0874888124526478	28	diastole	39	A	2081.769764253799	streaming
1008.9881	0.0874888124526478	28	diastole	40	A	2081.769764253799	streaming
1009.1593	0.0874888124526478	28	diastole	41	B	500.0	streaming
1009.3305	0.0874888124526478	28	diastole	42	A	2081.769764253799	streaming
1011.933	0.0850040827062912	29	diastole	1	A	1343.2722489379992	streaming
1012.1068	0.0850040827062912	29	diastole	2	B	500.0	streaming
1012.2805	0.0850040827062912	29	diastole	3	A	1343.2722489379992	streaming
1012.7171	0.0850040827062912	29	diastole	4	A	1343.2722489379992	streaming
1012.8934	0.0850040827062912	29	diastole	5	B	500.0	streaming
1013.0697	0.0850040827062912	29	diastole	6	A	1343.2722489379992	streaming
1013.3872	0.0850040827062912	29	diastole	7	A	1343.2722489379992	streaming
1013.5635	0.0850040827062912	29	diastole	8	B	500.0	streaming
1013.7397	0.0850040827062912	29	diastole	9	A	1343.2722489379992	streaming
1014.0572	0.0850040827062912	29	diastole	10	A	1343.2722489379992	streaming
1014.2335	0.0850040827062912	29	diastole	11	B	500.0	streaming
1014.4097	0.0850040827062912	29	diastole	12	A	1343.2722489379992	streaming
1014.7272	0.0850040827062912	29	diastole	13	A	1343.2722489379992	streaming
1014.9035	0.0850040827062912	29	diastole	14	B	500.0	streaming
1015.0797	0.0850040827062912	29	diastole	15	A	1343.2722489379992	streaming
1015.4372	0.0850040827062912	29	diastole	16	A	1343.2722489379992	streaming
1015.6135	0.0850040827062912	29	diastole	17	B	500.0	streaming
1015.7897	0.0850040827062912	29	diastole	18	A	1343.2722489379992	streaming
1016.0972	0.0850040827062912	29	diastole	19	A	1343.2722489379992	streaming
1016.2734	0.0850040827062912	29	diastole	20	B	500.0	streaming
1016.4497	0.0850040827062912	29	diastole	21	A	1343.2722489379992	streaming
1016.7229	0.0850040827062912	29	diastole	22	A	1343.2722489379992	streaming
1016.8967	0.0850040827062912	29	diastole	23	B	500.0	streaming
1017.0705	0.0850040827062912	29	diastole	24	A	1343.2722489379992	streaming
1017.3629	0.0850040827062912	29	diastole	25	A	1343.2722489379992	streaming
1017.5367	0.0850040827062912	29	diastole	26	B	500.0	streaming
1017.7104	0.0850040827062912	29	diastole	27	A	1343.2722489379992	streaming
1018.0029	0.0850040827062912	29	diastole	28	A	1343.2722489379992	streaming
1018.1767	0.0850040827062912	29	diastole	29	B	500.0	streaming
1018.3504	0.0850040827062912	29	diastole	30	A	1343.2722489379992	streaming
1018.7329	0.0850040827062912	29	diastole	31	A	1343.2722489379992	streaming
1018.9067	0.0850040827062912	29	diastole	32	B	500.0	streaming
1019.0804	0.0850040827062912	29	diastole	33	A	1343.2722489379992	streaming
1019.4629	0.0850040827062912	29	diastole	34	A	1343.2722489379992	streaming
1019.6367	0.0850040827062912	29	diastole	35	B	500.0	streaming
1019.8104	0.0850040827062912	29	diastole	36	A	1343.2722489379992	streaming
1020.1288	0.0850040827062912	29	diastole	37	A	1343.2722489379992	streaming
1020.3	0.0850040827062912	29	diastole	38	B	500.0	streaming
1020.4713	0.0850040827062912	29	diastole	39	A	1343.2722489379992	streaming
1020.8415	0.0850040827062912	29	diastole	40	A	1343.2722489379992	streaming
1021.0115	0.0850040827062912	29	diastole	41	B	500.0	streaming
1021.1815	0.0850040827062912	29	diastole	42	A	1343.2722489379992	streaming
1021.5612	0.0850040827062912	29	diastole	43	A	1343.2722489379992	streaming
1021.7313	0.0850040827062912	29	diastole	44	B	500.0	streaming
1021.9012	0.0850040827062912	29	diastole	45	A	1343.2722489379992	streaming
1027.0123	0.0850068514118902	30	diastole	1	A	928.8333655934664	coherent
1027.1819	0.0850068514118902	30	diastole	2	B	500.0	coherent
1027.3523	0.0850068514118902	30	diastole	3	A	928.8333655934664	coherent
1027.7411	0.0850068514118902	30	diastole	4	A	928.8333655934664	coherent
1027.9119	0.0850068514118902	30	diastole	5	B	500.0	coherent
1028.0836	0.0850068514118902	30	diastole	6	A	928.8333655934664	coherent
1028.4518	0.0850068514118902	30	diastole	7	A	928.8333655934664	coherent
1028.6249	0.0850068514118902	30	diastole	8	B	500.0	coherent
1028.7988	0.0850068514118902	30	diastole	9	A	928.8333655934664	coherent
1029.1498	0.0850068514118902	30	diastole	10	A	928.8333655934664	coherent
1029.3229	0.0850068514118902	30	diastole	11	B	500.0	coherent
1029.4968	0.0850068514118902	30	diastole	12	A	928.8333655934664	coherent
1029.8371	0.0850068514118902	30	diastole	13	A	928.8333655934664	coherent
1030.01	0.0850068514118902	30	diastole	14	B	500.0	coherent
1030.1837	0.0850068514118902	30	diastole	15	A	928.8333655934664	coherent
1030.5255	0.0850068514118902	30	diastole	16	A	928.8333655934664	coherent
1030.6984	0.0850068514118902	30	diastole	17	B	500.0	coherent
1030.8722	0.0850068514118902	30	diastole	18	A	928.8333655934664	coherent
1031.1558	0.0850068514118902	30	diastole	19	A	928.8333655934664	coherent
1031.3287	0.0850068514118902	30	diastole	20	B	500.0	coherent
1031.5024	0.0850068514118902	30	diastole	21	A	928.8333655934664	coherent
1031.8029	0.0850068514118902	30	diastole	22	A	928.8333655934664	coherent
1031.9735	0.0850068514118902	30	diastole	23	B	500.0	coherent
1032.1449	0.0850068514118902	30	diastole	24	A	928.8333655934664	coherent
1032.463	0.0850068514118902	30	diastole	25	A	928.8333655934664	coherent
1032.6336	0.0850068514118902	30	diastole	26	B	500.0	coherent
1032.805	0.0850068514118902	30	diastole	27	A	928.8333655934664	coherent
1033.1529	0.0850068514118902	30	diastole	28	A	928.8333655934664	coherent
1033.3235	0.0850068514118902	30	diastole	29	B	500.0	coherent
1033.4949	0.0850068514118902	30	diastole	30	A	928.8333655934664	coherent
1033.8429	0.0850068514118902	30	diastole	31	A	928.8333655934664	coherent
1034.0134	0.0850068514118902	30	diastole	32	B	500.0	coherent
1034.1849	0.0850068514118902	30	diastole	33	A	928.8333655934664	coherent
1034.5044	0.0850068514118902	30	diastole	34	A	928.8333655934664	coherent
1034.675	0.0850068514118902	30	diastole	35	B	500.0	coherent
1034.8465	0.0850068514118902	30	diastole	36	A	928.8333655934664	coherent
1035.1661	0.0850068514118902	30	diastole	37	A	928.8333655934664	coherent
1035.3366	0.0850068514118902	30	diastole	38	B	500.0	coherent
1035.5081	0.0850068514118902	30	diastole	39	A	928.8333655934664	coherent
1039.8558	0.088229032291565	31	systole	1	A	928.8333655934664	streaming
1040.0318	0.088229032291565	31	systole	2	B	500.0	streaming
1040.2087	0.088229032291565	31	systole	3	A	928.8333655934664	streaming
1040.5356	0.088229032291565	31	systole	4	A	928.8333655934664	streaming
1040.7116	0.088229032291565	31	systole	5	B	500.0	streaming
1040.8885	0.088229032291565	31	systole	6	A	928.8333655934664	streaming
1041.2154	0.088229032291565	31	systole	7	A	928.8333655934664	streaming
1041.3915	0.088229032291565	31	systole	8	B	500.0	streaming
1041.5683	0.088229032291565	31	systole	9	A	928.8333655934664	streaming
1041.8757	0.088229032291565	31	systole	10	A	928.8333655934664	streaming
1042.049	0.088229032291565	31	systole	11	B	500.0	streaming
1042.2232	0.088229032291565	31	systole	12	A	928.8333655934664	streaming
1042.5457	0.088229032291565	31	systole	13	A	928.8333655934664	streaming
1042.719	0.088229032291565	31	systole	14	B	500.0	streaming
1042.8933	0.088229032291565	31	systole	15	A	928.8333655934664	streaming
1043.3049	0.088229032291565	31	systole	16	A	928.8333655934664	streaming
1043.4808	0.088229032291565	31	systole	17	B	500.0	streaming
1043.6575	0.088229032291565	31	systole	18	A	928.8333655934664	streaming
1044.055	0.088229032291565	31	systole	19	A	928.8333655934664	streaming
1044.2308	0.088229032291565	31	systole	20	B	500.0	streaming
1044.4076	0.088229032291565	31	systole	21	A	928.8333655934664	streaming
1044.7111	0.088229032291565	31	systole	22	A	928.8333655934664	streaming
1044.8831	0.088229032291565	31	systole	23	B	500.0	streaming
1045.056	0.088229032291565	31	systole	24	A	928.8333655934664	streaming
1045.4011	0.088229032291565	31	systole	25	A	928.8333655934664	streaming
1045.5731	0.088229032291565	31	systole	26	B	500.0	streaming
1045.7461	0.088229032291565	31	systole	27	A	928.8333655934664	streaming
1046.0911	0.088229032291565	31	systole	28	A	928.8333655934664	streaming
1046.2631	0.088229032291565	31	systole	29	B	500.0	streaming
1046.4361	0.088229032291565	31	systole	30	A	928.8333655934664	streaming
1046.8011	0.088229032291565	31	systole	31	A	928.8333655934664	streaming
1046.9732	0.088229032291565	31	systole	32	B	500.0	streaming
1047.1461	0.088229032291565	31	systole	33	A	928.8333655934664	streaming
1047.5111	0.088229032291565	31	systole	34	A	928.8333655934664	streaming
1047.6832	0.088229032291565	31	systole	35	B	500.0	streaming
1047.8561	0.088229032291565	31	systole	36	A	928.8333655934664	streaming
1048.2211	0.088229032291565	31	systole	37	A	928.8333655934664	streaming
1048.3932	0.088229032291565	31	systole	38	B	500.0	streaming
1048.5661	0.088229032291565	31	systole	39	A	928.8333655934664	streaming
1048.9928	0.088229032291565	31	systole	40	A	928.8333655934664	streaming
1049.1648	0.088229032291565	31	systole	41	B	500.0	streaming
1049.3378	0.088229032291565	31	systole	42	A	928.8333655934664	streaming
1051.3813	0.085653674963396	32	diastole	1	A	928.8333655934664	coherent
1051.5522	0.085653674963396	32	diastole	2	B	500.0	coherent
1051.7239	0.085653674963396	32	diastole	3	A	928.8333655934664	coherent
1052.1033	0.085653674963396	32	diastole	4	A	928.8333655934664	coherent
1052.2742	0.085653674963396	32	diastole	5	B	500.0	coherent
1052.4459	0.085653674963396	32	diastole	6	A	928.8333655934664	coherent
1052.9243	0.085653674963396	32	diastole	7	A	928.8333655934664	coherent
1053.0989	0.085653674963396	32	diastole	8	B	500.0	coherent
1053.2743	0.085653674963396	32	diastole	9	A	928.8333655934664	coherent
1053.6485	0.085653674963396	32	diastole	10	A	928.8333655934664	coherent
1053.8255	0.085653674963396	32	diastole	11	B	500.0	coherent
1054.0034	0.085653674963396	32	diastole	12	A	928.8333655934664	coherent
1054.2875	0.085653674963396	32	diastole	13	A	928.8333655934664	coherent
1054.4609	0.085653674963396	32	diastole	14	B	500.0	coherent
1054.6351	0.085653674963396	32	diastole	15	A	928.8333655934664	coherent
1054.9559	0.085653674963396	32	diastole	16	A	928.8333655934664	coherent
1055.1293	0.085653674963396	32	diastole	17	B	500.0	coherent
1055.3035	0.085653674963396	32	diastole	18	A	928.8333655934664	coherent
1055.6355	0.085653674963396	32	diastole	19	A	928.8333655934664	coherent
1055.8089	0.085653674963396	32	diastole	20	B	500.0	coherent
1055.9831	0.085653674963396	32	diastole	21	A	928.8333655934664	coherent
1056.2749	0.085653674963396	32	diastole	22	A	928.8333655934664	coherent
1056.4482	0.085653674963396	32	diastole	23	B	500.0	coherent
1056.6223	0.085653674963396	32	diastole	24	A	928.8333655934664	coherent
1056.9065	0.085653674963396	32	diastole	25	A	928.8333655934664	coherent
1057.0747	0.085653674963396	32	diastole	26	B	500.0	coherent
1057.2438	0.085653674963396	32	diastole	27	A	928.8333655934664	coherent
1057.6109	0.085653674963396	32	diastole	28	A	928.8333655934664	coherent
1057.7816	0.085653674963396	32	diastole	29	B	500.0	coherent
1057.9533	0.085653674963396	32	diastole	30	A	928.8333655934664	coherent
1058.3009	0.085653674963396	32	diastole	31	A	928.8333655934664	coherent
1058.4716	0.085653674963396	32	diastole	32	B	500.0	coherent
1058.6433	0.085653674963396	32	diastole	33	A	928.8333655934664	coherent
1058.9356	0.085653674963396	32	diastole	34	A	928.8333655934664	coherent
1059.1037	0.085653674963396	32	diastole	35	B	500.0	coherent
1059.2726	0.085653674963396	32	diastole	36	A	928.8333655934664	coherent
1059.6656	0.085653674963396	32	diastole	37	A	928.8333655934664	coherent
1059.8337	0.085653674963396	32	diastole	38	B	500.0	coherent
1060.0026	0.085653674963396	32	diastole	39	A	928.8333655934664	coherent
1060.3709	0.085653674963396	32	diastole	40	A	928.8333655934664	coherent
1060.5417	0.085653674963396	32	diastole	41	B	500.0	coherent
1060.7133	0.085653674963396	32	diastole	42	A	928.8333655934664	coherent
1063.2162	0.086251106171403	33	diastole	1	A	950.4996196948616	streaming
1063.3883	0.086251106171403	33	diastole	2	B	500.0	streaming
1063.5612	0.086251106171403	33	diastole	3	A	950.4996196948616	streaming
1063.9662	0.086251106171403	33	diastole	4	A	950.4996196948616	streaming
1064.1383	0.086251106171403	33	diastole	5	B	500.0	streaming
1064.3112	0.086251106171403	33	diastole	6	A	950.4996196948616	streaming
1064.6464	0.086251106171403	33	diastole	7	A	950.4996196948616	streaming
1064.8185	0.086251106171403	33	diastole	8	B	500.0	streaming
1064.9914	0.086251106171403	33	diastole	9	A	950.4996196948616	streaming
1065.4647	0.086251106171403	33	diastole	10	A	950.4996196948616	streaming
1065.6418	0.086251106171403	33	diastole	11	B	500.0	streaming
1065.8197	0.086251106171403	33	diastole	12	A	950.4996196948616	streaming
1066.2547	0.086251106171403	33	diastole	13	A	950.4996196948616	streaming
1066.4318	0.086251106171403	33	diastole	14	B	500.0	streaming
1066.6097	0.086251106171403	33	diastole	15	A	950.4996196948616	streaming
1067.013	0.086251106171403	33	diastole	16	A	950.4996196948616	streaming
1067.1951	0.086251106171403	33	diastole	17	B	500.0	streaming
1067.378	0.086251106171403	33	diastole	18	A	950.4996196948616	streaming
1067.7427	0.086251106171403	33	diastole	19	A	950.4996196948616	streaming
1067.9248	0.086251106171403	33	diastole	20	B	500.0	streaming
1068.1076	0.086251106171403	33	diastole	21	A	950.4996196948616	streaming
1068.4725	0.086251106171403	33	diastole	22	A	950.4996196948616	streaming
1068.6546	0.086251106171403	33	diastole	23	B	500.0	streaming
1068.8375	0.086251106171403	33	diastole	24	A	950.4996196948616	streaming
1069.2326	0.086251106171403	33	diastole	25	A	950.4996196948616	streaming
1069.4147	0.086251106171403	33	diastole	26	B	500.0	streaming
1069.5976	0.086251106171403	33	diastole	27	A	950.4996196948616	streaming
1069.9426	0.086251106171403	33	diastole	28	A	950.4996196948616	streaming
1070.1247	0.086251106171403	33	diastole	29	B	500.0	streaming
1070.3076	0.086251106171403	33	diastole	30	A	950.4996196948616	streaming
1070.6727	0.086251106171403	33	diastole	31	A	950.4996196948616	streaming
1070.8548	0.086251106171403	33	diastole	32	B	500.0	streaming
1071.0376	0.086251106171403	33	diastole	33	A	950.4996196948616	streaming
1071.4526	0.086251106171403	33	diastole	34	A	950.4996196948616	streaming
1071.6346	0.086251106171403	33	diastole	35	B	500.0	streaming
1071.8175	0.086251106171403	33	diastole	36	A	950.4996196948616	streaming
1072.2325	0.086251106171403	33	diastole	37	A	950.4996196948616	streaming
1072.4146	0.086251106171403	33	diastole	38	B	500.0	streaming
1072.5975	0.086251106171403	33	diastole	39	A	950.4996196948616	streaming
1085.5732	0.0962527067167684	34	systole	1	A	737.5583956554606	streaming
1085.7684	0.0962527067167684	34	systole	2	B	500.0	streaming
1085.9632	0.0962527067167684	34	systole	3	A	737.5583956554606	streaming
1086.3832	0.0962527067167684	34	systole	4	A	737.5583956554606	streaming
1086.5784	0.0962527067167684	34	systole	5	B	500.0	streaming
1086.7732	0.0962527067167684	34	systole	6	A	737.5583956554606	streaming
1087.1932	0.0962527067167684	34	systole	7	A	737.5583956554606	streaming
1087.3884	0.0962527067167684	34	systole	8	B	500.0	streaming
1087.5832	0.0962527067167684	34	systole	9	A	737.5583956554606	streaming
1088.0332	0.0962527067167684	34	systole	10	A	737.5583956554606	streaming
1088.2284	0.0962527067167684	34	systole	11	B	500.0	streaming
1088.4232	0.0962527067167684	34	systole	12	A	737.5583956554606	streaming
1088.8323	0.0962527067167684	34	systole	13	A	737.5583956554606	streaming
1089.03	0.0962527067167684	34	systole	14	B	500.0	streaming
1089.2273	0.0962527067167684	34	systole	15	A	737.5583956554606	streaming
1089.5423	0.0962527067167684	34	systole	16	A	737.5583956554606	streaming
1089.74	0.0962527067167684	34	systole	17	B	500.0	streaming
1089.9373	0.0962527067167684	34	systole	18	A	737.5583956554606	streaming
1090.2524	0.0962527067167684	34	systole	19	A	737.5583956554606	streaming
1090.4501	0.0962527067167684	34	systole	20	B	500.0	streaming
1090.6474	0.0962527067167684	34	systole	21	A	737.5583956554606	streaming
1091.0569	0.0962527067167684	34	systole	22	A	737.5583956554606	streaming
1091.2558	0.0962527067167684	34	systole	23	B	500.0	streaming
1091.4544	0.0962527067167684	34	systole	24	A	737.5583956554606	streaming
1091.8269	0.0962527067167684	34	systole	25	A	737.5583956554606	streaming
1092.0258	0.0962527067167684	34	systole	26	B	500.0	streaming
1092.2244	0.0962527067167684	34	systole	27	A	737.5583956554606	streaming
1092.5528	0.0962527067167684	34	systole	28	A	737.5583956554606	streaming
1092.7481	0.0962527067167684	34	systole	29	B	500.0	streaming
1092.9428	0.0962527067167684	34	systole	30	A	737.5583956554606	streaming
1093.2691	0.0962527067167684	34	systole	31	A	737.5583956554606	streaming
1093.4606	0.0962527067167684	34	systole	32	B	500.0	streaming
1093.6516	0.0962527067167684	34	systole	33	A	737.5583956554606	streaming
1093.9611	0.0962527067167684	34	systole	34	A	737.5583956554606	streaming
1094.1526	0.0962527067167684	34	systole	35	B	500.0	streaming
1094.3437	0.0962527067167684	34	systole	36	A	737.5583956554606	streaming
1094.6532	0.0962527067167684	34	systole	37	A	737.5583956554606	streaming
1094.8447	0.0962527067167684	34	systole	38	B	500.0	streaming
1095.0357	0.0962527067167684	34	systole	39	A	737.5583956554606	streaming
1099.4696	0.094255196978338	35	systole	1	A	672.5736556787729	streaming
1099.6583	0.094255196978338	35	systole	2	B	500.0	streaming
1099.8466	0.094255196978338	35	systole	3	A	672.5736556787729	streaming
1100.2386	0.094255196978338	35	systole	4	A	672.5736556787729	streaming
1100.4298	0.094255196978338	35	systole	5	B	500.0	streaming
1100.6206	0.094255196978338	35	systole	6	A	672.5736556787729	streaming
1100.9283	0.094255196978338	35	systole	7	A	672.5736556787729	streaming
1101.1195	0.094255196978338	35	systole	8	B	500.0	streaming
1101.3103	0.094255196978338	35	systole	9	A	672.5736556787729	streaming
1101.6486	0.094255196978338	35	systole	10	A	672.5736556787729	streaming
1101.8398	0.094255196978338	35	systole	11	B	500.0	streaming
1102.0306	0.094255196978338	35	systole	12	A	672.5736556787729	streaming
1102.4909	0.094255196978338	35	systole	13	A	672.5736556787729	streaming
1102.6882	0.094255196978338	35	systole	14	B	500.0	streaming
1102.8851	0.094255196978338	35	systole	15	A	672.5736556787729	streaming
1103.3602	0.094255196978338	35	systole	16	A	672.5736556787729	streaming
1103.5627	0.094255196978338	35	systole	17	B	500.0	streaming
1103.7648	0.094255196978338	35	systole	18	A	672.5736556787729	streaming
1104.1264	0.094255196978338	35	systole	19	A	672.5736556787729	streaming
1104.3252	0.094255196978338	35	systole	20	B	500.0	streaming
1104.5235	0.094255196978338	35	systole	21	A	672.5736556787729	streaming
1104.9064	0.094255196978338	35	systole	22	A	672.5736556787729	streaming
1105.1051	0.094255196978338	35	systole	23	B	500.0	streaming
1105.3035	0.094255196978338	35	systole	24	A	672.5736556787729	streaming
1105.5942	0.094255196978338	35	systole	25	A	672.5736556787729	streaming
1105.7868	0.094255196978338	35	systole	26	B	500.0	streaming
1105.9791	0.094255196978338	35	systole	27	A	672.5736556787729	streaming
1106.3687	0.094255196978338	35	systole	28	A	672.5736556787729	streaming
1106.5627	0.094255196978338	35	systole	29	B	500.0	streaming
1106.7562	0.094255196978338	35	systole	30	A	672.5736556787729	streaming
1107.1988	0.094255196978338	35	systole	31	A	672.5736556787729	streaming
1107.3927	0.094255196978338	35	systole	32	B	500.0	streaming
1107.5863	0.094255196978338	35	systole	33	A	672.5736556787729	streaming
1107.8795	0.094255196978338	35	systole	34	A	672.5736556787729	streaming
1108.0709	0.094255196978338	35	systole	35	B	500.0	streaming
1108.2619	0.094255196978338	35	systole	36	A	672.5736556787729	streaming
1113.021	0.0943587249494157	36	systole	1	A	737.5583956554606	coherent
1113.2074	0.0943587249494157	36	systole	2	B	500.0	coherent
1113.3934	0.0943587249494157	36	systole	3	A	737.5583956554606	coherent
1113.6618	0.0943587249494157	36	systole	4	A	737.5583956554606	coherent
1113.8458	0.0943587249494157	36	systole	5	B	500.0	coherent
1114.0293	0.0943587249494157	36	systole	6	A	737.5583956554606	coherent
1114.3118	0.0943587249494157	36	systole	7	A	737.5583956554606	coherent
1114.4958	0.0943587249494157	36	systole	8	B	500.0	coherent
1114.6793	0.0943587249494157	36	systole	9	A	737.5583956554606	coherent
1114.9382	0.0943587249494157	36	systole	10	A	737.5583956554606	coherent
1115.1184	0.0943587249494157	36	systole	11	B	500.0	coherent
1115.2982	0.0943587249494157	36	systole	12	A	737.5583956554606	coherent
1115.5782	0.0943587249494157	36	systole	13	A	737.5583956554606	coherent
1115.7584	0.0943587249494157	36	systole	14	B	500.0	coherent
1115.9382	0.0943587249494157	36	systole	15	A	737.5583956554606	coherent
1116.2636	0.0943587249494157	36	systole	16	A	737.5583956554606	coherent
1116.4426	0.0943587249494157	36	systole	17	B	500.0	coherent
1116.6211	0.0943587249494157	36	systole	18	A	737.5583956554606	coherent
1116.9537	0.0943587249494157	36	systole	19	A	737.5583956554606	coherent
1117.1327	0.0943587249494157	36	systole	20	B	500.0	coherent
1117.3112	0.0943587249494157	36	systole	21	A	737.5583956554606	coherent
1117.6209	0.0943587249494157	36	systole	22	A	737.5583956554606	coherent
1117.7936	0.0943587249494157	36	systole	23	B	500.0	coherent
1117.9659	0.0943587249494157	36	systole	24	A	737.5583956554606	coherent
1118.3109	0.0943587249494157	36	systole	25	A	737.5583956554606	coherent
1118.4836	0.0943587249494157	36	systole	26	B	500.0	coherent
1118.6559	0.0943587249494157	36	systole	27	A	737.5583956554606	coherent
1119.0309	0.0943587249494157	36	systole	28	A	737.5583956554606	coherent
1119.2036	0.0943587249494157	36	systole	29	B	500.0	coherent
1119.3759	0.0943587249494157	36	systole	30	A	737.5583956554606	coherent
1119.6772	0.0943587249494157	36	systole	31	A	737.5583956554606	coherent
1119.8461	0.0943587249494157	36	systole	32	B	500.0	coherent
1120.0147	0.0943587249494157	36	systole	33	A	737.5583956554606	coherent
1120.3772	0.0943587249494157	36	systole	34	A	737.5583956554606	coherent
1120.5462	0.0943587249494157	36	systole	35	B	500.0	coherent
1120.7148	0.0943587249494157	36	systole	36	A	737.5583956554606	coherent
1121.0773	0.0943587249494157	36	systole	37	A	737.5583956554606	coherent
1121.2463	0.0943587249494157	36	systole	38	B	500.0	coherent
