onset	duration	trial_num	trial_type	tone_num	tone_type	frequency	response
104.07700000000023	0.1000064724357798	1	diastole	1	B	500	systole
104.77880000000005	0.1000064724357798	1	diastole	2	B	500	systole
105.48890000000029	0.1000064724357798	1	diastole	3	B	500	systole
106.27050000000008	0.1000064724357798	1	diastole	4	B	500	systole
107.11880000000019	0.1000064724357798	1	diastole	5	B	500	systole
107.95890000000009	0.1000064724357798	1	diastole	6	B	500	systole
108.66550000000007	0.1000064724357798	1	diastole	7	B	500	systole
109.50559999999996	0.1000064724357798	1	diastole	8	B	500	systole
110.26890000000003	0.1000064724357798	1	diastole	9	B	500	systole
111.01400000000012	0.1000064724357798	1	diastole	10	B	500	systole
111.7840000000001	0.1000064724357798	1	diastole	11	B	500	systole
112.66390000000001	0.1000064724357798	1	diastole	12	B	500	systole
119.98720000000003	0.1006400876794941	2	diastole	1	B	500	diastole
120.72760000000017	0.1006400876794941	2	diastole	2	B	500	diastole
121.4680000000003	0.1006400876794941	2	diastole	3	B	500	diastole
122.1894000000002	0.1006400876794941	2	diastole	4	B	500	diastole
122.84680000000026	0.1006400876794941	2	diastole	5	B	500	diastole
123.64660000000003	0.1006400876794941	2	diastole	6	B	500	diastole
124.56960000000026	0.1006400876794941	2	diastole	7	B	500	diastole
125.42110000000002	0.1006400876794941	2	diastole	8	B	500	diastole
126.32090000000017	0.1006400876794941	2	diastole	9	B	500	diastole
127.20090000000027	0.1006400876794941	2	diastole	10	B	500	diastole
127.98109999999997	0.1006400876794941	2	diastole	11	B	500	diastole
128.76110000000017	0.1006400876794941	2	diastole	12	B	500	diastole
146.89530000000013	0.1025077708764001	3	diastole	1	B	500	diastole
147.69529999999986	0.1025077708764001	3	diastole	2	B	500	diastole
148.4952000000003	0.1025077708764001	3	diastole	3	B	500	diastole
149.2152000000001	0.1025077708764001	3	diastole	4	B	500	diastole
149.9351999999999	0.1025077708764001	3	diastole	5	B	500	diastole
150.67689999999993	0.1025077708764001	3	diastole	6	B	500	diastole
151.4019000000003	0.1025077708764001	3	diastole	7	B	500	diastole
152.04039999999986	0.1025077708764001	3	diastole	8	B	500	diastole
152.7204999999999	0.1025077708764001	3	diastole	9	B	500	diastole
153.4639000000002	0.1025077708764001	3	diastole	10	B	500	diastole
154.22400000000016	0.1025077708764001	3	diastole	11	B	500	diastole
154.9639000000002	0.1025077708764001	3	diastole	12	B	500	diastole
155.7255	0.1025077708764001	3	diastole	13	B	500	diastole
159.9327000000003	0.0943780752131715	4	systole	1	B	500	systole
160.7202000000002	0.0943780752131715	4	systole	2	B	500	systole
161.45020000000022	0.0943780752131715	4	systole	3	B	500	systole
162.0970000000002	0.0943780752131715	4	systole	4	B	500	systole
162.79530000000022	0.0943780752131715	4	systole	5	B	500	systole
163.50530000000026	0.0943780752131715	4	systole	6	B	500	systole
164.26119999999992	0.0943780752131715	4	systole	7	B	500	systole
165.01119999999992	0.0943780752131715	4	systole	8	B	500	systole
165.79530000000022	0.0943780752131715	4	systole	9	B	500	systole
166.5852	0.0943780752131715	4	systole	10	B	500	systole
167.37260000000015	0.0943780752131715	4	systole	11	B	500	systole
168.0709999999999	0.0943780752131715	4	systole	12	B	500	systole
168.78099999999995	0.0943780752131715	4	systole	13	B	500	systole
172.68780000000015	0.094992107595317	5	systole	1	B	500	systole
173.48779999999988	0.094992107595317	5	systole	2	B	500	systole
174.288	0.094992107595317	5	systole	3	B	500	systole
175.0003999999999	0.094992107595317	5	systole	4	B	500	systole
175.69540000000006	0.094992107595317	5	systole	5	B	500	systole
176.42540000000008	0.094992107595317	5	systole	6	B	500	systole
177.09540000000015	0.094992107595317	5	systole	7	B	500	systole
177.76540000000023	0.094992107595317	5	systole	8	B	500	systole
178.48550000000023	0.094992107595317	5	systole	9	B	500	systole
179.2854000000002	0.094992107595317	5	systole	10	B	500	systole
180.0254	0.094992107595317	5	systole	11	B	500	systole
180.7198000000003	0.094992107595317	5	systole	12	B	500	systole
181.51980000000003	0.094992107595317	5	systole	13	B	500	systole
188.2853	0.1006264499737881	6	diastole	1	B	500	systole
188.98720000000003	0.1006264499737881	6	diastole	2	B	500	systole
189.69730000000027	0.1006264499737881	6	diastole	3	B	500	systole
190.5572000000002	0.1006264499737881	6	diastole	4	B	500	systole
191.3720000000003	0.1006264499737881	6	diastole	5	B	500	systole
192.11040000000003	0.1006264499737881	6	diastole	6	B	500	systole
192.89040000000023	0.1006264499737881	6	diastole	7	B	500	systole
193.70890000000009	0.1006264499737881	6	diastole	8	B	500	systole
194.44860000000017	0.1006264499737881	6	diastole	9	B	500	systole
195.21190000000024	0.1006264499737881	6	diastole	10	B	500	systole
195.9919	0.1006264499737881	6	diastole	11	B	500	systole
196.8786	0.1006264499737881	6	diastole	12	B	500	systole
203.45530000000008	0.1006284752511419	7	diastole	1	B	500	diastole
204.21540000000005	0.1006284752511419	7	diastole	2	B	500	diastole
205.03549999999996	0.1006284752511419	7	diastole	3	B	500	diastole
205.85559999999987	0.1006284752511419	7	diastole	4	B	500	diastole
206.69570000000022	0.1006284752511419	7	diastole	5	B	500	diastole
207.5356999999999	0.1006284752511419	7	diastole	6	B	500	diastole
208.37570000000005	0.1006284752511419	7	diastole	7	B	500	diastole
209.22090000000026	0.1006284752511419	7	diastole	8	B	500	diastole
209.94410000000016	0.1006284752511419	7	diastole	9	B	500	diastole
210.6840000000002	0.1006284752511419	7	diastole	10	B	500	diastole
211.48399999999992	0.1006284752511419	7	diastole	11	B	500	diastole
212.2841000000003	0.1006284752511419	7	diastole	12	B	500	diastole
215.48890000000029	0.0994131006882526	8	diastole	1	B	500	diastole
216.25890000000027	0.0994131006882526	8	diastole	2	B	500	diastole
217.0951	0.0994131006882526	8	diastole	3	B	500	diastole
217.95209999999997	0.0994131006882526	8	diastole	4	B	500	diastole
218.79250000000002	0.0994131006882526	8	diastole	5	B	500	diastole
219.5077000000001	0.0994131006882526	8	diastole	6	B	500	diastole
220.2479000000003	0.0994131006882526	8	diastole	7	B	500	diastole
221.1242000000002	0.0994131006882526	8	diastole	8	B	500	diastole
221.79269999999997	0.0994131006882526	8	diastole	9	B	500	diastole
222.51110000000017	0.0994131006882526	8	diastole	10	B	500	diastole
223.41409999999996	0.0994131006882526	8	diastole	11	B	500	diastole
224.13959999999997	0.0994131006882526	8	diastole	12	B	500	diastole
227.0576000000001	0.1007245686487294	9	systole	1	B	500	diastole
227.7876000000001	0.1007245686487294	9	systole	2	B	500	diastole
228.65750000000025	0.1007245686487294	9	systole	3	B	500	diastole
229.45699999999988	0.1007245686487294	9	systole	4	B	500	diastole
230.25	0.1007245686487294	9	systole	5	B	500	diastole
231.04989999999998	0.1007245686487294	9	systole	6	B	500	diastole
231.8816999999999	0.1007245686487294	9	systole	7	B	500	diastole
232.70170000000007	0.1007245686487294	9	systole	8	B	500	diastole
233.43010000000004	0.1007245686487294	9	systole	9	B	500	diastole
234.2162000000003	0.1007245686487294	9	systole	10	B	500	diastole
235.03250000000025	0.1007245686487294	9	systole	11	B	500	diastole
235.84220000000005	0.1007245686487294	9	systole	12	B	500	diastole
244.9073000000003	0.1000033521559089	10	diastole	1	B	500	diastole
245.70720000000028	0.1000033521559089	10	diastole	2	B	500	diastole
246.42700000000013	0.1000033521559089	10	diastole	3	B	500	diastole
247.22699999999986	0.1000033521559089	10	diastole	4	B	500	diastole
248.07709999999997	0.1000033521559089	10	diastole	5	B	500	diastole
248.8769000000002	0.1000033521559089	10	diastole	6	B	500	diastole
249.67680000000018	0.1000033521559089	10	diastole	7	B	500	diastole
250.47670000000016	0.1000033521559089	10	diastole	8	B	500	diastole
251.2764000000002	0.1000033521559089	10	diastole	9	B	500	diastole
252.07630000000017	0.1000033521559089	10	diastole	10	B	500	diastole
252.86630000000014	0.1000033521559089	10	diastole	11	B	500	diastole
253.5581000000002	0.1000033521559089	10	diastole	12	B	500	diastole
266.41949999999997	0.0906181768514216	11	systole	1	B	500	systole
267.1080000000002	0.0906181768514216	11	systole	2	B	500	systole
267.9231	0.0906181768514216	11	systole	3	B	500	systole
268.703	0.0906181768514216	11	systole	4	B	500	systole
269.5264000000002	0.0906181768514216	11	systole	5	B	500	systole
270.2129	0.0906181768514216	11	systole	6	B	500	systole
270.9531000000002	0.0906181768514216	11	systole	7	B	500	systole
271.7557999999999	0.0906181768514216	11	systole	8	B	500	systole
272.5616	0.0906181768514216	11	systole	9	B	500	systole
273.3616000000002	0.0906181768514216	11	systole	10	B	500	systole
274.0947000000001	0.0906181768514216	11	systole	11	B	500	systole
274.91470000000027	0.0906181768514216	11	systole	12	B	500	systole
275.672	0.0906181768514216	11	systole	13	B	500	systole
278.5099	0.0987276267842389	12	diastole	1	B	500	systole
279.21990000000005	0.0987276267842389	12	diastole	2	B	500	systole
280.0520999999999	0.0987276267842389	12	diastole	3	B	500	systole
280.8921	0.0987276267842389	12	diastole	4	B	500	systole
281.7152000000001	0.0987276267842389	12	diastole	5	B	500	systole
282.50530000000026	0.0987276267842389	12	diastole	6	B	500	systole
283.15689999999995	0.0987276267842389	12	diastole	7	B	500	systole
283.9286000000002	0.0987276267842389	12	diastole	8	B	500	systole
284.71190000000024	0.0987276267842389	12	diastole	9	B	500	systole
285.4785999999999	0.0987276267842389	12	diastole	10	B	500	systole
286.33190000000013	0.0987276267842389	12	diastole	11	B	500	systole
287.1519000000003	0.0987276267842389	12	diastole	12	B	500	systole
289.02530000000024	0.0962478730361908	13	systole	1	B	500	systole
289.8353000000002	0.0962478730361908	13	systole	2	B	500	systole
290.64530000000013	0.0962478730361908	13	systole	3	B	500	systole
291.4553000000001	0.0962478730361908	13	systole	4	B	500	systole
292.1995999999999	0.0962478730361908	13	systole	5	B	500	systole
292.90610000000015	0.0962478730361908	13	systole	6	B	500	systole
293.63610000000017	0.0962478730361908	13	systole	7	B	500	systole
294.4852000000001	0.0962478730361908	13	systole	8	B	500	systole
295.30520000000024	0.0962478730361908	13	systole	9	B	500	systole
296.00520000000006	0.0962478730361908	13	systole	10	B	500	systole
296.7204999999999	0.0962478730361908	13	systole	11	B	500	systole
297.5302999999999	0.0962478730361908	13	systole	12	B	500	systole
298.328	0.0962478730361908	13	systole	13	B	500	systole
299.1080999999999	0.0962478730361908	13	systole	14	B	500	systole
302.19860000000017	0.096990781603381	14	systole	1	B	500	diastole
303.0567000000001	0.096990781603381	14	systole	2	B	500	diastole
303.9222	0.096990781603381	14	systole	3	B	500	diastole
304.6549	0.096990781603381	14	systole	4	B	500	diastole
305.4050000000002	0.096990781603381	14	systole	5	B	500	diastole
306.15509999999995	0.096990781603381	14	systole	6	B	500	diastole
306.90520000000015	0.096990781603381	14	systole	7	B	500	diastole
307.7350999999999	0.096990781603381	14	systole	8	B	500	diastole
308.42689999999993	0.096990781603381	14	systole	9	B	500	diastole
309.21500000000015	0.096990781603381	14	systole	10	B	500	diastole
310.1268	0.096990781603381	14	systole	11	B	500	diastole
311.0268000000001	0.096990781603381	14	systole	12	B	500	diastole
311.75520000000006	0.096990781603381	14	systole	13	B	500	diastole
314.8469	0.1031165887834504	15	diastole	1	B	500	diastole
315.58680000000004	0.1031165887834504	15	diastole	2	B	500	diastole
316.49839999999995	0.1031165887834504	15	diastole	3	B	500	diastole
317.25829999999996	0.1031165887834504	15	diastole	4	B	500	diastole
318.09040000000005	0.1031165887834504	15	diastole	5	B	500	diastole
318.9504000000002	0.1031165887834504	15	diastole	6	B	500	diastole
319.8104000000003	0.1031165887834504	15	diastole	7	B	500	diastole
320.6836000000003	0.1031165887834504	15	diastole	8	B	500	diastole
321.3801000000003	0.1031165887834504	15	diastole	9	B	500	diastole
322.1471999999999	0.1031165887834504	15	diastole	10	B	500	diastole
322.9474	0.1031165887834504	15	diastole	11	B	500	diastole
323.8506000000002	0.1031165887834504	15	diastole	12	B	500	diastole
325.7469000000001	0.1025092095951549	16	systole	1	B	500	diastole
326.52700000000004	0.1025092095951549	16	systole	2	B	500	diastole
327.25559999999996	0.1025092095951549	16	systole	3	B	500	diastole
328.0857000000001	0.1025092095951549	16	systole	4	B	500	diastole
328.8256000000001	0.1025092095951549	16	systole	5	B	500	diastole
329.68560000000025	0.1025092095951549	16	systole	6	B	500	diastole
330.6145999999999	0.1025092095951549	16	systole	7	B	500	diastole
331.395	0.1025092095951549	16	systole	8	B	500	diastole
332.13340000000017	0.1025092095951549	16	systole	9	B	500	diastole
332.9734000000003	0.1025092095951549	16	systole	10	B	500	diastole
333.8322000000003	0.1025092095951549	16	systole	11	B	500	diastole
334.5622000000003	0.1025092095951549	16	systole	12	B	500	diastole
335.29219999999987	0.1025092095951549	16	systole	13	B	500	diastole
338.1871000000001	0.1018733335076831	17	diastole	1	B	500	systole
338.9868999999999	0.1018733335076831	17	diastole	2	B	500	systole
339.80700000000024	0.1018733335076831	17	diastole	3	B	500	systole
340.62710000000015	0.1018733335076831	17	diastole	4	B	500	systole
341.38689999999997	0.1018733335076831	17	diastole	5	B	500	systole
342.1468	0.1018733335076831	17	diastole	6	B	500	systole
342.99659999999994	0.1018733335076831	17	diastole	7	B	500	systole
343.6799000000001	0.1018733335076831	17	diastole	8	B	500	systole
344.3798999999999	0.1018733335076831	17	diastole	9	B	500	systole
345.1151	0.1018733335076831	17	diastole	10	B	500	systole
345.91499999999996	0.1018733335076831	17	diastole	11	B	500	systole
346.6750000000002	0.1018733335076831	17	diastole	12	B	500	systole
347.4584	0.1018733335076831	17	diastole	13	B	500	systole
353.8038999999999	0.0975323124439455	18	diastole	1	B	500	systole
354.57230000000027	0.0975323124439455	18	diastole	2	B	500	systole
355.25390000000016	0.0975323124439455	18	diastole	3	B	500	systole
355.9435000000003	0.0975323124439455	18	diastole	4	B	500	systole
356.5837999999999	0.0975323124439455	18	diastole	5	B	500	systole
357.21039999999994	0.0975323124439455	18	diastole	6	B	500	systole
358.0201000000002	0.0975323124439455	18	diastole	7	B	500	systole
358.8501000000001	0.0975323124439455	18	diastole	8	B	500	systole
359.6032	0.0975323124439455	18	diastole	9	B	500	systole
360.3633	0.0975323124439455	18	diastole	10	B	500	systole
361.18679999999995	0.0975323124439455	18	diastole	11	B	500	systole
361.96680000000015	0.0975323124439455	18	diastole	12	B	500	systole
362.62850000000026	0.0975323124439455	18	diastole	13	B	500	systole
366.83860000000004	0.0918653501430526	19	diastole	1	B	500	systole
367.6086	0.0918653501430526	19	diastole	2	B	500	systole
368.3786	0.0918653501430526	19	diastole	3	B	500	systole
369.0786000000003	0.0918653501430526	19	diastole	4	B	500	systole
369.7786000000001	0.0918653501430526	19	diastole	5	B	500	systole
370.53549999999996	0.0918653501430526	19	diastole	6	B	500	systole
371.37850000000026	0.0918653501430526	19	diastole	7	B	500	systole
372.1965	0.0918653501430526	19	diastole	8	B	500	systole
372.90689999999995	0.0918653501430526	19	diastole	9	B	500	systole
373.6019000000001	0.0918653501430526	19	diastole	10	B	500	systole
374.4384	0.0918653501430526	19	diastole	11	B	500	systole
375.25	0.0918653501430526	19	diastole	12	B	500	systole
382.12980000000016	0.1000258874846622	20	systole	1	B	500	systole
382.9973	0.1000258874846622	20	systole	2	B	500	systole
383.7674000000002	0.1000258874846622	20	systole	3	B	500	systole
384.5376000000001	0.1000258874846622	20	systole	4	B	500	systole
385.31010000000015	0.1000258874846622	20	systole	5	B	500	systole
386.10030000000006	0.1000258874846622	20	systole	6	B	500	systole
386.8207000000002	0.1000258874846622	20	systole	7	B	500	systole
387.5410999999999	0.1000258874846622	20	systole	8	B	500	systole
388.3292999999999	0.1000258874846622	20	systole	9	B	500	systole
389.1292000000003	0.1000258874846622	20	systole	10	B	500	systole
389.8135000000002	0.1000258874846622	20	systole	11	B	500	systole
390.50350000000026	0.1000258874846622	20	systole	12	B	500	systole
391.1935000000003	0.1000258874846622	20	systole	13	B	500	systole
395.3279000000002	0.0968711304012686	21	systole	1	B	500	diastole
396.08820000000014	0.0968711304012686	21	systole	2	B	500	diastole
396.78639999999996	0.0968711304012686	21	systole	3	B	500	diastole
397.49620000000004	0.0968711304012686	21	systole	4	B	500	diastole
398.3020999999999	0.0968711304012686	21	systole	5	B	500	diastole
399.2053000000001	0.0968711304012686	21	systole	6	B	500	diastole
399.9852000000001	0.0968711304012686	21	systole	7	B	500	diastole
400.712	0.0968711304012686	21	systole	8	B	500	diastole
401.462	0.0968711304012686	21	systole	9	B	500	diastole
402.28110000000015	0.0968711304012686	21	systole	10	B	500	diastole
403.0711000000001	0.0968711304012686	21	systole	11	B	500	diastole
403.8609999999999	0.0968711304012686	21	systole	12	B	500	diastole
406.8587000000002	0.0981222718255594	22	diastole	1	B	500	systole
407.65880000000016	0.0981222718255594	22	diastole	2	B	500	systole
408.4187999999999	0.0981222718255594	22	diastole	3	B	500	systole
409.09540000000015	0.0981222718255594	22	diastole	4	B	500	systole
409.8103000000001	0.0981222718255594	22	diastole	5	B	500	systole
410.6103000000003	0.0981222718255594	22	diastole	6	B	500	systole
411.41020000000026	0.0981222718255594	22	diastole	7	B	500	systole
412.10350000000017	0.0981222718255594	22	diastole	8	B	500	systole
412.8134	0.0981222718255594	22	diastole	9	B	500	systole
413.55520000000024	0.0981222718255594	22	diastole	10	B	500	systole
414.3818000000001	0.0981222718255594	22	diastole	11	B	500	systole
415.10130000000026	0.0981222718255594	22	diastole	12	B	500	systole
415.8148000000001	0.0981222718255594	22	diastole	13	B	500	systole
418.88189999999986	0.0925134072895161	23	diastole	1	B	500	systole
419.66200000000026	0.0925134072895161	23	diastole	2	B	500	systole
420.36540000000014	0.0925134072895161	23	diastole	3	B	500	systole
421.0302999999999	0.0925134072895161	23	diastole	4	B	500	systole
421.74220000000014	0.0925134072895161	23	diastole	5	B	500	systole
422.5005000000001	0.0925134072895161	23	diastole	6	B	500	systole
423.1921000000002	0.0925134072895161	23	diastole	7	B	500	systole
423.8238000000001	0.0925134072895161	23	diastole	8	B	500	systole
424.45690000000013	0.0925134072895161	23	diastole	9	B	500	systole
425.1572000000001	0.0925134072895161	23	diastole	10	B	500	systole
425.91719999999987	0.0925134072895161	23	diastole	11	B	500	systole
426.5804000000003	0.0925134072895161	23	diastole	12	B	500	systole
427.2604000000001	0.0925134072895161	23	diastole	13	B	500	systole
428.01049999999987	0.0925134072895161	23	diastole	14	B	500	systole
431.0767000000001	0.0893751124967821	24	diastole	1	B	500	systole
431.8818000000001	0.0893751124967821	24	diastole	2	B	500	systole
432.55690000000004	0.0893751124967821	24	diastole	3	B	500	systole
433.25700000000006	0.0893751124967821	24	diastole	4	B	500	systole
433.9571000000001	0.0893751124967821	24	diastole	5	B	500	systole
434.8022000000001	0.0893751124967821	24	diastole	6	B	500	systole
435.5509000000002	0.0893751124967821	24	diastole	7	B	500	systole
436.35559999999987	0.0893751124967821	24	diastole	8	B	500	systole
437.1435999999999	0.0893751124967821	24	diastole	9	B	500	systole
437.90830000000005	0.0893751124967821	24	diastole	10	B	500	systole
438.6581000000001	0.0893751124967821	24	diastole	11	B	500	systole
439.3733000000002	0.0893751124967821	24	diastole	12	B	500	systole
441.91560000000027	0.097383398853708	25	diastole	1	B	500	diastole
442.69579999999996	0.097383398853708	25	diastole	2	B	500	diastole
443.5156999999999	0.097383398853708	25	diastole	3	B	500	diastole
444.3355999999999	0.097383398853708	25	diastole	4	B	500	diastole
445.09889999999996	0.097383398853708	25	diastole	5	B	500	diastole
445.94550000000027	0.097383398853708	25	diastole	6	B	500	diastole
446.77530000000024	0.097383398853708	25	diastole	7	B	500	diastole
447.4969000000001	0.097383398853708	25	diastole	8	B	500	diastole
448.2267999999999	0.097383398853708	25	diastole	9	B	500	diastole
448.9883	0.097383398853708	25	diastole	10	B	500	diastole
449.7951000000003	0.097383398853708	25	diastole	11	B	500	diastole
450.5682999999999	0.097383398853708	25	diastole	12	B	500	diastole
451.3582000000001	0.097383398853708	25	diastole	13	B	500	diastole
454.8654999999999	0.0987513787695206	26	systole	1	B	500	systole
455.68550000000005	0.0987513787695206	26	systole	2	B	500	systole
456.4055000000003	0.0987513787695206	26	systole	3	B	500	systole
457.19540000000006	0.0987513787695206	26	systole	4	B	500	systole
458.0331000000001	0.0987513787695206	26	systole	5	B	500	systole
458.7654000000002	0.0987513787695206	26	systole	6	B	500	systole
459.5392999999999	0.0987513787695206	26	systole	7	B	500	systole
460.3193000000001	0.0987513787695206	26	systole	8	B	500	systole
461.05920000000015	0.0987513787695206	26	systole	9	B	500	systole
461.8492000000001	0.0987513787695206	26	systole	10	B	500	systole
462.64940000000024	0.0987513787695206	26	systole	11	B	500	systole
463.4094	0.0987513787695206	26	systole	12	B	500	systole
464.1120000000001	0.0987513787695206	26	systole	13	B	500	systole
473.37519999999995	0.1006392250419594	27	diastole	1	B	500	diastole
474.1147000000001	0.1006392250419594	27	diastole	2	B	500	diastole
474.84169999999995	0.1006392250419594	27	diastole	3	B	500	diastole
475.6301000000003	0.1006392250419594	27	diastole	4	B	500	diastole
476.3497000000002	0.1006392250419594	27	diastole	5	B	500	diastole
477.0693000000001	0.1006392250419594	27	diastole	6	B	500	diastole
477.84230000000025	0.1006392250419594	27	diastole	7	B	500	diastole
478.6307999999999	0.1006392250419594	27	diastole	8	B	500	diastole
479.3759	0.1006392250419594	27	diastole	9	B	500	diastole
480.18600000000015	0.1006392250419594	27	diastole	10	B	500	diastole
480.9961000000003	0.1006392250419594	27	diastole	11	B	500	diastole
481.79219999999987	0.1006392250419594	27	diastole	12	B	500	diastole
482.5023000000001	0.1006392250419594	27	diastole	13	B	500	diastole
484.3618999999999	0.0968695939518511	28	systole	1	B	500	diastole
485.11220000000003	0.0968695939518511	28	systole	2	B	500	diastole
485.86259999999993	0.0968695939518511	28	systole	3	B	500	diastole
486.68409999999994	0.0968695939518511	28	systole	4	B	500	diastole
487.3771999999999	0.0968695939518511	28	systole	5	B	500	diastole
488.0772999999999	0.0968695939518511	28	systole	6	B	500	diastole
488.91420000000016	0.0968695939518511	28	systole	7	B	500	diastole
489.7144000000003	0.0968695939518511	28	systole	8	B	500	diastole
490.41730000000007	0.0968695939518511	28	systole	9	B	500	diastole
491.1273000000001	0.0968695939518511	28	systole	10	B	500	diastole
491.93859999999995	0.0968695939518511	28	systole	11	B	500	diastole
492.74850000000015	0.0968695939518511	28	systole	12	B	500	diastole
493.5718999999999	0.0968695939518511	28	systole	13	B	500	diastole
494.25869999999986	0.0968695939518511	28	systole	14	B	500	diastole
499.7775999999999	0.0981215249630622	29	systole	1	B	500	systole
500.46759999999995	0.0981215249630622	29	systole	2	B	500	systole
501.24760000000015	0.0981215249630622	29	systole	3	B	500	systole
502.0275999999999	0.0981215249630622	29	systole	4	B	500	systole
502.79190000000017	0.0981215249630622	29	systole	5	B	500	systole
503.5144	0.0981215249630622	29	systole	6	B	500	systole
504.25440000000026	0.0981215249630622	29	systole	7	B	500	systole
505.0777000000003	0.0981215249630622	29	systole	8	B	500	systole
505.8777	0.0981215249630622	29	systole	9	B	500	systole
506.56449999999995	0.0981215249630622	29	systole	10	B	500	systole
507.3185000000003	0.0981215249630622	29	systole	11	B	500	systole
508.116	0.0981215249630622	29	systole	12	B	500	systole
508.8759	0.0981215249630622	29	systole	13	B	500	systole
515.982	0.0949843499693088	30	diastole	1	B	500	systole
516.7602000000002	0.0949843499693088	30	diastole	2	B	500	systole
517.5203000000001	0.0949843499693088	30	diastole	3	B	500	systole
518.2802999999999	0.0949843499693088	30	diastole	4	B	500	systole
518.9901	0.0949843499693088	30	diastole	5	B	500	systole
519.7220000000002	0.0949843499693088	30	diastole	6	B	500	systole
520.4320000000002	0.0949843499693088	30	diastole	7	B	500	systole
521.1420000000003	0.0949843499693088	30	diastole	8	B	500	systole
521.8519000000001	0.0949843499693088	30	diastole	9	B	500	systole
522.5851000000002	0.0949843499693088	30	diastole	10	B	500	systole
523.335	0.0949843499693088	30	diastole	11	B	500	systole
524.085	0.0949843499693088	30	diastole	12	B	500	systole
524.7683000000002	0.0949843499693088	30	diastole	13	B	500	systole
530.5630000000001	0.0931333125336095	31	systole	1	B	500	diastole
531.3978999999999	0.0931333125336095	31	systole	2	B	500	diastole
532.1979000000001	0.0931333125336095	31	systole	3	B	500	diastole
532.998	0.0931333125336095	31	systole	4	B	500	diastole
533.8371000000002	0.0931333125336095	31	systole	5	B	500	diastole
534.5196000000001	0.0931333125336095	31	systole	6	B	500	diastole
535.2127	0.0931333125336095	31	systole	7	B	500	diastole
536.0009	0.0931333125336095	31	systole	8	B	500	diastole
536.7712999999999	0.0931333125336095	31	systole	9	B	500	diastole
537.5363000000002	0.0931333125336095	31	systole	10	B	500	diastole
538.2373000000002	0.0931333125336095	31	systole	11	B	500	diastole
539.0649000000003	0.0931333125336095	31	systole	12	B	500	diastole
539.8568	0.0931333125336095	31	systole	13	B	500	diastole
554.3720000000003	0.0968746934668161	32	diastole	1	B	500	systole
555.0738999999999	0.0968746934668161	32	diastole	2	B	500	systole
555.8591999999999	0.0968746934668161	32	diastole	3	B	500	systole
556.6280999999999	0.0968746934668161	32	diastole	4	B	500	systole
557.2853	0.0968746934668161	32	diastole	5	B	500	systole
558.009	0.0968746934668161	32	diastole	6	B	500	systole
558.7492000000002	0.0968746934668161	32	diastole	7	B	500	systole
559.5545000000002	0.0968746934668161	32	diastole	8	B	500	systole
560.2642000000001	0.0968746934668161	32	diastole	9	B	500	systole
560.9297999999999	0.0968746934668161	32	diastole	10	B	500	systole
561.6514000000002	0.0968746934668161	32	diastole	11	B	500	systole
562.3696	0.0968746934668161	32	diastole	12	B	500	systole
563.0696000000003	0.0968746934668161	32	diastole	13	B	500	systole
566.3439000000003	0.0900457953684963	33	systole	1	B	500	systole
567.0237000000002	0.0900457953684963	33	systole	2	B	500	systole
567.6836000000003	0.0900457953684963	33	systole	3	B	500	systole
568.2818000000002	0.0900457953684963	33	systole	4	B	500	systole
568.8782000000001	0.0900457953684963	33	systole	5	B	500	systole
569.5563000000002	0.0900457953684963	33	systole	6	B	500	systole
570.2463000000002	0.0900457953684963	33	systole	7	B	500	systole
570.9562000000001	0.0900457953684963	33	systole	8	B	500	systole
571.6084000000001	0.0900457953684963	33	systole	9	B	500	systole
572.3083999999999	0.0900457953684963	33	systole	10	B	500	systole
573.0084000000002	0.0900457953684963	33	systole	11	B	500	systole
573.6534000000001	0.0900457953684963	33	systole	12	B	500	systole
574.3657000000003	0.0900457953684963	33	systole	13	B	500	systole
575.0553	0.0900457953684963	33	systole	14	B	500	systole
578.1615999999999	0.0862160187680274	34	diastole	1	B	500	diastole
578.8903	0.0862160187680274	34	diastole	2	B	500	diastole
579.5621000000001	0.0862160187680274	34	diastole	3	B	500	diastole
580.2422999999999	0.0862160187680274	34	diastole	4	B	500	diastole
580.9031	0.0862160187680274	34	diastole	5	B	500	diastole
581.6424000000002	0.0862160187680274	34	diastole	6	B	500	diastole
582.4257000000002	0.0862160187680274	34	diastole	7	B	500	diastole
583.1271000000002	0.0862160187680274	34	diastole	8	B	500	diastole
583.9256	0.0862160187680274	34	diastole	9	B	500	diastole
584.7926000000002	0.0862160187680274	34	diastole	10	B	500	diastole
585.5989	0.0862160187680274	34	diastole	11	B	500	diastole
586.2989000000002	0.0862160187680274	34	diastole	12	B	500	diastole
586.9989	0.0862160187680274	34	diastole	13	B	500	diastole
587.7989000000002	0.0862160187680274	34	diastole	14	B	500	diastole
593.0975000000003	0.0968710875022225	35	systole	1	B	500	diastole
593.8834000000002	0.0968710875022225	35	systole	2	B	500	diastole
594.6633999999999	0.0968710875022225	35	systole	3	B	500	diastole
595.4333999999999	0.0968710875022225	35	systole	4	B	500	diastole
596.2539000000002	0.0968710875022225	35	systole	5	B	500	diastole
597.0744	0.0968710875022225	35	systole	6	B	500	diastole
597.7899000000002	0.0968710875022225	35	systole	7	B	500	diastole
598.4998	0.0968710875022225	35	systole	8	B	500	diastole
599.3241000000003	0.0968710875022225	35	systole	9	B	500	diastole
600.1496999999999	0.0968710875022225	35	systole	10	B	500	diastole
600.9396999999999	0.0968710875022225	35	systole	11	B	500	diastole
601.7298000000001	0.0968710875022225	35	systole	12	B	500	diastole
605.3270000000002	0.0993733812356367	36	diastole	1	B	500	diastole
606.0471000000002	0.0993733812356367	36	diastole	2	B	500	diastole
606.7672000000002	0.0993733812356367	36	diastole	3	B	500	diastole
607.5789	0.0993733812356367	36	diastole	4	B	500	diastole
608.3989999999999	0.0993733812356367	36	diastole	5	B	500	diastole
609.1788999999999	0.0993733812356367	36	diastole	6	B	500	diastole
609.8805000000002	0.0993733812356367	36	diastole	7	B	500	diastole
610.6239	0.0993733812356367	36	diastole	8	B	500	diastole
611.384	0.0993733812356367	36	diastole	9	B	500	diastole
612.1441	0.0993733812356367	36	diastole	10	B	500	diastole
612.9740000000002	0.0993733812356367	36	diastole	11	B	500	diastole
613.7937000000002	0.0993733812356367	36	diastole	12	B	500	diastole
618.6701000000003	0.1007524469750933	37	diastole	1	B	500	systole
619.4301	0.1007524469750933	37	diastole	2	B	500	systole
620.2485000000001	0.1007524469750933	37	diastole	3	B	500	systole
621.0653000000002	0.1007524469750933	37	diastole	4	B	500	systole
621.8702000000003	0.1007524469750933	37	diastole	5	B	500	systole
622.7001	0.1007524469750933	37	diastole	6	B	500	systole
623.5300000000002	0.1007524469750933	37	diastole	7	B	500	systole
624.2915000000003	0.1007524469750933	37	diastole	8	B	500	systole
625.0615000000003	0.1007524469750933	37	diastole	9	B	500	systole
625.8716	0.1007524469750933	37	diastole	10	B	500	systole
626.6415000000002	0.1007524469750933	37	diastole	11	B	500	systole
627.3435	0.1007524469750933	37	diastole	12	B	500	systole
630.3286000000003	0.0962448376230895	38	diastole	1	B	500	systole
631.1273000000001	0.0962448376230895	38	diastole	2	B	500	systole
631.8274999999999	0.0962448376230895	38	diastole	3	B	500	systole
632.5277000000001	0.0962448376230895	38	diastole	4	B	500	systole
633.2606000000001	0.0962448376230895	38	diastole	5	B	500	systole
634.0299	0.0962448376230895	38	diastole	6	B	500	systole
634.7995000000001	0.0962448376230895	38	diastole	7	B	500	systole
635.5093999999999	0.0962448376230895	38	diastole	8	B	500	systole
636.2613999999999	0.0962448376230895	38	diastole	9	B	500	systole
636.9614000000001	0.0962448376230895	38	diastole	10	B	500	systole
637.703	0.0962448376230895	38	diastole	11	B	500	systole
638.4529000000002	0.0962448376230895	38	diastole	12	B	500	systole
639.2613000000001	0.0962448376230895	38	diastole	13	B	500	systole
643.8317000000002	0.0950019390438683	39	diastole	1	B	500	systole
644.5852	0.0950019390438683	39	diastole	2	B	500	systole
645.3968	0.0950019390438683	39	diastole	3	B	500	systole
646.1853000000001	0.0950019390438683	39	diastole	4	B	500	systole
646.8920000000003	0.0950019390438683	39	diastole	5	B	500	systole
647.6774	0.0950019390438683	39	diastole	6	B	500	systole
648.4940000000001	0.0950019390438683	39	diastole	7	B	500	systole
649.2739999999999	0.0950019390438683	39	diastole	8	B	500	systole
650.0541000000003	0.0950019390438683	39	diastole	9	B	500	systole
650.864	0.0950019390438683	39	diastole	10	B	500	systole
651.6141000000002	0.0950019390438683	39	diastole	11	B	500	systole
652.2939999999999	0.0950019390438683	39	diastole	12	B	500	systole
652.9739	0.0950019390438683	39	diastole	13	B	500	systole
655.9605000000001	0.0950060312170535	40	diastole	1	B	500	systole
656.7406000000001	0.0950060312170535	40	diastole	2	B	500	systole
657.5207	0.0950060312170535	40	diastole	3	B	500	systole
658.1990000000001	0.0950060312170535	40	diastole	4	B	500	systole
658.9189000000001	0.0950060312170535	40	diastole	5	B	500	systole
659.7771000000002	0.0950060312170535	40	diastole	6	B	500	systole
660.4605000000001	0.0950060312170535	40	diastole	7	B	500	systole
661.1605	0.0950060312170535	40	diastole	8	B	500	systole
661.8384000000001	0.0950060312170535	40	diastole	9	B	500	systole
662.5581000000002	0.0950060312170535	40	diastole	10	B	500	systole
663.4900000000002	0.0950060312170535	40	diastole	11	B	500	systole
664.2530000000002	0.0950060312170535	40	diastole	12	B	500	systole
669.8087	0.1031475595082156	41	systole	1	B	500	diastole
670.5434	0.1031475595082156	41	systole	2	B	500	diastole
671.3133000000003	0.1031475595082156	41	systole	3	B	500	diastole
672.2019	0.1031475595082156	41	systole	4	B	500	diastole
673.0320000000002	0.1031475595082156	41	systole	5	B	500	diastole
673.7428	0.1031475595082156	41	systole	6	B	500	diastole
674.6085000000003	0.1031475595082156	41	systole	7	B	500	diastole
675.3686000000002	0.1031475595082156	41	systole	8	B	500	diastole
676.1287000000002	0.1031475595082156	41	systole	9	B	500	diastole
676.8036000000002	0.1031475595082156	41	systole	10	B	500	diastole
677.6053000000002	0.1031475595082156	41	systole	11	B	500	diastole
678.4070000000002	0.1031475595082156	41	systole	12	B	500	diastole
681.4904000000001	0.0968840538989752	42	systole	1	B	500	diastole
682.2344000000003	0.0968840538989752	42	systole	2	B	500	diastole
682.9843000000001	0.0968840538989752	42	systole	3	B	500	diastole
683.7341000000001	0.0968840538989752	42	systole	4	B	500	diastole
684.5359000000003	0.0968840538989752	42	systole	5	B	500	diastole
685.2759000000001	0.0968840538989752	42	systole	6	B	500	diastole
685.9940999999999	0.0968840538989752	42	systole	7	B	500	diastole
686.7858000000001	0.0968840538989752	42	systole	8	B	500	diastole
687.5041000000001	0.0968840538989752	42	systole	9	B	500	diastole
688.2341000000001	0.0968840538989752	42	systole	10	B	500	diastole
689.0799999999999	0.0968840538989752	42	systole	11	B	500	diastole
689.9200000000001	0.0968840538989752	42	systole	12	B	500	diastole
693.0237000000002	0.0975028564571403	43	systole	1	B	500	diastole
693.7141999999999	0.0975028564571403	43	systole	2	B	500	diastole
694.4337	0.0975028564571403	43	systole	3	B	500	diastole
695.212	0.0975028564571403	43	systole	4	B	500	diastole
695.9520000000002	0.0975028564571403	43	systole	5	B	500	diastole
696.6921000000002	0.0975028564571403	43	systole	6	B	500	diastole
697.5419999999999	0.0975028564571403	43	systole	7	B	500	diastole
698.3953000000001	0.0975028564571403	43	systole	8	B	500	diastole
699.2368999999999	0.0975028564571403	43	systole	9	B	500	diastole
699.9461999999999	0.0975028564571403	43	systole	10	B	500	diastole
700.8335999999999	0.0975028564571403	43	systole	11	B	500	diastole
701.6561000000002	0.0975028564571403	43	systole	12	B	500	diastole
702.4557	0.0975028564571403	43	systole	13	B	500	diastole
707.2669000000001	0.0994551780167967	44	systole	1	B	500	diastole
708.0868	0.0994551780167967	44	systole	2	B	500	diastole
708.8018999999999	0.0994551780167967	44	systole	3	B	500	diastole
709.6019000000001	0.0994551780167967	44	systole	4	B	500	diastole
710.4369999999999	0.0994551780167967	44	systole	5	B	500	diastole
711.2670000000003	0.0994551780167967	44	systole	6	B	500	diastole
712.0169000000001	0.0994551780167967	44	systole	7	B	500	diastole
712.732	0.0994551780167967	44	systole	8	B	500	diastole
713.5370000000003	0.0994551780167967	44	systole	9	B	500	diastole
714.3670999999999	0.0994551780167967	44	systole	10	B	500	diastole
715.1469999999999	0.0994551780167967	44	systole	11	B	500	diastole
715.9195	0.0994551780167967	44	systole	12	B	500	diastole
719.3119000000002	0.0981312245130539	45	diastole	1	B	500	diastole
720.0817999999999	0.0981312245130539	45	diastole	2	B	500	diastole
720.9184	0.0981312245130539	45	diastole	3	B	500	diastole
721.6718000000001	0.0981312245130539	45	diastole	4	B	500	diastole
722.4418000000001	0.0981312245130539	45	diastole	5	B	500	diastole
723.2118	0.0981312245130539	45	diastole	6	B	500	diastole
723.9916000000003	0.0981312245130539	45	diastole	7	B	500	diastole
724.8384000000001	0.0981312245130539	45	diastole	8	B	500	diastole
725.56	0.0981312245130539	45	diastole	9	B	500	diastole
726.2899000000002	0.0981312245130539	45	diastole	10	B	500	diastole
726.9947000000002	0.0981312245130539	45	diastole	11	B	500	diastole
727.8199	0.0981312245130539	45	diastole	12	B	500	diastole
756.8272000000002	0.1075176524464041	46	diastole	1	B	500	systole
757.5572999999999	0.1075176524464041	46	diastole	2	B	500	systole
758.2359000000001	0.1075176524464041	46	diastole	3	B	500	systole
759.1190999999999	0.1075176524464041	46	diastole	4	B	500	systole
759.8353000000002	0.1075176524464041	46	diastole	5	B	500	systole
760.5851000000002	0.1075176524464041	46	diastole	6	B	500	systole
761.2984999999999	0.1075176524464041	46	diastole	7	B	500	systole
762.0355	0.1075176524464041	46	diastole	8	B	500	systole
762.8056999999999	0.1075176524464041	46	diastole	9	B	500	systole
763.4805000000001	0.1075176524464041	46	diastole	10	B	500	systole
764.1170000000002	0.1075176524464041	46	diastole	11	B	500	systole
764.8171000000002	0.1075176524464041	46	diastole	12	B	500	systole
765.7105999999999	0.1075176524464041	46	diastole	13	B	500	systole
769.0433000000003	0.0899859562050551	47	systole	1	B	500	systole
769.7835	0.0899859562050551	47	systole	2	B	500	systole
770.5236	0.0899859562050551	47	systole	3	B	500	systole
771.3288000000002	0.0899859562050551	47	systole	4	B	500	systole
772.0086999999999	0.0899859562050551	47	systole	5	B	500	systole
772.6887999999999	0.0899859562050551	47	systole	6	B	500	systole
773.3713000000002	0.0899859562050551	47	systole	7	B	500	systole
774.1170000000002	0.0899859562050551	47	systole	8	B	500	systole
774.7971000000002	0.0899859562050551	47	systole	9	B	500	systole
775.4693000000002	0.0899859562050551	47	systole	10	B	500	systole
776.1593000000003	0.0899859562050551	47	systole	11	B	500	systole
776.9168	0.0899859562050551	47	systole	12	B	500	systole
777.7069999999999	0.0899859562050551	47	systole	13	B	500	systole
778.4569999999999	0.0899859562050551	47	systole	14	B	500	systole
781.8586	0.0918623607722111	48	diastole	1	B	500	diastole
782.607	0.0918623607722111	48	diastole	2	B	500	diastole
783.3470000000002	0.0918623607722111	48	diastole	3	B	500	diastole
784.1055000000001	0.0918623607722111	48	diastole	4	B	500	diastole
784.7588000000001	0.0918623607722111	48	diastole	5	B	500	diastole
785.4288999999999	0.0918623607722111	48	diastole	6	B	500	diastole
786.1123000000002	0.0918623607722111	48	diastole	7	B	500	diastole
786.9205999999999	0.0918623607722111	48	diastole	8	B	500	diastole
787.6106	0.0918623607722111	48	diastole	9	B	500	diastole
788.2671	0.0918623607722111	48	diastole	10	B	500	diastole
788.9322000000002	0.0918623607722111	48	diastole	11	B	500	diastole
789.6221	0.0918623607722111	48	diastole	12	B	500	diastole
790.4021000000002	0.0918623607722111	48	diastole	13	B	500	diastole
792.6604000000002	0.0875020747771486	49	diastole	1	B	500	systole
793.4402	0.0875020747771486	49	diastole	2	B	500	systole
794.1100999999999	0.0875020747771486	49	diastole	3	B	500	systole
794.7802000000001	0.0875020747771486	49	diastole	4	B	500	systole
795.5246999999999	0.0875020747771486	49	diastole	5	B	500	systole
796.3932	0.0875020747771486	49	diastole	6	B	500	systole
797.0986000000003	0.0875020747771486	49	diastole	7	B	500	systole
797.8287	0.0875020747771486	49	diastole	8	B	500	systole
798.5588000000002	0.0875020747771486	49	diastole	9	B	500	systole
799.3838000000001	0.0875020747771486	49	diastole	10	B	500	systole
800.1421	0.0875020747771486	49	diastole	11	B	500	systole
800.8921	0.0875020747771486	49	diastole	12	B	500	systole
801.6516999999999	0.0875020747771486	49	diastole	13	B	500	systole
802.5002	0.0875020747771486	49	diastole	14	B	500	systole
805.8168000000001	0.0987372144008986	50	diastole	1	B	500	systole
806.5370000000003	0.0987372144008986	50	diastole	2	B	500	systole
807.4005999999999	0.0987372144008986	50	diastole	3	B	500	systole
808.2309	0.0987372144008986	50	diastole	4	B	500	systole
808.9809	0.0987372144008986	50	diastole	5	B	500	systole
809.8006	0.0987372144008986	50	diastole	6	B	500	systole
810.6877	0.0987372144008986	50	diastole	7	B	500	systole
811.4306000000001	0.0987372144008986	50	diastole	8	B	500	systole
812.1905000000002	0.0987372144008986	50	diastole	9	B	500	systole
812.8872000000001	0.0987372144008986	50	diastole	10	B	500	systole
813.8090000000002	0.0987372144008986	50	diastole	11	B	500	systole
814.6890000000003	0.0987372144008986	50	diastole	12	B	500	systole
826.0354000000002	0.1011479640146717	51	diastole	1	B	500	diastole
826.8251	0.1011479640146717	51	diastole	2	B	500	diastole
827.6148000000003	0.1011479640146717	51	diastole	3	B	500	diastole
828.2728999999999	0.1011479640146717	51	diastole	4	B	500	diastole
829.0749000000001	0.1011479640146717	51	diastole	5	B	500	diastole
829.8849	0.1011479640146717	51	diastole	6	B	500	diastole
830.6549	0.1011479640146717	51	diastole	7	B	500	diastole
831.348	0.1011479640146717	51	diastole	8	B	500	diastole
832.1480999999999	0.1011479640146717	51	diastole	9	B	500	diastole
833.0065	0.1011479640146717	51	diastole	10	B	500	diastole
833.7679000000003	0.1011479640146717	51	diastole	11	B	500	diastole
834.5379000000003	0.1011479640146717	51	diastole	12	B	500	diastole
837.7687000000001	0.0981305230525322	52	diastole	1	B	500	systole
838.6487999999999	0.0981305230525322	52	diastole	2	B	500	systole
839.5073000000002	0.0981305230525322	52	diastole	3	B	500	systole
840.3573999999999	0.0981305230525322	52	diastole	4	B	500	systole
841.2076000000002	0.0981305230525322	52	diastole	5	B	500	systole
841.9225999999999	0.0981305230525322	52	diastole	6	B	500	systole
842.7212	0.0981305230525322	52	diastole	7	B	500	systole
843.5092	0.0981305230525322	52	diastole	8	B	500	systole
844.2975000000001	0.0981305230525322	52	diastole	9	B	500	systole
845.0857000000001	0.0981305230525322	52	diastole	10	B	500	systole
845.7959000000001	0.0981305230525322	52	diastole	11	B	500	systole
846.4872	0.0981305230525322	52	diastole	12	B	500	systole
847.2119000000002	0.0981305230525322	52	diastole	13	B	500	systole
850.46	0.0949984335456974	53	systole	1	B	500	systole
851.1626000000001	0.0949984335456974	53	systole	2	B	500	systole
851.8827999999999	0.0949984335456974	53	systole	3	B	500	systole
852.7003	0.0949984335456974	53	systole	4	B	500	systole
853.5003000000002	0.0949984335456974	53	systole	5	B	500	systole
854.2105999999999	0.0949984335456974	53	systole	6	B	500	systole
854.9245000000001	0.0949984335456974	53	systole	7	B	500	systole
855.6803	0.0949984335456974	53	systole	8	B	500	systole
856.4187999999999	0.0949984335456974	53	systole	9	B	500	systole
857.1689000000001	0.0949984335456974	53	systole	10	B	500	systole
857.8813	0.0949984335456974	53	systole	11	B	500	systole
858.683	0.0949984335456974	53	systole	12	B	500	systole
859.5088000000001	0.0949984335456974	53	systole	13	B	500	systole
862.5587	0.0937509578070603	54	systole	1	B	500	systole
863.2685999999999	0.0937509578070603	54	systole	2	B	500	systole
864.0086000000001	0.0937509578070603	54	systole	3	B	500	systole
864.7485999999999	0.0937509578070603	54	systole	4	B	500	systole
865.5405000000001	0.0937509578070603	54	systole	5	B	500	systole
866.2604000000001	0.0937509578070603	54	systole	6	B	500	systole
866.9886000000001	0.0937509578070603	54	systole	7	B	500	systole
867.8002000000001	0.0937509578070603	54	systole	8	B	500	systole
868.6478000000002	0.0937509578070603	54	systole	9	B	500	systole
869.4535000000001	0.0937509578070603	54	systole	10	B	500	systole
870.2735000000002	0.0937509578070603	54	systole	11	B	500	systole
871.0935	0.0937509578070603	54	systole	12	B	500	systole
871.9551000000001	0.0937509578070603	54	systole	13	B	500	systole
875.2402999999999	0.1012487644329667	55	systole	1	B	500	diastole
876.0102000000002	0.1012487644329667	55	systole	2	B	500	diastole
876.7802000000001	0.1012487644329667	55	systole	3	B	500	diastole
877.5185999999999	0.1012487644329667	55	systole	4	B	500	diastole
878.2687000000001	0.1012487644329667	55	systole	5	B	500	diastole
879.0189	0.1012487644329667	55	systole	6	B	500	diastole
879.8663999999999	0.1012487644329667	55	systole	7	B	500	diastole
880.5715	0.1012487644329667	55	systole	8	B	500	diastole
881.4016999999999	0.1012487644329667	55	systole	9	B	500	diastole
882.2764999999999	0.1012487644329667	55	systole	10	B	500	diastole
883.1165000000001	0.1012487644329667	55	systole	11	B	500	diastole
883.9564	0.1012487644329667	55	systole	12	B	500	diastole
887.1801	0.0943512000376358	56	diastole	1	B	500	diastole
887.9602	0.0943512000376358	56	diastole	2	B	500	diastole
888.8072999999999	0.0943512000376358	56	diastole	3	B	500	diastole
889.5218	0.0943512000376358	56	diastole	4	B	500	diastole
890.2617	0.0943512000376358	56	diastole	5	B	500	diastole
891.0017000000003	0.0943512000376358	56	diastole	6	B	500	diastole
891.7820000000002	0.0943512000376358	56	diastole	7	B	500	diastole
892.5619999999999	0.0943512000376358	56	diastole	8	B	500	diastole
893.2449000000001	0.0943512000376358	56	diastole	9	B	500	diastole
893.9445000000001	0.0943512000376358	56	diastole	10	B	500	diastole
894.7343000000001	0.0943512000376358	56	diastole	11	B	500	diastole
895.5239999999999	0.0943512000376358	56	diastole	12	B	500	diastole
904.6241	0.0918594747199677	57	diastole	1	B	500	systole
905.3041000000003	0.0918594747199677	57	diastole	2	B	500	systole
905.9792000000002	0.0918594747199677	57	diastole	3	B	500	systole
906.6792	0.0918594747199677	57	diastole	4	B	500	systole
907.3202999999999	0.0918594747199677	57	diastole	5	B	500	systole
907.9702000000002	0.0918594747199677	57	diastole	6	B	500	systole
908.5835999999999	0.0918594747199677	57	diastole	7	B	500	systole
909.2467999999999	0.0918594747199677	57	diastole	8	B	500	systole
910.0433000000003	0.0918594747199677	57	diastole	9	B	500	systole
910.8135000000002	0.0918594747199677	57	diastole	10	B	500	systole
911.5837000000001	0.0918594747199677	57	diastole	11	B	500	systole
912.2852000000003	0.0918594747199677	57	diastole	12	B	500	systole
913.0583000000001	0.0918594747199677	57	diastole	13	B	500	systole
913.8481000000002	0.0918594747199677	57	diastole	14	B	500	systole
917.4689000000003	0.088206116866786	58	diastole	1	B	500	systole
918.2581	0.088206116866786	58	diastole	2	B	500	systole
919.0379000000003	0.088206116866786	58	diastole	3	B	500	systole
919.7663000000002	0.088206116866786	58	diastole	4	B	500	systole
920.4676	0.088206116866786	58	diastole	5	B	500	systole
921.268	0.088206116866786	58	diastole	6	B	500	systole
922.0306	0.088206116866786	58	diastole	7	B	500	systole
922.7150999999999	0.088206116866786	58	diastole	8	B	500	systole
923.4898000000003	0.088206116866786	58	diastole	9	B	500	systole
924.2946999999999	0.088206116866786	58	diastole	10	B	500	systole
925.1078000000002	0.088206116866786	58	diastole	11	B	500	systole
925.7646	0.088206116866786	58	diastole	12	B	500	systole
926.4546	0.088206116866786	58	diastole	13	B	500	systole
929.1671000000001	0.0931097207940183	59	systole	1	B	500	diastole
929.8973000000001	0.0931097207940183	59	systole	2	B	500	diastole
930.7781	0.0931097207940183	59	systole	3	B	500	diastole
931.4590000000003	0.0931097207940183	59	systole	4	B	500	diastole
932.1976	0.0931097207940183	59	systole	5	B	500	diastole
932.9477999999999	0.0931097207940183	59	systole	6	B	500	diastole
933.7209000000003	0.0931097207940183	59	systole	7	B	500	diastole
934.4709000000003	0.0931097207940183	59	systole	8	B	500	diastole
935.1776	0.0931097207940183	59	systole	9	B	500	diastole
935.9077000000002	0.0931097207940183	59	systole	10	B	500	diastole
936.7092000000002	0.0931097207940183	59	systole	11	B	500	diastole
937.4290000000001	0.0931097207940183	59	systole	12	B	500	diastole
938.1489000000001	0.0931097207940183	59	systole	13	B	500	diastole
943.9706000000001	0.0968798758694902	60	diastole	1	B	500	systole
944.6606999999999	0.0968798758694902	60	diastole	2	B	500	systole
945.3533000000002	0.0968798758694902	60	diastole	3	B	500	systole
946.1125000000002	0.0968798758694902	60	diastole	4	B	500	systole
946.8424	0.0968798758694902	60	diastole	5	B	500	systole
947.5057000000002	0.0968798758694902	60	diastole	6	B	500	systole
948.1883000000003	0.0968798758694902	60	diastole	7	B	500	systole
948.8923	0.0968798758694902	60	diastole	8	B	500	systole
949.5753	0.0968798758694902	60	diastole	9	B	500	systole
950.2783	0.0968798758694902	60	diastole	10	B	500	systole
951.0565999999999	0.0968798758694902	60	diastole	11	B	500	systole
951.8181	0.0968798758694902	60	diastole	12	B	500	systole
952.5257000000001	0.0968798758694902	60	diastole	13	B	500	systole
955.4119000000001	0.0906255606096237	61	diastole	1	B	500	diastole
956.0918999999999	0.0906255606096237	61	diastole	2	B	500	diastole
956.7719000000002	0.0906255606096237	61	diastole	3	B	500	diastole
957.5567000000001	0.0906255606096237	61	diastole	4	B	500	diastole
958.2383	0.0906255606096237	61	diastole	5	B	500	diastole
958.9285	0.0906255606096237	61	diastole	6	B	500	diastole
959.6187	0.0906255606096237	61	diastole	7	B	500	diastole
960.2629000000002	0.0906255606096237	61	diastole	8	B	500	diastole
960.9919	0.0906255606096237	61	diastole	9	B	500	diastole
961.7116000000001	0.0906255606096237	61	diastole	10	B	500	diastole
962.4338000000002	0.0906255606096237	61	diastole	11	B	500	diastole
963.0885000000003	0.0906255606096237	61	diastole	12	B	500	diastole
963.7586000000001	0.0906255606096237	61	diastole	13	B	500	diastole
964.4385000000002	0.0906255606096237	61	diastole	14	B	500	diastole
966.7276999999999	0.0818699937663041	62	systole	1	B	500	systole
967.4376000000002	0.0818699937663041	62	systole	2	B	500	systole
968.0607	0.0818699937663041	62	systole	3	B	500	systole
968.7011000000002	0.0818699937663041	62	systole	4	B	500	systole
969.3415	0.0818699937663041	62	systole	5	B	500	systole
970.0331000000001	0.0818699937663041	62	systole	6	B	500	systole
970.7130999999999	0.0818699937663041	62	systole	7	B	500	systole
971.5205000000001	0.0818699937663041	62	systole	8	B	500	systole
972.3105	0.0818699937663041	62	systole	9	B	500	systole
973.04	0.0818699937663041	62	systole	10	B	500	systole
973.7357000000002	0.0818699937663041	62	systole	11	B	500	systole
974.5173	0.0818699937663041	62	systole	12	B	500	systole
975.2873	0.0818699937663041	62	systole	13	B	500	systole
976.0531000000001	0.0818699937663041	62	systole	14	B	500	systole
981.8018999999999	0.094998306245543	63	diastole	1	B	500	diastole
982.5619000000002	0.094998306245543	63	diastole	2	B	500	diastole
983.3899999999999	0.094998306245543	63	diastole	3	B	500	diastole
984.21	0.094998306245543	63	diastole	4	B	500	diastole
985.0299	0.094998306245543	63	diastole	5	B	500	diastole
985.7482	0.094998306245543	63	diastole	6	B	500	diastole
986.4816000000001	0.094998306245543	63	diastole	7	B	500	diastole
987.2314999999999	0.094998306245543	63	diastole	8	B	500	diastole
987.9781000000003	0.094998306245543	63	diastole	9	B	500	diastole
988.7082	0.094998306245543	63	diastole	10	B	500	diastole
989.4383000000003	0.094998306245543	63	diastole	11	B	500	diastole
990.1061	0.094998306245543	63	diastole	12	B	500	diastole
993.3912	0.0931394144427031	64	systole	1	B	500	systole
994.1212	0.0931394144427031	64	systole	2	B	500	systole
994.8206	0.0931394144427031	64	systole	3	B	500	systole
995.5407	0.0931394144427031	64	systole	4	B	500	systole
996.3231000000001	0.0931394144427031	64	systole	5	B	500	systole
997.0111999999999	0.0931394144427031	64	systole	6	B	500	systole
997.7112000000002	0.0931394144427031	64	systole	7	B	500	systole
998.4355	0.0931394144427031	64	systole	8	B	500	systole
999.1859	0.0931394144427031	64	systole	9	B	500	systole
999.9363000000003	0.0931394144427031	64	systole	10	B	500	systole
1000.6404000000002	0.0931394144427031	64	systole	11	B	500	systole
1001.4059000000002	0.0931394144427031	64	systole	12	B	500	systole
1002.1653999999999	0.0931394144427031	64	systole	13	B	500	systole
1005.0672	0.091255968727637	65	systole	1	B	500	diastole
1005.8373000000001	0.091255968727637	65	systole	2	B	500	diastole
1006.5241000000001	0.091255968727637	65	systole	3	B	500	diastole
1007.2343000000001	0.091255968727637	65	systole	4	B	500	diastole
1007.96	0.091255968727637	65	systole	5	B	500	diastole
1008.69	0.091255968727637	65	systole	6	B	500	diastole
1009.3465000000001	0.091255968727637	65	systole	7	B	500	diastole
1010.0262000000002	0.091255968727637	65	systole	8	B	500	diastole
1010.7422999999999	0.091255968727637	65	systole	9	B	500	diastole
1011.1824000000001	0.091255968727637	65	systole	10	B	500	diastole
1011.4594000000002	0.091255968727637	65	systole	11	B	500	diastole
1011.5718999999999	0.091255968727637	65	systole	12	B	500	diastole
1012.1262999999999	0.091255968727637	65	systole	13	B	500	diastole
1012.8561	0.091255968727637	65	systole	14	B	500	diastole
1013.6161999999999	0.091255968727637	65	systole	15	B	500	diastole
1014.3762999999999	0.091255968727637	65	systole	16	B	500	diastole
1018.4497999999999	0.0912424562266096	66	diastole	1	B	500	diastole
1019.1904	0.0912424562266096	66	diastole	2	B	500	diastole
1019.9306999999999	0.0912424562266096	66	diastole	3	B	500	diastole
1020.7093	0.0912424562266096	66	diastole	4	B	500	diastole
1021.3989999999999	0.0912424562266096	66	diastole	5	B	500	diastole
1022.0805	0.0912424562266096	66	diastole	6	B	500	diastole
1022.8104000000003	0.0912424562266096	66	diastole	7	B	500	diastole
1023.5403000000001	0.0912424562266096	66	diastole	8	B	500	diastole
1024.2703999999999	0.0912424562266096	66	diastole	9	B	500	diastole
1024.9702000000002	0.0912424562266096	66	diastole	10	B	500	diastole
1025.69	0.0912424562266096	66	diastole	11	B	500	diastole
1026.4203000000002	0.0912424562266096	66	diastole	12	B	500	diastole
1031.0448999999999	0.0906311521539464	67	systole	1	B	500	systole
1031.6977000000002	0.0906311521539464	67	systole	2	B	500	systole
1032.3545	0.0906311521539464	67	systole	3	B	500	systole
1033.0345000000002	0.0906311521539464	67	systole	4	B	500	systole
1033.7718	0.0906311521539464	67	systole	5	B	500	systole
1034.5392000000002	0.0906311521539464	67	systole	6	B	500	systole
1035.2893	0.0906311521539464	67	systole	7	B	500	systole
1036.0192000000002	0.0906311521539464	67	systole	8	B	500	systole
1036.8109	0.0906311521539464	67	systole	9	B	500	systole
1037.5908	0.0906311521539464	67	systole	10	B	500	systole
1038.3148	0.0906311521539464	67	systole	11	B	500	systole
1039.0348	0.0906311521539464	67	systole	12	B	500	systole
1039.7549	0.0906311521539464	67	systole	13	B	500	systole
1040.4749000000002	0.0906311521539464	67	systole	14	B	500	systole
1045.9241000000002	0.0943754892214201	68	systole	1	B	500	diastole
1046.674	0.0943754892214201	68	systole	2	B	500	diastole
1047.4239000000002	0.0943754892214201	68	systole	3	B	500	diastole
1048.1739000000002	0.0943754892214201	68	systole	4	B	500	diastole
1048.8219	0.0943754892214201	68	systole	5	B	500	diastole
1049.4805000000001	0.0943754892214201	68	systole	6	B	500	diastole
1050.1907	0.0943754892214201	68	systole	7	B	500	diastole
1050.9010000000003	0.0943754892214201	68	systole	8	B	500	diastole
1051.625	0.0943754892214201	68	systole	9	B	500	diastole
1052.3094	0.0943754892214201	68	systole	10	B	500	diastole
1052.9996	0.0943754892214201	68	systole	11	B	500	diastole
1053.6579000000002	0.0943754892214201	68	systole	12	B	500	diastole
1054.3877000000002	0.0943754892214201	68	systole	13	B	500	diastole
1055.1178	0.0943754892214201	68	systole	14	B	500	diastole
1059.4387000000002	0.0905956833739765	69	systole	1	B	500	diastole
1060.2386999999999	0.0905956833739765	69	systole	2	B	500	diastole
1060.8857000000003	0.0905956833739765	69	systole	3	B	500	diastole
1061.5657	0.0905956833739765	69	systole	4	B	500	diastole
1062.2458000000001	0.0905956833739765	69	systole	5	B	500	diastole
1062.9775	0.0905956833739765	69	systole	6	B	500	diastole
1063.6344	0.0905956833739765	69	systole	7	B	500	diastole
1064.3874	0.0905956833739765	69	systole	8	B	500	diastole
1065.1648	0.0905956833739765	69	systole	9	B	500	diastole
1065.9234000000001	0.0905956833739765	69	systole	10	B	500	diastole
1066.6273	0.0905956833739765	69	systole	11	B	500	diastole
1067.3371000000002	0.0905956833739765	69	systole	12	B	500	diastole
1068.0647	0.0905956833739765	69	systole	13	B	500	diastole
1068.8237	0.0905956833739765	69	systole	14	B	500	diastole
1071.2232	0.0907268904265947	70	diastole	1	B	500	diastole
1071.9231	0.0907268904265947	70	diastole	2	B	500	diastole
1072.5864000000001	0.0907268904265947	70	diastole	3	B	500	diastole
1073.2182000000003	0.0907268904265947	70	diastole	4	B	500	diastole
1073.8220999999999	0.0907268904265947	70	diastole	5	B	500	diastole
1074.5054	0.0907268904265947	70	diastole	6	B	500	diastole
1075.2054000000003	0.0907268904265947	70	diastole	7	B	500	diastole
1075.9353	0.0907268904265947	70	diastole	8	B	500	diastole
1076.6652	0.0907268904265947	70	diastole	9	B	500	diastole
1077.3549000000003	0.0907268904265947	70	diastole	10	B	500	diastole
1078.0448999999999	0.0907268904265947	70	diastole	11	B	500	diastole
1078.745	0.0907268904265947	70	diastole	12	B	500	diastole
1079.4449	0.0907268904265947	70	diastole	13	B	500	diastole
1080.085	0.0907268904265947	70	diastole	14	B	500	diastole
1080.7348000000002	0.0907268904265947	70	diastole	15	B	500	diastole
1083.1028000000001	0.0843809555517509	71	systole	1	B	500	systole
1083.813	0.0843809555517509	71	systole	2	B	500	systole
1084.5230999999999	0.0843809555517509	71	systole	3	B	500	systole
1085.3564999999999	0.0843809555517509	71	systole	4	B	500	systole
1086.1181000000001	0.0843809555517509	71	systole	5	B	500	systole
1086.8598000000002	0.0843809555517509	71	systole	6	B	500	systole
1087.6259	0.0843809555517509	71	systole	7	B	500	systole
1088.386	0.0843809555517509	71	systole	8	B	500	systole
1089.0976	0.0843809555517509	71	systole	9	B	500	systole
1089.8249	0.0843809555517509	71	systole	10	B	500	systole
1090.679	0.0843809555517509	71	systole	11	B	500	systole
1091.4448000000002	0.0843809555517509	71	systole	12	B	500	systole
1092.1733	0.0843809555517509	71	systole	13	B	500	systole
1092.9134	0.0843809555517509	71	systole	14	B	500	systole
1096.056	0.0937490164651535	72	systole	1	B	500	diastole
1096.7961	0.0937490164651535	72	systole	2	B	500	diastole
1097.4786	0.0937490164651535	72	systole	3	B	500	diastole
1098.1786000000002	0.0937490164651535	72	systole	4	B	500	diastole
1098.9569000000001	0.0937490164651535	72	systole	5	B	500	diastole
1099.7287000000001	0.0937490164651535	72	systole	6	B	500	diastole
1100.4886999999999	0.0937490164651535	72	systole	7	B	500	diastole
1101.1711	0.0937490164651535	72	systole	8	B	500	diastole
1101.871	0.0937490164651535	72	systole	9	B	500	diastole
1102.5952000000002	0.0937490164651535	72	systole	10	B	500	diastole
1103.4187000000002	0.0937490164651535	72	systole	11	B	500	diastole
1104.2186000000002	0.0937490164651535	72	systole	12	B	500	diastole
1104.9011	0.0937490164651535	72	systole	13	B	500	diastole
1109.4368	0.0962492934195324	73	systole	1	B	500	diastole
1110.1568000000002	0.0962492934195324	73	systole	2	B	500	diastole
1110.8768	0.0962492934195324	73	systole	3	B	500	diastole
1111.6943	0.0962492934195324	73	systole	4	B	500	diastole
1112.4944	0.0962492934195324	73	systole	5	B	500	diastole
1113.3317000000002	0.0962492934195324	73	systole	6	B	500	diastole
1114.0557	0.0962492934195324	73	systole	7	B	500	diastole
1114.8359	0.0962492934195324	73	systole	8	B	500	diastole
1115.6159000000002	0.0962492934195324	73	systole	9	B	500	diastole
1116.413	0.0962492934195324	73	systole	10	B	500	diastole
1117.1055999999999	0.0962492934195324	73	systole	11	B	500	diastole
1117.8084	0.0962492934195324	73	systole	12	B	500	diastole
1118.6055999999999	0.0962492934195324	73	systole	13	B	500	diastole
1124.9819000000002	0.0868698408594355	74	diastole	1	B	500	diastole
1125.7568999999999	0.0868698408594355	74	diastole	2	B	500	diastole
1126.5068999999999	0.0868698408594355	74	diastole	3	B	500	diastole
1127.1254	0.0868698408594355	74	diastole	4	B	500	diastole
1127.7624	0.0868698408594355	74	diastole	5	B	500	diastole
1128.4587999999999	0.0868698408594355	74	diastole	6	B	500	diastole
1129.1386000000002	0.0868698408594355	74	diastole	7	B	500	diastole
1129.8634000000002	0.0868698408594355	74	diastole	8	B	500	diastole
1130.5036	0.0868698408594355	74	diastole	9	B	500	diastole
1131.1435999999999	0.0868698408594355	74	diastole	10	B	500	diastole
1131.777	0.0868698408594355	74	diastole	11	B	500	diastole
1132.4085	0.0868698408594355	74	diastole	12	B	500	diastole
1133.0319	0.0868698408594355	74	diastole	13	B	500	diastole
1135.3055	0.0805954063544049	75	systole	1	B	500	systole
1136.0254	0.0805954063544049	75	systole	2	B	500	systole
1136.7453	0.0805954063544049	75	systole	3	B	500	systole
1137.4015	0.0805954063544049	75	systole	4	B	500	systole
1138.0155	0.0805954063544049	75	systole	5	B	500	systole
1138.6556	0.0805954063544049	75	systole	6	B	500	systole
1139.3316	0.0805954063544049	75	systole	7	B	500	systole
1140.0336000000002	0.0805954063544049	75	systole	8	B	500	systole
1140.7236000000003	0.0805954063544049	75	systole	9	B	500	systole
1141.3635	0.0805954063544049	75	systole	10	B	500	systole
1142.0286	0.0805954063544049	75	systole	11	B	500	systole
1142.7090000000003	0.0805954063544049	75	systole	12	B	500	systole
1143.449	0.0805954063544049	75	systole	13	B	500	systole
1144.1891	0.0805954063544049	75	systole	14	B	500	systole
1144.911	0.0805954063544049	75	systole	15	B	500	systole
1148.3883	0.0912471749470569	76	diastole	1	B	500	diastole
1149.1485000000002	0.0912471749470569	76	diastole	2	B	500	diastole
1149.9004	0.0912471749470569	76	diastole	3	B	500	diastole
1150.5602	0.0912471749470569	76	diastole	4	B	500	diastole
1151.2825000000003	0.0912471749470569	76	diastole	5	B	500	diastole
1152.0588000000002	0.0912471749470569	76	diastole	6	B	500	diastole
1152.8185000000003	0.0912471749470569	76	diastole	7	B	500	diastole
1153.6269000000002	0.0912471749470569	76	diastole	8	B	500	diastole
1154.455	0.0912471749470569	76	diastole	9	B	500	diastole
1155.255	0.0912471749470569	76	diastole	10	B	500	diastole
1155.9407	0.0912471749470569	76	diastole	11	B	500	diastole
1156.6521000000002	0.0912471749470569	76	diastole	12	B	500	diastole
1157.3818999999999	0.0912471749470569	76	diastole	13	B	500	diastole
1160.4693000000002	0.0906371438759379	77	systole	1	B	500	diastole
1161.1236	0.0906371438759379	77	systole	2	B	500	diastole
1161.7839	0.0906371438759379	77	systole	3	B	500	diastole
1162.4261000000001	0.0906371438759379	77	systole	4	B	500	diastole
1163.0989	0.0906371438759379	77	systole	5	B	500	diastole
1163.7989000000002	0.0906371438759379	77	systole	6	B	500	diastole
1164.4989	0.0906371438759379	77	systole	7	B	500	diastole
1165.1417000000001	0.0906371438759379	77	systole	8	B	500	diastole
1165.8017	0.0906371438759379	77	systole	9	B	500	diastole
1166.4443999999999	0.0906371438759379	77	systole	10	B	500	diastole
1167.1843	0.0906371438759379	77	systole	11	B	500	diastole
1167.8600999999999	0.0906371438759379	77	systole	12	B	500	diastole
1168.5301	0.0906371438759379	77	systole	13	B	500	diastole
1169.2218000000003	0.0906371438759379	77	systole	14	B	500	diastole
1169.9277000000002	0.0906371438759379	77	systole	15	B	500	diastole
1176.0179000000003	0.0937132994295097	78	systole	1	B	500	systole
1176.7374	0.0937132994295097	78	systole	2	B	500	systole
1177.4937	0.0937132994295097	78	systole	3	B	500	systole
1178.2438000000002	0.0937132994295097	78	systole	4	B	500	systole
1179.0042000000003	0.0937132994295097	78	systole	5	B	500	systole
1179.7326000000003	0.0937132994295097	78	systole	6	B	500	systole
1180.4728	0.0937132994295097	78	systole	7	B	500	systole
1181.1910000000003	0.0937132994295097	78	systole	8	B	500	systole
1181.9314	0.0937132994295097	78	systole	9	B	500	systole
1182.6716999999999	0.0937132994295097	78	systole	10	B	500	systole
1183.3594000000003	0.0937132994295097	78	systole	11	B	500	systole
1184.038	0.0937132994295097	78	systole	12	B	500	systole
1184.7701000000002	0.0937132994295097	78	systole	13	B	500	systole
1187.5764	0.0906353749451227	79	systole	1	B	500	systole
1188.3369000000002	0.0906353749451227	79	systole	2	B	500	systole
1189.0974	0.0906353749451227	79	systole	3	B	500	systole
1189.7745	0.0906353749451227	79	systole	4	B	500	systole
1190.4848000000002	0.0906353749451227	79	systole	5	B	500	systole
1191.1950000000002	0.0906353749451227	79	systole	6	B	500	systole
1191.9144999999999	0.0906353749451227	79	systole	7	B	500	systole
1192.6342	0.0906353749451227	79	systole	8	B	500	systole
1193.3486000000003	0.0906353749451227	79	systole	9	B	500	systole
1194.0985	0.0906353749451227	79	systole	10	B	500	systole
1194.7715000000003	0.0906353749451227	79	systole	11	B	500	systole
1195.4656	0.0906353749451227	79	systole	12	B	500	systole
1196.2272000000003	0.0906353749451227	79	systole	13	B	500	systole
1196.9771	0.0906353749451227	79	systole	14	B	500	systole
1201.9353	0.0900060187559574	80	systole	1	B	500	systole
1202.6865000000003	0.0900060187559574	80	systole	2	B	500	systole
1203.3450000000003	0.0900060187559574	80	systole	3	B	500	systole
1204.0149999999999	0.0900060187559574	80	systole	4	B	500	systole
1204.7033999999999	0.0900060187559574	80	systole	5	B	500	systole
1205.4665	0.0900060187559574	80	systole	6	B	500	systole
1206.1367	0.0900060187559574	80	systole	7	B	500	systole
1206.8068000000003	0.0900060187559574	80	systole	8	B	500	systole
1207.5151	0.0900060187559574	80	systole	9	B	500	systole
1208.2350999999999	0.0900060187559574	80	systole	10	B	500	systole
1208.9551000000001	0.0900060187559574	80	systole	11	B	500	systole
1209.6751	0.0900060187559574	80	systole	12	B	500	systole
1210.3996000000002	0.0900060187559574	80	systole	13	B	500	systole
1211.0974	0.0900060187559574	80	systole	14	B	500	systole
1216.2676000000001	0.0900113677489571	81	systole	1	B	500	diastole
1216.9676	0.0900113677489571	81	systole	2	B	500	diastole
1217.7036000000003	0.0900113677489571	81	systole	3	B	500	diastole
1218.4793	0.0900113677489571	81	systole	4	B	500	diastole
1219.2152	0.0900113677489571	81	systole	5	B	500	diastole
1219.8893000000003	0.0900113677489571	81	systole	6	B	500	diastole
1220.6653000000001	0.0900113677489571	81	systole	7	B	500	diastole
1221.4153000000001	0.0900113677489571	81	systole	8	B	500	diastole
1222.1653000000001	0.0900113677489571	81	systole	9	B	500	diastole
1222.8851	0.0900113677489571	81	systole	10	B	500	diastole
1223.6353	0.0900113677489571	81	systole	11	B	500	diastole
1224.5185999999999	0.0900113677489571	81	systole	12	B	500	diastole
1225.3785000000003	0.0900113677489571	81	systole	13	B	500	diastole
1228.4102000000003	0.0962548695970326	82	systole	1	B	500	diastole
1229.1202000000003	0.0962548695970326	82	systole	2	B	500	diastole
1229.8301999999999	0.0962548695970326	82	systole	3	B	500	diastole
1230.5702999999999	0.0962548695970326	82	systole	4	B	500	diastole
1231.3917000000001	0.0962548695970326	82	systole	5	B	500	diastole
1232.12	0.0962548695970326	82	systole	6	B	500	diastole
1232.8325	0.0962548695970326	82	systole	7	B	500	diastole
1233.6644000000001	0.0962548695970326	82	systole	8	B	500	diastole
1234.4844000000003	0.0962548695970326	82	systole	9	B	500	diastole
1235.1966000000002	0.0962548695970326	82	systole	10	B	500	diastole
1235.9468000000002	0.0962548695970326	82	systole	11	B	500	diastole
1236.7627000000002	0.0962548695970326	82	systole	12	B	500	diastole
1237.6335	0.0962548695970326	82	systole	13	B	500	diastole
1243.1732000000002	0.0937741257366724	83	diastole	1	B	500	systole
1243.9230000000002	0.0937741257366724	83	diastole	2	B	500	systole
1244.5946	0.0937741257366724	83	diastole	3	B	500	systole
1245.2981	0.0937741257366724	83	diastole	4	B	500	systole
1246.0181000000002	0.0937741257366724	83	diastole	5	B	500	systole
1246.8146000000002	0.0937741257366724	83	diastole	6	B	500	systole
1247.5946	0.0937741257366724	83	diastole	7	B	500	systole
1248.4031	0.0937741257366724	83	diastole	8	B	500	systole
1249.2217	0.0937741257366724	83	diastole	9	B	500	systole
1250.0080000000003	0.0937741257366724	83	diastole	10	B	500	systole
1250.7782000000002	0.0937741257366724	83	diastole	11	B	500	systole
1251.5483	0.0937741257366724	83	diastole	12	B	500	systole
1252.3962999999999	0.0937741257366724	83	diastole	13	B	500	systole
1257.7568	0.0962556999875232	84	diastole	1	B	500	systole
1258.4500000000003	0.0962556999875232	84	diastole	2	B	500	systole
1259.1534000000001	0.0962556999875232	84	diastole	3	B	500	systole
1259.8735000000001	0.0962556999875232	84	diastole	4	B	500	systole
1260.7169	0.0962556999875232	84	diastole	5	B	500	systole
1261.5268	0.0962556999875232	84	diastole	6	B	500	systole
1262.3367000000003	0.0962556999875232	84	diastole	7	B	500	systole
1263.1551	0.0962556999875232	84	diastole	8	B	500	systole
1263.9832999999999	0.0962556999875232	84	diastole	9	B	500	systole
1264.8033	0.0962556999875232	84	diastole	10	B	500	systole
1265.5434	0.0962556999875232	84	diastole	11	B	500	systole
1266.3232000000003	0.0962556999875232	84	diastole	12	B	500	systole
1268.8200000000002	0.097503593773581	85	systole	1	B	500	diastole
1269.4902000000002	0.097503593773581	85	systole	2	B	500	diastole
1270.0952000000002	0.097503593773581	85	systole	3	B	500	diastole
1270.7076000000002	0.097503593773581	85	systole	4	B	500	diastole
1271.3718	0.097503593773581	85	systole	5	B	500	diastole
1272.1318	0.097503593773581	85	systole	6	B	500	diastole
1272.8917999999999	0.097503593773581	85	systole	7	B	500	diastole
1273.6517	0.097503593773581	85	systole	8	B	500	diastole
1274.2983	0.097503593773581	85	systole	9	B	500	diastole
1274.9769000000001	0.097503593773581	85	systole	10	B	500	diastole
1275.6969	0.097503593773581	85	systole	11	B	500	diastole
1276.3569000000002	0.097503593773581	85	systole	12	B	500	diastole
1277.0169	0.097503593773581	85	systole	13	B	500	diastole
1277.6769	0.097503593773581	85	systole	14	B	500	diastole
1279.7227000000003	0.0868750374647788	86	systole	1	B	500	systole
1280.3928	0.0868750374647788	86	systole	2	B	500	systole
1281.1659	0.0868750374647788	86	systole	3	B	500	systole
1281.8859000000002	0.0868750374647788	86	systole	4	B	500	systole
1282.5484999999999	0.0868750374647788	86	systole	5	B	500	systole
1283.2443000000003	0.0868750374647788	86	systole	6	B	500	systole
1283.9344	0.0868750374647788	86	systole	7	B	500	systole
1284.6245	0.0868750374647788	86	systole	8	B	500	systole
1285.3301999999999	0.0868750374647788	86	systole	9	B	500	systole
1285.9845	0.0868750374647788	86	systole	10	B	500	systole
1286.6444999999999	0.0868750374647788	86	systole	11	B	500	systole
1287.3545	0.0868750374647788	86	systole	12	B	500	systole
1288.0545000000002	0.0868750374647788	86	systole	13	B	500	systole
1288.7545	0.0868750374647788	86	systole	14	B	500	systole
1289.5302000000001	0.0868750374647788	86	systole	15	B	500	systole
1292.5936000000002	0.0887535518268123	87	systole	1	B	500	systole
1293.3434000000002	0.0887535518268123	87	systole	2	B	500	systole
1294.085	0.0887535518268123	87	systole	3	B	500	systole
1294.7733000000003	0.0887535518268123	87	systole	4	B	500	systole
1295.4732	0.0887535518268123	87	systole	5	B	500	systole
1296.1731	0.0887535518268123	87	systole	6	B	500	systole
1296.893	0.0887535518268123	87	systole	7	B	500	systole
1297.6432	0.0887535518268123	87	systole	8	B	500	systole
1298.3935000000001	0.0887535518268123	87	systole	9	B	500	systole
1299.2392	0.0887535518268123	87	systole	10	B	500	systole
1300.0666	0.0887535518268123	87	systole	11	B	500	systole
1300.8767000000003	0.0887535518268123	87	systole	12	B	500	systole
1301.5792000000001	0.0887535518268123	87	systole	13	B	500	systole
1302.3509	0.0887535518268123	87	systole	14	B	500	systole
1307.0869000000002	0.0950156124890782	88	diastole	1	B	500	diastole
1307.8799	0.0950156124890782	88	diastole	2	B	500	diastole
1308.6398	0.0950156124890782	88	diastole	3	B	500	diastole
1309.3263000000002	0.0950156124890782	88	diastole	4	B	500	diastole
1310.0029	0.0950156124890782	88	diastole	5	B	500	diastole
1310.7328000000002	0.0950156124890782	88	diastole	6	B	500	diastole
1311.5414	0.0950156124890782	88	diastole	7	B	500	diastole
1312.2491	0.0950156124890782	88	diastole	8	B	500	diastole
1312.9888	0.0950156124890782	88	diastole	9	B	500	diastole
1313.7955000000002	0.0950156124890782	88	diastole	10	B	500	diastole
1314.5855999999999	0.0950156124890782	88	diastole	11	B	500	diastole
1315.2856000000002	0.0950156124890782	88	diastole	12	B	500	diastole
1315.9856	0.0950156124890782	88	diastole	13	B	500	diastole
1316.8197	0.0950156124890782	88	diastole	14	B	500	diastole
1321.1866	0.0943667559185996	89	diastole	1	B	500	diastole
1321.8616000000002	0.0943667559185996	89	diastole	2	B	500	diastole
1322.5615000000003	0.0943667559185996	89	diastole	3	B	500	diastole
1323.2815	0.0943667559185996	89	diastole	4	B	500	diastole
1324.0014	0.0943667559185996	89	diastole	5	B	500	diastole
1324.6833000000001	0.0943667559185996	89	diastole	6	B	500	diastole
1325.4025000000001	0.0943667559185996	89	diastole	7	B	500	diastole
1326.1220000000003	0.0943667559185996	89	diastole	8	B	500	diastole
1326.8826	0.0943667559185996	89	diastole	9	B	500	diastole
1327.6428	0.0943667559185996	89	diastole	10	B	500	diastole
1328.3327	0.0943667559185996	89	diastole	11	B	500	diastole
1329.034	0.0943667559185996	89	diastole	12	B	500	diastole
1329.8595	0.0943667559185996	89	diastole	13	B	500	diastole
1333.4325	0.0931329189334064	90	systole	1	B	500	systole
1334.1824000000001	0.0931329189334064	90	systole	2	B	500	systole
1334.9682000000003	0.0931329189334064	90	systole	3	B	500	systole
1335.7483000000002	0.0931329189334064	90	systole	4	B	500	systole
1336.5297	0.0931329189334064	90	systole	5	B	500	systole
1337.2383	0.0931329189334064	90	systole	6	B	500	systole
1337.9585000000002	0.0931329189334064	90	systole	7	B	500	systole
1338.7499000000003	0.0931329189334064	90	systole	8	B	500	systole
1339.4601000000002	0.0931329189334064	90	systole	9	B	500	systole
1340.1703000000002	0.0931329189334064	90	systole	10	B	500	systole
1340.8928	0.0931329189334064	90	systole	11	B	500	systole
1341.7001	0.0931329189334064	90	systole	12	B	500	systole
1345.3706000000002	0.0937376926303841	91	systole	1	B	500	diastole
1346.1324	0.0937376926303841	91	systole	2	B	500	diastole
1346.8824	0.0937376926303841	91	systole	3	B	500	diastole
1347.5509000000002	0.0937376926303841	91	systole	4	B	500	diastole
1348.2310000000002	0.0937376926303841	91	systole	5	B	500	diastole
1348.9911000000002	0.0937376926303841	91	systole	6	B	500	diastole
1349.8132	0.0937376926303841	91	systole	7	B	500	diastole
1350.6235000000001	0.0937376926303841	91	systole	8	B	500	diastole
1351.3419	0.0937376926303841	91	systole	9	B	500	diastole
1352.1118999999999	0.0937376926303841	91	systole	10	B	500	diastole
1352.9255000000003	0.0937376926303841	91	systole	11	B	500	diastole
1353.7157000000002	0.0937376926303841	91	systole	12	B	500	diastole
1354.4497999999999	0.0937376926303841	91	systole	13	B	500	diastole
1355.2221	0.0937376926303841	91	systole	14	B	500	diastole
1358.4071	0.092481950065121	92	diastole	1	B	500	diastole
1359.1474000000003	0.092481950065121	92	diastole	2	B	500	diastole
1359.8465	0.092481950065121	92	diastole	3	B	500	diastole
1360.5460000000003	0.092481950065121	92	diastole	4	B	500	diastole
1361.2960000000003	0.092481950065121	92	diastole	5	B	500	diastole
1362.0460000000003	0.092481950065121	92	diastole	6	B	500	diastole
1362.7566000000002	0.092481950065121	92	diastole	7	B	500	diastole
1363.467	0.092481950065121	92	diastole	8	B	500	diastole
1364.2555000000002	0.092481950065121	92	diastole	9	B	500	diastole
1365.0336000000002	0.092481950065121	92	diastole	10	B	500	diastole
1365.7332000000001	0.092481950065121	92	diastole	11	B	500	diastole
1366.5014	0.092481950065121	92	diastole	12	B	500	diastole
1367.2613999999999	0.092481950065121	92	diastole	13	B	500	diastole
1370.6350000000002	0.0956183750531636	93	diastole	1	B	500	diastole
1371.355	0.0956183750531636	93	diastole	2	B	500	diastole
1372.0751	0.0956183750531636	93	diastole	3	B	500	diastole
1372.7784000000001	0.0956183750531636	93	diastole	4	B	500	diastole
1373.5115	0.0956183750531636	93	diastole	5	B	500	diastole
1374.2801	0.0956183750531636	93	diastole	6	B	500	diastole
1374.9818	0.0956183750531636	93	diastole	7	B	500	diastole
1375.6919000000003	0.0956183750531636	93	diastole	8	B	500	diastole
1376.402	0.0956183750531636	93	diastole	9	B	500	diastole
1377.1748000000002	0.0956183750531636	93	diastole	10	B	500	diastole
1377.9639000000002	0.0956183750531636	93	diastole	11	B	500	diastole
1378.6640000000002	0.0956183750531636	93	diastole	12	B	500	diastole
1379.3490000000002	0.0956183750531636	93	diastole	13	B	500	diastole
1380.1440000000002	0.0956183750531636	93	diastole	14	B	500	diastole
1389.3013	0.0918748777476139	94	systole	1	B	500	systole
1389.9492	0.0918748777476139	94	systole	2	B	500	systole
1390.5973	0.0918748777476139	94	systole	3	B	500	systole
1391.1706	0.0918748777476139	94	systole	4	B	500	systole
1391.7902	0.0918748777476139	94	systole	5	B	500	systole
1392.4171000000001	0.0918748777476139	94	systole	6	B	500	systole
1393.0672	0.0918748777476139	94	systole	7	B	500	systole
1393.7577	0.0918748777476139	94	systole	8	B	500	systole
1394.4052000000001	0.0918748777476139	94	systole	9	B	500	systole
1395.0653000000002	0.0918748777476139	94	systole	10	B	500	systole
1395.7254000000003	0.0918748777476139	94	systole	11	B	500	systole
1396.4359	0.0918748777476139	94	systole	12	B	500	systole
1397.0855000000001	0.0918748777476139	94	systole	13	B	500	systole
1397.7350999999999	0.0918748777476139	94	systole	14	B	500	systole
1400.5193	0.0819150749011896	95	systole	1	B	500	systole
1401.1992	0.0819150749011896	95	systole	2	B	500	systole
1401.9207000000001	0.0819150749011896	95	systole	3	B	500	systole
1402.6408999999999	0.0819150749011896	95	systole	4	B	500	systole
1403.3611	0.0819150749011896	95	systole	5	B	500	systole
1404.1243	0.0819150749011896	95	systole	6	B	500	systole
1404.7943	0.0819150749011896	95	systole	7	B	500	systole
1405.4999000000003	0.0819150749011896	95	systole	8	B	500	systole
1406.1997999999999	0.0819150749011896	95	systole	9	B	500	systole
1406.9459000000002	0.0819150749011896	95	systole	10	B	500	systole
1407.6377000000002	0.0819150749011896	95	systole	11	B	500	systole
1408.3176000000003	0.0819150749011896	95	systole	12	B	500	systole
1409.0018	0.0819150749011896	95	systole	13	B	500	systole
1409.7336	0.0819150749011896	95	systole	14	B	500	systole
1412.3367000000003	0.0887506809667684	96	diastole	1	B	500	diastole
1413.0251000000003	0.0887506809667684	96	diastole	2	B	500	diastole
1413.7434000000003	0.0887506809667684	96	diastole	3	B	500	diastole
1414.3883	0.0887506809667684	96	diastole	4	B	500	diastole
1415.0418	0.0887506809667684	96	diastole	5	B	500	diastole
1415.7681000000002	0.0887506809667684	96	diastole	6	B	500	diastole
1416.4764	0.0887506809667684	96	diastole	7	B	500	diastole
1417.1765	0.0887506809667684	96	diastole	8	B	500	diastole
1417.8683	0.0887506809667684	96	diastole	9	B	500	diastole
1418.5883	0.0887506809667684	96	diastole	10	B	500	diastole
1419.3062	0.0887506809667684	96	diastole	11	B	500	diastole
1420.0262000000002	0.0887506809667684	96	diastole	12	B	500	diastole
1420.7461000000003	0.0887506809667684	96	diastole	13	B	500	diastole
1421.5343000000003	0.0887506809667684	96	diastole	14	B	500	diastole
1431.7335000000003	0.0825211812043562	97	systole	1	B	500	diastole
1432.4731000000002	0.0825211812043562	97	systole	2	B	500	diastole
1433.2710000000002	0.0825211812043562	97	systole	3	B	500	diastole
1434.0230000000001	0.0825211812043562	97	systole	4	B	500	diastole
1434.7110000000002	0.0825211812043562	97	systole	5	B	500	diastole
1435.4429	0.0825211812043562	97	systole	6	B	500	diastole
1436.1186000000002	0.0825211812043562	97	systole	7	B	500	diastole
1436.7768	0.0825211812043562	97	systole	8	B	500	diastole
1437.4469	0.0825211812043562	97	systole	9	B	500	diastole
1438.1170000000002	0.0825211812043562	97	systole	10	B	500	diastole
1438.8171000000002	0.0825211812043562	97	systole	11	B	500	diastole
1439.5788000000002	0.0825211812043562	97	systole	12	B	500	diastole
1440.237	0.0825211812043562	97	systole	13	B	500	diastole
1440.9069	0.0825211812043562	97	systole	14	B	500	diastole
1443.5398	0.08749909279868	98	diastole	1	B	500	systole
1444.2585	0.08749909279868	98	diastole	2	B	500	systole
1444.9687	0.08749909279868	98	diastole	3	B	500	systole
1445.6868	0.08749909279868	98	diastole	4	B	500	systole
1446.3966	0.08749909279868	98	diastole	5	B	500	systole
1447.0681	0.08749909279868	98	diastole	6	B	500	systole
1447.8264	0.08749909279868	98	diastole	7	B	500	systole
1448.6797000000001	0.08749909279868	98	diastole	8	B	500	systole
1449.4995	0.08749909279868	98	diastole	9	B	500	systole
1450.3128000000002	0.08749909279868	98	diastole	10	B	500	systole
1451.0928	0.08749909279868	98	diastole	11	B	500	systole
1451.9479999999999	0.08749909279868	98	diastole	12	B	500	systole
1452.6578	0.08749909279868	98	diastole	13	B	500	systole
1459.2152	0.0955890250625088	99	systole	1	B	500	diastole
1459.9853000000003	0.0955890250625088	99	systole	2	B	500	diastole
1460.6551	0.0955890250625088	99	systole	3	B	500	diastole
1461.3249	0.0955890250625088	99	systole	4	B	500	diastole
1461.9681	0.0955890250625088	99	systole	5	B	500	diastole
1462.6244000000002	0.0955890250625088	99	systole	6	B	500	diastole
1463.3244	0.0955890250625088	99	systole	7	B	500	diastole
1463.958	0.0955890250625088	99	systole	8	B	500	diastole
1464.6381000000001	0.0955890250625088	99	systole	9	B	500	diastole
1465.3222	0.0955890250625088	99	systole	10	B	500	diastole
1465.9864000000002	0.0955890250625088	99	systole	11	B	500	diastole
1466.6565	0.0955890250625088	99	systole	12	B	500	diastole
1467.3006	0.0955890250625088	99	systole	13	B	500	diastole
1467.9709000000003	0.0955890250625088	99	systole	14	B	500	diastole
1469.951	0.0843958562472835	100	systole	1	B	500	diastole
1470.591	0.0843958562472835	100	systole	2	B	500	diastole
1471.1951	0.0843958562472835	100	systole	3	B	500	diastole
1471.7834000000003	0.0843958562472835	100	systole	4	B	500	diastole
1472.3733000000002	0.0843958562472835	100	systole	5	B	500	diastole
1472.9342000000001	0.0843958562472835	100	systole	6	B	500	diastole
1473.5244000000002	0.0843958562472835	100	systole	7	B	500	diastole
1474.1460000000002	0.0843958562472835	100	systole	8	B	500	diastole
1474.784	0.0843958562472835	100	systole	9	B	500	diastole
1475.4241000000002	0.0843958562472835	100	systole	10	B	500	diastole
1476.0642000000003	0.0843958562472835	100	systole	11	B	500	diastole
1476.7341999999999	0.0843958562472835	100	systole	12	B	500	diastole
1477.4605999999999	0.0843958562472835	100	systole	13	B	500	diastole
1478.2071	0.0843958562472835	100	systole	14	B	500	diastole
1478.8961	0.0843958562472835	100	systole	15	B	500	diastole
1479.6396	0.0843958562472835	100	systole	16	B	500	diastole
