onset	duration	trial_num	trial_type	tone_num	tone_type	frequency	response
152.7714	0.1075042217271402	1	diastole	1	A	1578.5670027440333	coherent
152.9881	0.1075042217271402	1	diastole	2	B	500.0	coherent
153.2044	0.1075042217271402	1	diastole	3	A	1578.5670027440333	coherent
153.5995	0.1075042217271402	1	diastole	4	A	1578.5670027440333	coherent
153.8162	0.1075042217271402	1	diastole	5	B	500.0	coherent
154.0325	0.1075042217271402	1	diastole	6	A	1578.5670027440333	coherent
154.4277	0.1075042217271402	1	diastole	7	A	1578.5670027440333	coherent
154.6443	0.1075042217271402	1	diastole	8	B	500.0	coherent
154.8606	0.1075042217271402	1	diastole	9	A	1578.5670027440333	coherent
155.3193	0.1075042217271402	1	diastole	10	A	1578.5670027440333	coherent
155.5345	0.1075042217271402	1	diastole	11	B	500.0	coherent
155.7493	0.1075042217271402	1	diastole	12	A	1578.5670027440333	coherent
156.2193	0.1075042217271402	1	diastole	13	A	1578.5670027440333	coherent
156.4345	0.1075042217271402	1	diastole	14	B	500.0	coherent
156.6493	0.1075042217271402	1	diastole	15	A	1578.5670027440333	coherent
157.1493	0.1075042217271402	1	diastole	16	A	1578.5670027440333	coherent
157.3645	0.1075042217271402	1	diastole	17	B	500.0	coherent
157.5793	0.1075042217271402	1	diastole	18	A	1578.5670027440333	coherent
158.0718	0.1075042217271402	1	diastole	19	A	1578.5670027440333	coherent
158.2909	0.1075042217271402	1	diastole	20	B	500.0	coherent
158.5097	0.1075042217271402	1	diastole	21	A	1578.5670027440333	coherent
158.9118	0.1075042217271402	1	diastole	22	A	1578.5670027440333	coherent
159.1309	0.1075042217271402	1	diastole	23	B	500.0	coherent
159.3497	0.1075042217271402	1	diastole	24	A	1578.5670027440333	coherent
159.7518	0.1075042217271402	1	diastole	25	A	1578.5670027440333	coherent
159.971	0.1075042217271402	1	diastole	26	B	500.0	coherent
160.1898	0.1075042217271402	1	diastole	27	A	1578.5670027440333	coherent
160.5618	0.1075042217271402	1	diastole	28	A	1578.5670027440333	coherent
160.7809	0.1075042217271402	1	diastole	29	B	500.0	coherent
160.9998	0.1075042217271402	1	diastole	30	A	1578.5670027440333	coherent
161.4817	0.1075042217271402	1	diastole	31	A	1578.5670027440333	coherent
161.7044	0.1075042217271402	1	diastole	32	B	500.0	coherent
161.9267	0.1075042217271402	1	diastole	33	A	1578.5670027440333	coherent
169.6904	0.1087566900532692	2	systole	1	A	1578.5670027440333	coherent
169.9081	0.1087566900532692	2	systole	2	B	500.0	coherent
170.1254	0.1087566900532692	2	systole	3	A	1578.5670027440333	coherent
170.502	0.1087566900532692	2	systole	4	A	1578.5670027440333	coherent
170.7147	0.1087566900532692	2	systole	5	B	500.0	coherent
170.9271	0.1087566900532692	2	systole	6	A	1578.5670027440333	coherent
171.332	0.1087566900532692	2	systole	7	A	1578.5670027440333	coherent
171.5447	0.1087566900532692	2	systole	8	B	500.0	coherent
171.757	0.1087566900532692	2	systole	9	A	1578.5670027440333	coherent
172.2301	0.1087566900532692	2	systole	10	A	1578.5670027440333	coherent
172.4477	0.1087566900532692	2	systole	11	B	500.0	coherent
172.6651	0.1087566900532692	2	systole	12	A	1578.5670027440333	coherent
173.1099	0.1087566900532692	2	systole	13	A	1578.5670027440333	coherent
173.3276	0.1087566900532692	2	systole	14	B	500.0	coherent
173.5449	0.1087566900532692	2	systole	15	A	1578.5670027440333	coherent
173.9903	0.1087566900532692	2	systole	16	A	1578.5670027440333	coherent
174.2079	0.1087566900532692	2	systole	17	B	500.0	coherent
174.4253	0.1087566900532692	2	systole	18	A	1578.5670027440333	coherent
174.762	0.1087566900532692	2	systole	19	A	1578.5670027440333	coherent
174.9724	0.1087566900532692	2	systole	20	B	500.0	coherent
175.1824	0.1087566900532692	2	systole	21	A	1578.5670027440333	coherent
175.5603	0.1087566900532692	2	systole	22	A	1578.5670027440333	coherent
175.7707	0.1087566900532692	2	systole	23	B	500.0	coherent
175.9808	0.1087566900532692	2	systole	24	A	1578.5670027440333	coherent
176.3403	0.1087566900532692	2	systole	25	A	1578.5670027440333	coherent
176.5507	0.1087566900532692	2	systole	26	B	500.0	coherent
176.7608	0.1087566900532692	2	systole	27	A	1578.5670027440333	coherent
177.1203	0.1087566900532692	2	systole	28	A	1578.5670027440333	coherent
177.3307	0.1087566900532692	2	systole	29	B	500.0	coherent
177.5407	0.1087566900532692	2	systole	30	A	1578.5670027440333	coherent
177.9771	0.1087566900532692	2	systole	31	A	1578.5670027440333	coherent
178.1898	0.1087566900532692	2	systole	32	B	500.0	coherent
178.4021	0.1087566900532692	2	systole	33	A	1578.5670027440333	coherent
187.2709	0.1086507668369449	3	diastole	1	A	2180.0224995339627	coherent
187.4946	0.1086507668369449	3	diastole	2	B	500.0	coherent
187.7184	0.1086507668369449	3	diastole	3	A	2180.0224995339627	coherent
188.1709	0.1086507668369449	3	diastole	4	A	2180.0224995339627	coherent
188.3946	0.1086507668369449	3	diastole	5	B	500.0	coherent
188.6184	0.1086507668369449	3	diastole	6	A	2180.0224995339627	coherent
189.0709	0.1086507668369449	3	diastole	7	A	2180.0224995339627	coherent
189.2946	0.1086507668369449	3	diastole	8	B	500.0	coherent
189.5183	0.1086507668369449	3	diastole	9	A	2180.0224995339627	coherent
189.9009	0.1086507668369449	3	diastole	10	A	2180.0224995339627	coherent
190.1246	0.1086507668369449	3	diastole	11	B	500.0	coherent
190.3484	0.1086507668369449	3	diastole	12	A	2180.0224995339627	coherent
190.7309	0.1086507668369449	3	diastole	13	A	2180.0224995339627	coherent
190.9546	0.1086507668369449	3	diastole	14	B	500.0	coherent
191.1784	0.1086507668369449	3	diastole	15	A	2180.0224995339627	coherent
191.5609	0.1086507668369449	3	diastole	16	A	2180.0224995339627	coherent
191.7847	0.1086507668369449	3	diastole	17	B	500.0	coherent
192.0084	0.1086507668369449	3	diastole	18	A	2180.0224995339627	coherent
192.4096	0.1086507668369449	3	diastole	19	A	2180.0224995339627	coherent
192.6296	0.1086507668369449	3	diastole	20	B	500.0	coherent
192.8496	0.1086507668369449	3	diastole	21	A	2180.0224995339627	coherent
193.2226	0.1086507668369449	3	diastole	22	A	2180.0224995339627	coherent
193.4413	0.1086507668369449	3	diastole	23	B	500.0	coherent
193.6601	0.1086507668369449	3	diastole	24	A	2180.0224995339627	coherent
194.0426	0.1086507668369449	3	diastole	25	A	2180.0224995339627	coherent
194.2614	0.1086507668369449	3	diastole	26	B	500.0	coherent
194.4801	0.1086507668369449	3	diastole	27	A	2180.0224995339627	coherent
194.8226	0.1086507668369449	3	diastole	28	A	2180.0224995339627	coherent
195.0413	0.1086507668369449	3	diastole	29	B	500.0	coherent
195.2601	0.1086507668369449	3	diastole	30	A	2180.0224995339627	coherent
195.6343	0.1086507668369449	3	diastole	31	A	2180.0224995339627	coherent
195.8481	0.1086507668369449	3	diastole	32	B	500.0	coherent
196.0618	0.1086507668369449	3	diastole	33	A	2180.0224995339627	coherent
208.0665	0.1106225001858547	4	diastole	1	A	1987.9452401467304	coherent
208.288	0.1106225001858547	4	diastole	2	B	500.0	coherent
208.509	0.1106225001858547	4	diastole	3	A	1987.9452401467304	coherent
209.0164	0.1106225001858547	4	diastole	4	A	1987.9452401467304	coherent
209.238	0.1106225001858547	4	diastole	5	B	500.0	coherent
209.4589	0.1106225001858547	4	diastole	6	A	1987.9452401467304	coherent
209.9664	0.1106225001858547	4	diastole	7	A	1987.9452401467304	coherent
210.188	0.1106225001858547	4	diastole	8	B	500.0	coherent
210.4089	0.1106225001858547	4	diastole	9	A	1987.9452401467304	coherent
210.9164	0.1106225001858547	4	diastole	10	A	1987.9452401467304	coherent
211.138	0.1106225001858547	4	diastole	11	B	500.0	coherent
211.3589	0.1106225001858547	4	diastole	12	A	1987.9452401467304	coherent
211.7477	0.1106225001858547	4	diastole	13	A	1987.9452401467304	coherent
211.973	0.1106225001858547	4	diastole	14	B	500.0	coherent
212.1977	0.1106225001858547	4	diastole	15	A	1987.9452401467304	coherent
212.5535	0.1106225001858547	4	diastole	16	A	1987.9452401467304	coherent
212.7763	0.1106225001858547	4	diastole	17	B	500.0	coherent
212.9985	0.1106225001858547	4	diastole	18	A	1987.9452401467304	coherent
213.3736	0.1106225001858547	4	diastole	19	A	1987.9452401467304	coherent
213.5964	0.1106225001858547	4	diastole	20	B	500.0	coherent
213.8186	0.1106225001858547	4	diastole	21	A	1987.9452401467304	coherent
214.2252	0.1106225001858547	4	diastole	22	A	1987.9452401467304	coherent
214.443	0.1106225001858547	4	diastole	23	B	500.0	coherent
214.6601	0.1106225001858547	4	diastole	24	A	1987.9452401467304	coherent
215.1052	0.1106225001858547	4	diastole	25	A	1987.9452401467304	coherent
215.323	0.1106225001858547	4	diastole	26	B	500.0	coherent
215.5402	0.1106225001858547	4	diastole	27	A	1987.9452401467304	coherent
215.9152	0.1106225001858547	4	diastole	28	A	1987.9452401467304	coherent
216.133	0.1106225001858547	4	diastole	29	B	500.0	coherent
216.3502	0.1106225001858547	4	diastole	30	A	1987.9452401467304	coherent
216.7252	0.1106225001858547	4	diastole	31	A	1987.9452401467304	coherent
216.943	0.1106225001858547	4	diastole	32	B	500.0	coherent
217.1602	0.1106225001858547	4	diastole	33	A	1987.9452401467304	coherent
223.478	0.1081283036619424	5	diastole	1	A	2942.014383864825	streaming
223.6946	0.1081283036619424	5	diastole	2	B	500.0	streaming
223.9105	0.1081283036619424	5	diastole	3	A	2942.014383864825	streaming
224.2879	0.1081283036619424	5	diastole	4	A	2942.014383864825	streaming
224.5044	0.1081283036619424	5	diastole	5	B	500.0	streaming
224.7204	0.1081283036619424	5	diastole	6	A	2942.014383864825	streaming
225.0979	0.1081283036619424	5	diastole	7	A	2942.014383864825	streaming
225.3144	0.1081283036619424	5	diastole	8	B	500.0	streaming
225.5304	0.1081283036619424	5	diastole	9	A	2942.014383864825	streaming
226.0025	0.1081283036619424	5	diastole	10	A	2942.014383864825	streaming
226.2215	0.1081283036619424	5	diastole	11	B	500.0	streaming
226.4399	0.1081283036619424	5	diastole	12	A	2942.014383864825	streaming
226.8718	0.1081283036619424	5	diastole	13	A	2942.014383864825	streaming
227.0908	0.1081283036619424	5	diastole	14	B	500.0	streaming
227.3092	0.1081283036619424	5	diastole	15	A	2942.014383864825	streaming
227.7218	0.1081283036619424	5	diastole	16	A	2942.014383864825	streaming
227.9408	0.1081283036619424	5	diastole	17	B	500.0	streaming
228.1592	0.1081283036619424	5	diastole	18	A	2942.014383864825	streaming
228.5718	0.1081283036619424	5	diastole	19	A	2942.014383864825	streaming
228.7908	0.1081283036619424	5	diastole	20	B	500.0	streaming
229.0092	0.1081283036619424	5	diastole	21	A	2942.014383864825	streaming
229.3518	0.1081283036619424	5	diastole	22	A	2942.014383864825	streaming
229.5708	0.1081283036619424	5	diastole	23	B	500.0	streaming
229.7892	0.1081283036619424	5	diastole	24	A	2942.014383864825	streaming
230.2477	0.1081283036619424	5	diastole	25	A	2942.014383864825	streaming
230.4642	0.1081283036619424	5	diastole	26	B	500.0	streaming
230.6801	0.1081283036619424	5	diastole	27	A	2942.014383864825	streaming
231.1577	0.1081283036619424	5	diastole	28	A	2942.014383864825	streaming
231.3742	0.1081283036619424	5	diastole	29	B	500.0	streaming
231.5901	0.1081283036619424	5	diastole	30	A	2942.014383864825	streaming
232.0577	0.1081283036619424	5	diastole	31	A	2942.014383864825	streaming
232.2742	0.1081283036619424	5	diastole	32	B	500.0	streaming
232.4901	0.1081283036619424	5	diastole	33	A	2942.014383864825	streaming
232.9348	0.1081283036619424	5	diastole	34	A	2942.014383864825	streaming
233.1525	0.1081283036619424	5	diastole	35	B	500.0	streaming
233.3697	0.1081283036619424	5	diastole	36	A	2942.014383864825	streaming
236.8196	0.1099986180779524	6	systole	1	A	2180.0224995339627	streaming
237.0396	0.1099986180779524	6	systole	2	B	500.0	streaming
237.2596	0.1099986180779524	6	systole	3	A	2180.0224995339627	streaming
237.6396	0.1099986180779524	6	systole	4	A	2180.0224995339627	streaming
237.8596	0.1099986180779524	6	systole	5	B	500.0	streaming
238.0796	0.1099986180779524	6	systole	6	A	2180.0224995339627	streaming
238.5197	0.1099986180779524	6	systole	7	A	2180.0224995339627	streaming
238.7396	0.1099986180779524	6	systole	8	B	500.0	streaming
238.9596	0.1099986180779524	6	systole	9	A	2180.0224995339627	streaming
239.3796	0.1099986180779524	6	systole	10	A	2180.0224995339627	streaming
239.5996	0.1099986180779524	6	systole	11	B	500.0	streaming
239.8196	0.1099986180779524	6	systole	12	A	2180.0224995339627	streaming
240.1798	0.1099986180779524	6	systole	13	A	2180.0224995339627	streaming
240.3998	0.1099986180779524	6	systole	14	B	500.0	streaming
240.6198	0.1099986180779524	6	systole	15	A	2180.0224995339627	streaming
240.98	0.1099986180779524	6	systole	16	A	2180.0224995339627	streaming
241.2	0.1099986180779524	6	systole	17	B	500.0	streaming
241.42	0.1099986180779524	6	systole	18	A	2180.0224995339627	streaming
241.73	0.1099986180779524	6	systole	19	A	2180.0224995339627	streaming
241.95	0.1099986180779524	6	systole	20	B	500.0	streaming
242.17	0.1099986180779524	6	systole	21	A	2180.0224995339627	streaming
242.5208	0.1099986180779524	6	systole	22	A	2180.0224995339627	streaming
242.7383	0.1099986180779524	6	systole	23	B	500.0	streaming
242.9558	0.1099986180779524	6	systole	24	A	2180.0224995339627	streaming
243.3571	0.1099986180779524	6	systole	25	A	2180.0224995339627	streaming
243.5709	0.1099986180779524	6	systole	26	B	500.0	streaming
243.7846	0.1099986180779524	6	systole	27	A	2180.0224995339627	streaming
244.2175	0.1099986180779524	6	systole	28	A	2180.0224995339627	streaming
244.4312	0.1099986180779524	6	systole	29	B	500.0	streaming
244.645	0.1099986180779524	6	systole	30	A	2180.0224995339627	streaming
245.0778	0.1099986180779524	6	systole	31	A	2180.0224995339627	streaming
245.2916	0.1099986180779524	6	systole	32	B	500.0	streaming
245.5053	0.1099986180779524	6	systole	33	A	2180.0224995339627	streaming
245.9382	0.1099986180779524	6	systole	34	A	2180.0224995339627	streaming
246.1519	0.1099986180779524	6	systole	35	B	500.0	streaming
246.3657	0.1099986180779524	6	systole	36	A	2180.0224995339627	streaming
250.0442	0.1068990436615422	7	diastole	1	A	1653.0702107864488	coherent
250.2582	0.1068990436615422	7	diastole	2	B	500.0	coherent
250.4718	0.1068990436615422	7	diastole	3	A	1653.0702107864488	coherent
250.8742	0.1068990436615422	7	diastole	4	A	1653.0702107864488	coherent
251.0882	0.1068990436615422	7	diastole	5	B	500.0	coherent
251.3018	0.1068990436615422	7	diastole	6	A	1653.0702107864488	coherent
251.6444	0.1068990436615422	7	diastole	7	A	1653.0702107864488	coherent
251.8584	0.1068990436615422	7	diastole	8	B	500.0	coherent
252.072	0.1068990436615422	7	diastole	9	A	1653.0702107864488	coherent
252.5473	0.1068990436615422	7	diastole	10	A	1653.0702107864488	coherent
252.76	0.1068990436615422	7	diastole	11	B	500.0	coherent
252.9724	0.1068990436615422	7	diastole	12	A	1653.0702107864488	coherent
253.4242	0.1068990436615422	7	diastole	13	A	1653.0702107864488	coherent
253.6381	0.1068990436615422	7	diastole	14	B	500.0	coherent
253.8517	0.1068990436615422	7	diastole	15	A	1653.0702107864488	coherent
254.2942	0.1068990436615422	7	diastole	16	A	1653.0702107864488	coherent
254.5082	0.1068990436615422	7	diastole	17	B	500.0	coherent
254.7217	0.1068990436615422	7	diastole	18	A	1653.0702107864488	coherent
255.1242	0.1068990436615422	7	diastole	19	A	1653.0702107864488	coherent
255.3382	0.1068990436615422	7	diastole	20	B	500.0	coherent
255.5517	0.1068990436615422	7	diastole	21	A	1653.0702107864488	coherent
255.9542	0.1068990436615422	7	diastole	22	A	1653.0702107864488	coherent
256.1682	0.1068990436615422	7	diastole	23	B	500.0	coherent
256.3817	0.1068990436615422	7	diastole	24	A	1653.0702107864488	coherent
256.7558	0.1068990436615422	7	diastole	25	A	1653.0702107864488	coherent
256.9647	0.1068990436615422	7	diastole	26	B	500.0	coherent
257.1733	0.1068990436615422	7	diastole	27	A	1653.0702107864488	coherent
257.5787	0.1068990436615422	7	diastole	28	A	1653.0702107864488	coherent
257.7864	0.1068990436615422	7	diastole	29	B	500.0	coherent
257.9937	0.1068990436615422	7	diastole	30	A	1653.0702107864488	coherent
258.4287	0.1068990436615422	7	diastole	31	A	1653.0702107864488	coherent
258.6364	0.1068990436615422	7	diastole	32	B	500.0	coherent
258.8437	0.1068990436615422	7	diastole	33	A	1653.0702107864488	coherent
262.834	0.1037473695469088	8	systole	1	A	1253.4921645871675	streaming
263.0414	0.1037473695469088	8	systole	2	B	500.0	streaming
263.249	0.1037473695469088	8	systole	3	A	1253.4921645871675	streaming
263.6786	0.1037473695469088	8	systole	4	A	1253.4921645871675	streaming
263.8872	0.1037473695469088	8	systole	5	B	500.0	streaming
264.096	0.1037473695469088	8	systole	6	A	1253.4921645871675	streaming
264.5185	0.1037473695469088	8	systole	7	A	1253.4921645871675	streaming
264.7272	0.1037473695469088	8	systole	8	B	500.0	streaming
264.936	0.1037473695469088	8	systole	9	A	1253.4921645871675	streaming
265.3976	0.1037473695469088	8	systole	10	A	1253.4921645871675	streaming
265.6088	0.1037473695469088	8	systole	11	B	500.0	streaming
265.8201	0.1037473695469088	8	systole	12	A	1253.4921645871675	streaming
266.2277	0.1037473695469088	8	systole	13	A	1253.4921645871675	streaming
266.4389	0.1037473695469088	8	systole	14	B	500.0	streaming
266.6502	0.1037473695469088	8	systole	15	A	1253.4921645871675	streaming
266.9977	0.1037473695469088	8	systole	16	A	1253.4921645871675	streaming
267.2088	0.1037473695469088	8	systole	17	B	500.0	streaming
267.4202	0.1037473695469088	8	systole	18	A	1253.4921645871675	streaming
267.7676	0.1037473695469088	8	systole	19	A	1253.4921645871675	streaming
267.9788	0.1037473695469088	8	systole	20	B	500.0	streaming
268.1901	0.1037473695469088	8	systole	21	A	1253.4921645871675	streaming
268.5375	0.1037473695469088	8	systole	22	A	1253.4921645871675	streaming
268.7487	0.1037473695469088	8	systole	23	B	500.0	streaming
268.96	0.1037473695469088	8	systole	24	A	1253.4921645871675	streaming
269.3984	0.1037473695469088	8	systole	25	A	1253.4921645871675	streaming
269.6071	0.1037473695469088	8	systole	26	B	500.0	streaming
269.8159	0.1037473695469088	8	systole	27	A	1253.4921645871675	streaming
270.2584	0.1037473695469088	8	systole	28	A	1253.4921645871675	streaming
270.4671	0.1037473695469088	8	systole	29	B	500.0	streaming
270.6759	0.1037473695469088	8	systole	30	A	1253.4921645871675	streaming
271.1184	0.1037473695469088	8	systole	31	A	1253.4921645871675	streaming
271.3271	0.1037473695469088	8	systole	32	B	500.0	streaming
271.5359	0.1037473695469088	8	systole	33	A	1253.4921645871675	streaming
272.0276	0.1037473695469088	8	systole	34	A	1253.4921645871675	streaming
272.2387	0.1037473695469088	8	systole	35	B	500.0	streaming
272.4501	0.1037473695469088	8	systole	36	A	1253.4921645871675	streaming
275.5476	0.1037553088972345	9	systole	1	A	2446.423693900757	streaming
275.7589	0.1037553088972345	9	systole	2	B	500.0	streaming
275.9701	0.1037553088972345	9	systole	3	A	2446.423693900757	streaming
276.4758	0.1037553088972345	9	systole	4	A	2446.423693900757	streaming
276.6921	0.1037553088972345	9	systole	5	B	500.0	streaming
276.9083	0.1037553088972345	9	systole	6	A	2446.423693900757	streaming
277.3804	0.1037553088972345	9	systole	7	A	2446.423693900757	streaming
277.598	0.1037553088972345	9	systole	8	B	500.0	streaming
277.8154	0.1037553088972345	9	systole	9	A	2446.423693900757	streaming
278.2804	0.1037553088972345	9	systole	10	A	2446.423693900757	streaming
278.498	0.1037553088972345	9	systole	11	B	500.0	streaming
278.7154	0.1037553088972345	9	systole	12	A	2446.423693900757	streaming
279.0567	0.1037553088972345	9	systole	13	A	2446.423693900757	streaming
279.2705	0.1037553088972345	9	systole	14	B	500.0	streaming
279.4842	0.1037553088972345	9	systole	15	A	2446.423693900757	streaming
279.9304	0.1037553088972345	9	systole	16	A	2446.423693900757	streaming
280.148	0.1037553088972345	9	systole	17	B	500.0	streaming
280.3654	0.1037553088972345	9	systole	18	A	2446.423693900757	streaming
280.7904	0.1037553088972345	9	systole	19	A	2446.423693900757	streaming
281.008	0.1037553088972345	9	systole	20	B	500.0	streaming
281.2254	0.1037553088972345	9	systole	21	A	2446.423693900757	streaming
281.6904	0.1037553088972345	9	systole	22	A	2446.423693900757	streaming
281.908	0.1037553088972345	9	systole	23	B	500.0	streaming
282.1254	0.1037553088972345	9	systole	24	A	2446.423693900757	streaming
282.5395	0.1037553088972345	9	systole	25	A	2446.423693900757	streaming
282.7596	0.1037553088972345	9	systole	26	B	500.0	streaming
282.9795	0.1037553088972345	9	systole	27	A	2446.423693900757	streaming
283.3495	0.1037553088972345	9	systole	28	A	2446.423693900757	streaming
283.5696	0.1037553088972345	9	systole	29	B	500.0	streaming
283.7895	0.1037553088972345	9	systole	30	A	2446.423693900757	streaming
284.1595	0.1037553088972345	9	systole	31	A	2446.423693900757	streaming
284.3796	0.1037553088972345	9	systole	32	B	500.0	streaming
284.5995	0.1037553088972345	9	systole	33	A	2446.423693900757	streaming
287.6357	0.1075041588046588	10	systole	1	A	846.9957848672357	coherent
287.8523	0.1075041588046588	10	systole	2	B	500.0	coherent
288.0682	0.1075041588046588	10	systole	3	A	846.9957848672357	coherent
288.5057	0.1075041588046588	10	systole	4	A	846.9957848672357	coherent
288.7222	0.1075041588046588	10	systole	5	B	500.0	coherent
288.9382	0.1075041588046588	10	systole	6	A	846.9957848672357	coherent
289.4303	0.1075041588046588	10	systole	7	A	846.9957848672357	coherent
289.6481	0.1075041588046588	10	systole	8	B	500.0	coherent
289.8653	0.1075041588046588	10	systole	9	A	846.9957848672357	coherent
290.3203	0.1075041588046588	10	systole	10	A	846.9957848672357	coherent
290.5381	0.1075041588046588	10	systole	11	B	500.0	coherent
290.7553	0.1075041588046588	10	systole	12	A	846.9957848672357	coherent
291.2103	0.1075041588046588	10	systole	13	A	846.9957848672357	coherent
291.4281	0.1075041588046588	10	systole	14	B	500.0	coherent
291.6453	0.1075041588046588	10	systole	15	A	846.9957848672357	coherent
292.0803	0.1075041588046588	10	systole	16	A	846.9957848672357	coherent
292.2982	0.1075041588046588	10	systole	17	B	500.0	coherent
292.5154	0.1075041588046588	10	systole	18	A	846.9957848672357	coherent
292.9504	0.1075041588046588	10	systole	19	A	846.9957848672357	coherent
293.1682	0.1075041588046588	10	systole	20	B	500.0	coherent
293.3854	0.1075041588046588	10	systole	21	A	846.9957848672357	coherent
293.8504	0.1075041588046588	10	systole	22	A	846.9957848672357	coherent
294.0682	0.1075041588046588	10	systole	23	B	500.0	coherent
294.2854	0.1075041588046588	10	systole	24	A	846.9957848672357	coherent
294.7504	0.1075041588046588	10	systole	25	A	846.9957848672357	coherent
294.9682	0.1075041588046588	10	systole	26	B	500.0	coherent
295.1854	0.1075041588046588	10	systole	27	A	846.9957848672357	coherent
295.5404	0.1075041588046588	10	systole	28	A	846.9957848672357	coherent
295.7582	0.1075041588046588	10	systole	29	B	500.0	coherent
295.9754	0.1075041588046588	10	systole	30	A	846.9957848672357	coherent
296.3812	0.1075041588046588	10	systole	31	A	846.9957848672357	coherent
296.5965	0.1075041588046588	10	systole	32	B	500.0	coherent
296.8112	0.1075041588046588	10	systole	33	A	846.9957848672357	coherent
300.6366	0.1081281112856231	11	systole	1	A	2682.7996005075997	streaming
300.8555	0.1081281112856231	11	systole	2	B	500.0	streaming
301.0741	0.1081281112856231	11	systole	3	A	2682.7996005075997	streaming
301.545	0.1081281112856231	11	systole	4	A	2682.7996005075997	streaming
301.7639	0.1081281112856231	11	systole	5	B	500.0	streaming
301.9824	0.1081281112856231	11	systole	6	A	2682.7996005075997	streaming
302.4056	0.1081281112856231	11	systole	7	A	2682.7996005075997	streaming
302.6221	0.1081281112856231	11	systole	8	B	500.0	streaming
302.8381	0.1081281112856231	11	systole	9	A	2682.7996005075997	streaming
303.1857	0.1081281112856231	11	systole	10	A	2682.7996005075997	streaming
303.4022	0.1081281112856231	11	systole	11	B	500.0	streaming
303.6182	0.1081281112856231	11	systole	12	A	2682.7996005075997	streaming
303.9658	0.1081281112856231	11	systole	13	A	2682.7996005075997	streaming
304.1823	0.1081281112856231	11	systole	14	B	500.0	streaming
304.3983	0.1081281112856231	11	systole	15	A	2682.7996005075997	streaming
304.746	0.1081281112856231	11	systole	16	A	2682.7996005075997	streaming
304.9624	0.1081281112856231	11	systole	17	B	500.0	streaming
305.1784	0.1081281112856231	11	systole	18	A	2682.7996005075997	streaming
305.516	0.1081281112856231	11	systole	19	A	2682.7996005075997	streaming
305.7324	0.1081281112856231	11	systole	20	B	500.0	streaming
305.9484	0.1081281112856231	11	systole	21	A	2682.7996005075997	streaming
306.286	0.1081281112856231	11	systole	22	A	2682.7996005075997	streaming
306.5024	0.1081281112856231	11	systole	23	B	500.0	streaming
306.7184	0.1081281112856231	11	systole	24	A	2682.7996005075997	streaming
307.1415	0.1081281112856231	11	systole	25	A	2682.7996005075997	streaming
307.3567	0.1081281112856231	11	systole	26	B	500.0	streaming
307.5715	0.1081281112856231	11	systole	27	A	2682.7996005075997	streaming
308.0015	0.1081281112856231	11	systole	28	A	2682.7996005075997	streaming
308.2167	0.1081281112856231	11	systole	29	B	500.0	streaming
308.4315	0.1081281112856231	11	systole	30	A	2682.7996005075997	streaming
308.8015	0.1081281112856231	11	systole	31	A	2682.7996005075997	streaming
309.0167	0.1081281112856231	11	systole	32	B	500.0	streaming
309.2315	0.1081281112856231	11	systole	33	A	2682.7996005075997	streaming
311.7547	0.1025075374054722	12	diastole	1	A	3457.353363503972	streaming
311.9598	0.1025075374054722	12	diastole	2	B	500.0	streaming
312.1647	0.1025075374054722	12	diastole	3	A	3457.353363503972	streaming
312.6016	0.1025075374054722	12	diastole	4	A	3457.353363503972	streaming
312.808	0.1025075374054722	12	diastole	5	B	500.0	streaming
313.0142	0.1025075374054722	12	diastole	6	A	3457.353363503972	streaming
313.4416	0.1025075374054722	12	diastole	7	A	3457.353363503972	streaming
313.648	0.1025075374054722	12	diastole	8	B	500.0	streaming
313.8541	0.1025075374054722	12	diastole	9	A	3457.353363503972	streaming
314.3658	0.1025075374054722	12	diastole	10	A	3457.353363503972	streaming
314.5747	0.1025075374054722	12	diastole	11	B	500.0	streaming
314.7833	0.1025075374054722	12	diastole	12	A	3457.353363503972	streaming
315.2761	0.1025075374054722	12	diastole	13	A	3457.353363503972	streaming
315.4849	0.1025075374054722	12	diastole	14	B	500.0	streaming
315.6935	0.1025075374054722	12	diastole	15	A	3457.353363503972	streaming
316.1261	0.1025075374054722	12	diastole	16	A	3457.353363503972	streaming
316.335	0.1025075374054722	12	diastole	17	B	500.0	streaming
316.5436	0.1025075374054722	12	diastole	18	A	3457.353363503972	streaming
316.9762	0.1025075374054722	12	diastole	19	A	3457.353363503972	streaming
317.185	0.1025075374054722	12	diastole	20	B	500.0	streaming
317.3936	0.1025075374054722	12	diastole	21	A	3457.353363503972	streaming
317.8262	0.1025075374054722	12	diastole	22	A	3457.353363503972	streaming
318.0351	0.1025075374054722	12	diastole	23	B	500.0	streaming
318.2437	0.1025075374054722	12	diastole	24	A	3457.353363503972	streaming
318.6163	0.1025075374054722	12	diastole	25	A	3457.353363503972	streaming
318.8251	0.1025075374054722	12	diastole	26	B	500.0	streaming
319.0337	0.1025075374054722	12	diastole	27	A	3457.353363503972	streaming
319.4762	0.1025075374054722	12	diastole	28	A	3457.353363503972	streaming
319.6851	0.1025075374054722	12	diastole	29	B	500.0	streaming
319.8937	0.1025075374054722	12	diastole	30	A	3457.353363503972	streaming
320.3235	0.1025075374054722	12	diastole	31	A	3457.353363503972	streaming
320.5336	0.1025075374054722	12	diastole	32	B	500.0	streaming
320.7435	0.1025075374054722	12	diastole	33	A	3457.353363503972	streaming
321.1635	0.1025075374054722	12	diastole	34	A	3457.353363503972	streaming
321.3736	0.1025075374054722	12	diastole	35	B	500.0	streaming
321.5835	0.1025075374054722	12	diastole	36	A	3457.353363503972	streaming
324.7182	0.1043689437210559	13	systole	1	A	720.7460505647621	streaming
324.9272	0.1043689437210559	13	systole	2	B	500.0	streaming
325.1357	0.1043689437210559	13	systole	3	A	720.7460505647621	streaming
325.5628	0.1043689437210559	13	systole	4	A	720.7460505647621	streaming
325.7731	0.1043689437210559	13	systole	5	B	500.0	streaming
325.9829	0.1043689437210559	13	systole	6	A	720.7460505647621	streaming
326.4028	0.1043689437210559	13	systole	7	A	720.7460505647621	streaming
326.6131	0.1043689437210559	13	systole	8	B	500.0	streaming
326.8228	0.1043689437210559	13	systole	9	A	720.7460505647621	streaming
327.2629	0.1043689437210559	13	systole	10	A	720.7460505647621	streaming
327.4731	0.1043689437210559	13	systole	11	B	500.0	streaming
327.6829	0.1043689437210559	13	systole	12	A	720.7460505647621	streaming
328.1229	0.1043689437210559	13	systole	13	A	720.7460505647621	streaming
328.3332	0.1043689437210559	13	systole	14	B	500.0	streaming
328.5429	0.1043689437210559	13	systole	15	A	720.7460505647621	streaming
328.9129	0.1043689437210559	13	systole	16	A	720.7460505647621	streaming
329.1232	0.1043689437210559	13	systole	17	B	500.0	streaming
329.3329	0.1043689437210559	13	systole	18	A	720.7460505647621	streaming
329.703	0.1043689437210559	13	systole	19	A	720.7460505647621	streaming
329.9132	0.1043689437210559	13	systole	20	B	500.0	streaming
330.1229	0.1043689437210559	13	systole	21	A	720.7460505647621	streaming
330.5585	0.1043689437210559	13	systole	22	A	720.7460505647621	streaming
330.7675	0.1043689437210559	13	systole	23	B	500.0	streaming
330.976	0.1043689437210559	13	systole	24	A	720.7460505647621	streaming
331.4186	0.1043689437210559	13	systole	25	A	720.7460505647621	streaming
331.6276	0.1043689437210559	13	systole	26	B	500.0	streaming
331.8362	0.1043689437210559	13	systole	27	A	720.7460505647621	streaming
332.2084	0.1043689437210559	13	systole	28	A	720.7460505647621	streaming
332.4175	0.1043689437210559	13	systole	29	B	500.0	streaming
332.626	0.1043689437210559	13	systole	30	A	720.7460505647621	streaming
333.0185	0.1043689437210559	13	systole	31	A	720.7460505647621	streaming
333.2275	0.1043689437210559	13	systole	32	B	500.0	streaming
333.436	0.1043689437210559	13	systole	33	A	720.7460505647621	streaming
333.8831	0.1043689437210559	13	systole	34	A	720.7460505647621	streaming
334.0933	0.1043689437210559	13	systole	35	B	500.0	streaming
334.3031	0.1043689437210559	13	systole	36	A	720.7460505647621	streaming
336.5433	0.1049984438577666	14	systole	1	A	2621.646269519023	streaming
336.7535	0.1049984438577666	14	systole	2	B	500.0	streaming
336.9633	0.1049984438577666	14	systole	3	A	2621.646269519023	streaming
337.3735	0.1049984438577666	14	systole	4	A	2621.646269519023	streaming
337.5837	0.1049984438577666	14	systole	5	B	500.0	streaming
337.7936	0.1049984438577666	14	systole	6	A	2621.646269519023	streaming
338.2179	0.1049984438577666	14	systole	7	A	2621.646269519023	streaming
338.4293	0.1049984438577666	14	systole	8	B	500.0	streaming
338.6404	0.1049984438577666	14	systole	9	A	2621.646269519023	streaming
339.0578	0.1049984438577666	14	systole	10	A	2621.646269519023	streaming
339.2692	0.1049984438577666	14	systole	11	B	500.0	streaming
339.4803	0.1049984438577666	14	systole	12	A	2621.646269519023	streaming
339.8978	0.1049984438577666	14	systole	13	A	2621.646269519023	streaming
340.1092	0.1049984438577666	14	systole	14	B	500.0	streaming
340.3202	0.1049984438577666	14	systole	15	A	2621.646269519023	streaming
340.7874	0.1049984438577666	14	systole	16	A	2621.646269519023	streaming
341.0013	0.1049984438577666	14	systole	17	B	500.0	streaming
341.2149	0.1049984438577666	14	systole	18	A	2621.646269519023	streaming
341.577	0.1049984438577666	14	systole	19	A	2621.646269519023	streaming
341.791	0.1049984438577666	14	systole	20	B	500.0	streaming
342.0045	0.1049984438577666	14	systole	21	A	2621.646269519023	streaming
342.3667	0.1049984438577666	14	systole	22	A	2621.646269519023	streaming
342.5806	0.1049984438577666	14	systole	23	B	500.0	streaming
342.7942	0.1049984438577666	14	systole	24	A	2621.646269519023	streaming
343.1687	0.1049984438577666	14	systole	25	A	2621.646269519023	streaming
343.3826	0.1049984438577666	14	systole	26	B	500.0	streaming
343.5962	0.1049984438577666	14	systole	27	A	2621.646269519023	streaming
343.9895	0.1049984438577666	14	systole	28	A	2621.646269519023	streaming
344.2009	0.1049984438577666	14	systole	29	B	500.0	streaming
344.412	0.1049984438577666	14	systole	30	A	2621.646269519023	streaming
344.8085	0.1049984438577666	14	systole	31	A	2621.646269519023	streaming
345.0175	0.1049984438577666	14	systole	32	B	500.0	streaming
345.2261	0.1049984438577666	14	systole	33	A	2621.646269519023	streaming
345.6366	0.1049984438577666	14	systole	34	A	2621.646269519023	streaming
345.8455	0.1049984438577666	14	systole	35	B	500.0	streaming
346.0541	0.1049984438577666	14	systole	36	A	2621.646269519023	streaming
348.4244	0.102357531141024	15	diastole	1	A	3457.353363503972	streaming
348.626	0.102357531141024	15	diastole	2	B	500.0	streaming
348.8273	0.102357531141024	15	diastole	3	A	3457.353363503972	streaming
349.2243	0.102357531141024	15	diastole	4	A	3457.353363503972	streaming
349.4259	0.102357531141024	15	diastole	5	B	500.0	streaming
349.6272	0.102357531141024	15	diastole	6	A	3457.353363503972	streaming
350.0242	0.102357531141024	15	diastole	7	A	3457.353363503972	streaming
350.2259	0.102357531141024	15	diastole	8	B	500.0	streaming
350.4272	0.102357531141024	15	diastole	9	A	3457.353363503972	streaming
350.8242	0.102357531141024	15	diastole	10	A	3457.353363503972	streaming
351.0258	0.102357531141024	15	diastole	11	B	500.0	streaming
351.2271	0.102357531141024	15	diastole	12	A	3457.353363503972	streaming
351.4855	0.102357531141024	15	diastole	13	A	3457.353363503972	streaming
351.6732	0.102357531141024	15	diastole	14	B	500.0	streaming
351.8606	0.102357531141024	15	diastole	15	A	3457.353363503972	streaming
352.2258	0.102357531141024	15	diastole	16	A	3457.353363503972	streaming
352.4135	0.102357531141024	15	diastole	17	B	500.0	streaming
352.6009	0.102357531141024	15	diastole	18	A	3457.353363503972	streaming
353.1457	0.102357531141024	15	diastole	19	A	3457.353363503972	streaming
353.3334	0.102357531141024	15	diastole	20	B	500.0	streaming
353.5208	0.102357531141024	15	diastole	21	A	3457.353363503972	streaming
354.1032	0.102357531141024	15	diastole	22	A	3457.353363503972	streaming
354.3045	0.102357531141024	15	diastole	23	B	500.0	streaming
354.5056	0.102357531141024	15	diastole	24	A	3457.353363503972	streaming
354.9831	0.102357531141024	15	diastole	25	A	3457.353363503972	streaming
355.1845	0.102357531141024	15	diastole	26	B	500.0	streaming
355.3855	0.102357531141024	15	diastole	27	A	3457.353363503972	streaming
355.7251	0.102357531141024	15	diastole	28	A	3457.353363503972	streaming
355.9215	0.102357531141024	15	diastole	29	B	500.0	streaming
356.1176	0.102357531141024	15	diastole	30	A	3457.353363503972	streaming
356.4951	0.102357531141024	15	diastole	31	A	3457.353363503972	streaming
356.6915	0.102357531141024	15	diastole	32	B	500.0	streaming
356.8876	0.102357531141024	15	diastole	33	A	3457.353363503972	streaming
357.209	0.102357531141024	15	diastole	34	A	3457.353363503972	streaming
357.3991	0.102357531141024	15	diastole	35	B	500.0	streaming
357.5889	0.102357531141024	15	diastole	36	A	3457.353363503972	streaming
360.2418	0.1012516500195488	16	diastole	1	A	1812.791509567848	coherent
360.4396	0.1012516500195488	16	diastole	2	B	500.0	coherent
360.6368	0.1012516500195488	16	diastole	3	A	1812.791509567848	coherent
360.9814	0.1012516500195488	16	diastole	4	A	1812.791509567848	coherent
361.1792	0.1012516500195488	16	diastole	5	B	500.0	coherent
361.3764	0.1012516500195488	16	diastole	6	A	1812.791509567848	coherent
361.721	0.1012516500195488	16	diastole	7	A	1812.791509567848	coherent
361.9187	0.1012516500195488	16	diastole	8	B	500.0	coherent
362.116	0.1012516500195488	16	diastole	9	A	1812.791509567848	coherent
362.4605	0.1012516500195488	16	diastole	10	A	1812.791509567848	coherent
362.6583	0.1012516500195488	16	diastole	11	B	500.0	coherent
362.8555	0.1012516500195488	16	diastole	12	A	1812.791509567848	coherent
363.1897	0.1012516500195488	16	diastole	13	A	1812.791509567848	coherent
363.3837	0.1012516500195488	16	diastole	14	B	500.0	coherent
363.5772	0.1012516500195488	16	diastole	15	A	1812.791509567848	coherent
364.0192	0.1012516500195488	16	diastole	16	A	1812.791509567848	coherent
364.2132	0.1012516500195488	16	diastole	17	B	500.0	coherent
364.4067	0.1012516500195488	16	diastole	18	A	1812.791509567848	coherent
364.8063	0.1012516500195488	16	diastole	19	A	1812.791509567848	coherent
365.0015	0.1012516500195488	16	diastole	20	B	500.0	coherent
365.1963	0.1012516500195488	16	diastole	21	A	1812.791509567848	coherent
365.5867	0.1012516500195488	16	diastole	22	A	1812.791509567848	coherent
365.782	0.1012516500195488	16	diastole	23	B	500.0	coherent
365.9767	0.1012516500195488	16	diastole	24	A	1812.791509567848	coherent
366.527	0.1012516500195488	16	diastole	25	A	1812.791509567848	coherent
366.7223	0.1012516500195488	16	diastole	26	B	500.0	coherent
366.9171	0.1012516500195488	16	diastole	27	A	1812.791509567848	coherent
367.4415	0.1012516500195488	16	diastole	28	A	1812.791509567848	coherent
367.6393	0.1012516500195488	16	diastole	29	B	500.0	coherent
367.8366	0.1012516500195488	16	diastole	30	A	1812.791509567848	coherent
368.3418	0.1012516500195488	16	diastole	31	A	1812.791509567848	coherent
368.5396	0.1012516500195488	16	diastole	32	B	500.0	coherent
368.7369	0.1012516500195488	16	diastole	33	A	1812.791509567848	coherent
369.1928	0.1012516500195488	16	diastole	34	A	1812.791509567848	coherent
369.3943	0.1012516500195488	16	diastole	35	B	500.0	coherent
369.5953	0.1012516500195488	16	diastole	36	A	1812.791509567848	coherent
372.7772	0.1062570026842877	17	diastole	1	A	3301.531841080714	coherent
372.9898	0.1062570026842877	17	diastole	2	B	500.0	coherent
373.2022	0.1062570026842877	17	diastole	3	A	3301.531841080714	coherent
373.6573	0.1062570026842877	17	diastole	4	A	3301.531841080714	coherent
373.8699	0.1062570026842877	17	diastole	5	B	500.0	coherent
374.0824	0.1062570026842877	17	diastole	6	A	3301.531841080714	coherent
374.5773	0.1062570026842877	17	diastole	7	A	3301.531841080714	coherent
374.7899	0.1062570026842877	17	diastole	8	B	500.0	coherent
375.0023	0.1062570026842877	17	diastole	9	A	3301.531841080714	coherent
375.4973	0.1062570026842877	17	diastole	10	A	3301.531841080714	coherent
375.7099	0.1062570026842877	17	diastole	11	B	500.0	coherent
375.9223	0.1062570026842877	17	diastole	12	A	3301.531841080714	coherent
376.3101	0.1062570026842877	17	diastole	13	A	3301.531841080714	coherent
376.5214	0.1062570026842877	17	diastole	14	B	500.0	coherent
376.7326	0.1062570026842877	17	diastole	15	A	3301.531841080714	coherent
377.0801	0.1062570026842877	17	diastole	16	A	3301.531841080714	coherent
377.2914	0.1062570026842877	17	diastole	17	B	500.0	coherent
377.5026	0.1062570026842877	17	diastole	18	A	3301.531841080714	coherent
377.8502	0.1062570026842877	17	diastole	19	A	3301.531841080714	coherent
378.0615	0.1062570026842877	17	diastole	20	B	500.0	coherent
378.2727	0.1062570026842877	17	diastole	21	A	3301.531841080714	coherent
378.6417	0.1062570026842877	17	diastole	22	A	3301.531841080714	coherent
378.848	0.1062570026842877	17	diastole	23	B	500.0	coherent
379.0542	0.1062570026842877	17	diastole	24	A	3301.531841080714	coherent
379.4616	0.1062570026842877	17	diastole	25	A	3301.531841080714	coherent
379.6679	0.1062570026842877	17	diastole	26	B	500.0	coherent
379.8741	0.1062570026842877	17	diastole	27	A	3301.531841080714	coherent
380.3017	0.1062570026842877	17	diastole	28	A	3301.531841080714	coherent
380.508	0.1062570026842877	17	diastole	29	B	500.0	coherent
380.7142	0.1062570026842877	17	diastole	30	A	3301.531841080714	coherent
381.0987	0.1062570026842877	17	diastole	31	A	3301.531841080714	coherent
381.3063	0.1062570026842877	17	diastole	32	B	500.0	coherent
381.5137	0.1062570026842877	17	diastole	33	A	3301.531841080714	coherent
383.9547	0.1024946086690761	18	systole	1	A	2561.886903957566	coherent
384.1599	0.1024946086690761	18	systole	2	B	500.0	coherent
384.3647	0.1024946086690761	18	systole	3	A	2561.886903957566	coherent
384.7747	0.1024946086690761	18	systole	4	A	2561.886903957566	coherent
384.9799	0.1024946086690761	18	systole	5	B	500.0	coherent
385.1848	0.1024946086690761	18	systole	6	A	2561.886903957566	coherent
385.619	0.1024946086690761	18	systole	7	A	2561.886903957566	coherent
385.8254	0.1024946086690761	18	systole	8	B	500.0	coherent
386.0316	0.1024946086690761	18	systole	9	A	2561.886903957566	coherent
386.4587	0.1024946086690761	18	systole	10	A	2561.886903957566	coherent
386.6651	0.1024946086690761	18	systole	11	B	500.0	coherent
386.8712	0.1024946086690761	18	systole	12	A	2561.886903957566	coherent
387.2888	0.1024946086690761	18	systole	13	A	2561.886903957566	coherent
387.4953	0.1024946086690761	18	systole	14	B	500.0	coherent
387.7014	0.1024946086690761	18	systole	15	A	2561.886903957566	coherent
388.119	0.1024946086690761	18	systole	16	A	2561.886903957566	coherent
388.3254	0.1024946086690761	18	systole	17	B	500.0	coherent
388.5315	0.1024946086690761	18	systole	18	A	2561.886903957566	coherent
388.879	0.1024946086690761	18	systole	19	A	2561.886903957566	coherent
389.0854	0.1024946086690761	18	systole	20	B	500.0	coherent
389.2915	0.1024946086690761	18	systole	21	A	2561.886903957566	coherent
389.639	0.1024946086690761	18	systole	22	A	2561.886903957566	coherent
389.8454	0.1024946086690761	18	systole	23	B	500.0	coherent
390.0515	0.1024946086690761	18	systole	24	A	2561.886903957566	coherent
390.4493	0.1024946086690761	18	systole	25	A	2561.886903957566	coherent
390.6557	0.1024946086690761	18	systole	26	B	500.0	coherent
390.8618	0.1024946086690761	18	systole	27	A	2561.886903957566	coherent
391.2596	0.1024946086690761	18	systole	28	A	2561.886903957566	coherent
391.466	0.1024946086690761	18	systole	29	B	500.0	coherent
391.6721	0.1024946086690761	18	systole	30	A	2561.886903957566	coherent
392.07	0.1024946086690761	18	systole	31	A	2561.886903957566	coherent
392.2764	0.1024946086690761	18	systole	32	B	500.0	coherent
392.4825	0.1024946086690761	18	systole	33	A	2561.886903957566	coherent
392.9	0.1024946086690761	18	systole	34	A	2561.886903957566	coherent
393.1064	0.1024946086690761	18	systole	35	B	500.0	coherent
393.3125	0.1024946086690761	18	systole	36	A	2561.886903957566	coherent
395.7502	0.1012429302209056	19	diastole	1	A	1653.0702107864488	streaming
395.9529	0.1012429302209056	19	diastole	2	B	500.0	streaming
396.1552	0.1012429302209056	19	diastole	3	A	1653.0702107864488	streaming
396.6002	0.1012429302209056	19	diastole	4	A	1653.0702107864488	streaming
396.8029	0.1012429302209056	19	diastole	5	B	500.0	streaming
397.0052	0.1012429302209056	19	diastole	6	A	1653.0702107864488	streaming
397.3802	0.1012429302209056	19	diastole	7	A	1653.0702107864488	streaming
397.5829	0.1012429302209056	19	diastole	8	B	500.0	streaming
397.7852	0.1012429302209056	19	diastole	9	A	1653.0702107864488	streaming
398.1603	0.1012429302209056	19	diastole	10	A	1653.0702107864488	streaming
398.363	0.1012429302209056	19	diastole	11	B	500.0	streaming
398.5653	0.1012429302209056	19	diastole	12	A	1653.0702107864488	streaming
398.9003	0.1012429302209056	19	diastole	13	A	1653.0702107864488	streaming
399.103	0.1012429302209056	19	diastole	14	B	500.0	streaming
399.3053	0.1012429302209056	19	diastole	15	A	1653.0702107864488	streaming
399.6629	0.1012429302209056	19	diastole	16	A	1653.0702107864488	streaming
399.8643	0.1012429302209056	19	diastole	17	B	500.0	streaming
400.0653	0.1012429302209056	19	diastole	18	A	1653.0702107864488	streaming
400.523	0.1012429302209056	19	diastole	19	A	1653.0702107864488	streaming
400.7243	0.1012429302209056	19	diastole	20	B	500.0	streaming
400.9254	0.1012429302209056	19	diastole	21	A	1653.0702107864488	streaming
401.383	0.1012429302209056	19	diastole	22	A	1653.0702107864488	streaming
401.5844	0.1012429302209056	19	diastole	23	B	500.0	streaming
401.7854	0.1012429302209056	19	diastole	24	A	1653.0702107864488	streaming
402.213	0.1012429302209056	19	diastole	25	A	1653.0702107864488	streaming
402.4144	0.1012429302209056	19	diastole	26	B	500.0	streaming
402.6154	0.1012429302209056	19	diastole	27	A	1653.0702107864488	streaming
403.043	0.1012429302209056	19	diastole	28	A	1653.0702107864488	streaming
403.2443	0.1012429302209056	19	diastole	29	B	500.0	streaming
403.4454	0.1012429302209056	19	diastole	30	A	1653.0702107864488	streaming
403.8191	0.1012429302209056	19	diastole	31	A	1653.0702107864488	streaming
404.0181	0.1012429302209056	19	diastole	32	B	500.0	streaming
404.2167	0.1012429302209056	19	diastole	33	A	1653.0702107864488	streaming
404.6092	0.1012429302209056	19	diastole	34	A	1653.0702107864488	streaming
404.8081	0.1012429302209056	19	diastole	35	B	500.0	streaming
405.0067	0.1012429302209056	19	diastole	36	A	1653.0702107864488	streaming
407.3241	0.0962505812058225	20	diastole	1	A	1042.3378445677552	coherent
407.5163	0.0962505812058225	20	diastole	2	B	500.0	coherent
407.7091	0.0962505812058225	20	diastole	3	A	1042.3378445677552	coherent
408.1541	0.0962505812058225	20	diastole	4	A	1042.3378445677552	coherent
408.3463	0.0962505812058225	20	diastole	5	B	500.0	coherent
408.5391	0.0962505812058225	20	diastole	6	A	1042.3378445677552	coherent
408.984	0.0962505812058225	20	diastole	7	A	1042.3378445677552	coherent
409.1762	0.0962505812058225	20	diastole	8	B	500.0	coherent
409.369	0.0962505812058225	20	diastole	9	A	1042.3378445677552	coherent
409.8395	0.0962505812058225	20	diastole	10	A	1042.3378445677552	coherent
410.0379	0.0962505812058225	20	diastole	11	B	500.0	coherent
410.237	0.0962505812058225	20	diastole	12	A	1042.3378445677552	coherent
410.6094	0.0962505812058225	20	diastole	13	A	1042.3378445677552	coherent
410.8079	0.0962505812058225	20	diastole	14	B	500.0	coherent
411.0069	0.0962505812058225	20	diastole	15	A	1042.3378445677552	coherent
411.3794	0.0962505812058225	20	diastole	16	A	1042.3378445677552	coherent
411.5779	0.0962505812058225	20	diastole	17	B	500.0	coherent
411.7769	0.0962505812058225	20	diastole	18	A	1042.3378445677552	coherent
412.1494	0.0962505812058225	20	diastole	19	A	1042.3378445677552	coherent
412.3479	0.0962505812058225	20	diastole	20	B	500.0	coherent
412.5469	0.0962505812058225	20	diastole	21	A	1042.3378445677552	coherent
412.8753	0.0962505812058225	20	diastole	22	A	1042.3378445677552	coherent
413.0712	0.0962505812058225	20	diastole	23	B	500.0	coherent
413.2678	0.0962505812058225	20	diastole	24	A	1042.3378445677552	coherent
413.6153	0.0962505812058225	20	diastole	25	A	1042.3378445677552	coherent
413.8112	0.0962505812058225	20	diastole	26	B	500.0	coherent
414.0078	0.0962505812058225	20	diastole	27	A	1042.3378445677552	coherent
414.4253	0.0962505812058225	20	diastole	28	A	1042.3378445677552	coherent
414.6213	0.0962505812058225	20	diastole	29	B	500.0	coherent
414.8178	0.0962505812058225	20	diastole	30	A	1042.3378445677552	coherent
415.2652	0.0962505812058225	20	diastole	31	A	1042.3378445677552	coherent
415.4612	0.0962505812058225	20	diastole	32	B	500.0	coherent
415.6577	0.0962505812058225	20	diastole	33	A	1042.3378445677552	coherent
416.124	0.0962505812058225	20	diastole	34	A	1042.3378445677552	coherent
416.3249	0.0962505812058225	20	diastole	35	B	500.0	coherent
416.5265	0.0962505812058225	20	diastole	36	A	1042.3378445677552	coherent
419.2024	0.0999778507975861	21	diastole	1	A	1066.651739219328	coherent
419.4031	0.0999778507975861	21	diastole	2	B	500.0	coherent
419.6044	0.0999778507975861	21	diastole	3	A	1066.651739219328	coherent
420.0525	0.0999778507975861	21	diastole	4	A	1066.651739219328	coherent
420.2532	0.0999778507975861	21	diastole	5	B	500.0	coherent
420.4545	0.0999778507975861	21	diastole	6	A	1066.651739219328	coherent
420.9025	0.0999778507975861	21	diastole	7	A	1066.651739219328	coherent
421.1032	0.0999778507975861	21	diastole	8	B	500.0	coherent
421.3045	0.0999778507975861	21	diastole	9	A	1066.651739219328	coherent
421.7436	0.0999778507975861	21	diastole	10	A	1066.651739219328	coherent
421.948	0.0999778507975861	21	diastole	11	B	500.0	coherent
422.1531	0.0999778507975861	21	diastole	12	A	1066.651739219328	coherent
422.5355	0.0999778507975861	21	diastole	13	A	1066.651739219328	coherent
422.74	0.0999778507975861	21	diastole	14	B	500.0	coherent
422.945	0.0999778507975861	21	diastole	15	A	1066.651739219328	coherent
423.3274	0.0999778507975861	21	diastole	16	A	1066.651739219328	coherent
423.5319	0.0999778507975861	21	diastole	17	B	500.0	coherent
423.737	0.0999778507975861	21	diastole	18	A	1066.651739219328	coherent
424.1194	0.0999778507975861	21	diastole	19	A	1066.651739219328	coherent
424.3239	0.0999778507975861	21	diastole	20	B	500.0	coherent
424.5289	0.0999778507975861	21	diastole	21	A	1066.651739219328	coherent
424.9074	0.0999778507975861	21	diastole	22	A	1066.651739219328	coherent
425.1119	0.0999778507975861	21	diastole	23	B	500.0	coherent
425.317	0.0999778507975861	21	diastole	24	A	1066.651739219328	coherent
425.6955	0.0999778507975861	21	diastole	25	A	1066.651739219328	coherent
425.9	0.0999778507975861	21	diastole	26	B	500.0	coherent
426.105	0.0999778507975861	21	diastole	27	A	1066.651739219328	coherent
426.4656	0.0999778507975861	21	diastole	28	A	1066.651739219328	coherent
426.6701	0.0999778507975861	21	diastole	29	B	500.0	coherent
426.8751	0.0999778507975861	21	diastole	30	A	1066.651739219328	coherent
427.3039	0.0999778507975861	21	diastole	31	A	1066.651739219328	coherent
427.5098	0.0999778507975861	21	diastole	32	B	500.0	coherent
427.7163	0.0999778507975861	21	diastole	33	A	1066.651739219328	coherent
428.1853	0.0999778507975861	21	diastole	34	A	1066.651739219328	coherent
428.395	0.0999778507975861	21	diastole	35	B	500.0	coherent
428.6053	0.0999778507975861	21	diastole	36	A	1066.651739219328	coherent
431.8194	0.1087263546651229	22	systole	1	A	3378.544393000609	streaming
432.0395	0.1087263546651229	22	systole	2	B	500.0	streaming
432.2593	0.1087263546651229	22	systole	3	A	3378.544393000609	streaming
432.6996	0.1087263546651229	22	systole	4	A	3378.544393000609	streaming
432.9197	0.1087263546651229	22	systole	5	B	500.0	streaming
433.1396	0.1087263546651229	22	systole	6	A	3378.544393000609	streaming
433.5796	0.1087263546651229	22	systole	7	A	3378.544393000609	streaming
433.7997	0.1087263546651229	22	systole	8	B	500.0	streaming
434.0196	0.1087263546651229	22	systole	9	A	3378.544393000609	streaming
434.3397	0.1087263546651229	22	systole	10	A	3378.544393000609	streaming
434.5598	0.1087263546651229	22	systole	11	B	500.0	streaming
434.7797	0.1087263546651229	22	systole	12	A	3378.544393000609	streaming
435.0594	0.1087263546651229	22	systole	13	A	3378.544393000609	streaming
435.2795	0.1087263546651229	22	systole	14	B	500.0	streaming
435.4993	0.1087263546651229	22	systole	15	A	3378.544393000609	streaming
435.7758	0.1087263546651229	22	systole	16	A	3378.544393000609	streaming
435.9921	0.1087263546651229	22	systole	17	B	500.0	streaming
436.2082	0.1087263546651229	22	systole	18	A	3378.544393000609	streaming
436.6858	0.1087263546651229	22	systole	19	A	3378.544393000609	streaming
436.9021	0.1087263546651229	22	systole	20	B	500.0	streaming
437.1182	0.1087263546651229	22	systole	21	A	3378.544393000609	streaming
437.5958	0.1087263546651229	22	systole	22	A	3378.544393000609	streaming
437.8121	0.1087263546651229	22	systole	23	B	500.0	streaming
438.0282	0.1087263546651229	22	systole	24	A	3378.544393000609	streaming
438.5058	0.1087263546651229	22	systole	25	A	3378.544393000609	streaming
438.7221	0.1087263546651229	22	systole	26	B	500.0	streaming
438.9382	0.1087263546651229	22	systole	27	A	3378.544393000609	streaming
439.346	0.1087263546651229	22	systole	28	A	3378.544393000609	streaming
439.5624	0.1087263546651229	22	systole	29	B	500.0	streaming
439.7785	0.1087263546651229	22	systole	30	A	3378.544393000609	streaming
440.1277	0.1087263546651229	22	systole	31	A	3378.544393000609	streaming
440.339	0.1087263546651229	22	systole	32	B	500.0	streaming
440.5502	0.1087263546651229	22	systole	33	A	3378.544393000609	streaming
440.9276	0.1087263546651229	22	systole	34	A	3378.544393000609	streaming
441.139	0.1087263546651229	22	systole	35	B	500.0	streaming
441.3501	0.1087263546651229	22	systole	36	A	3378.544393000609	streaming
445.7725	0.111257200827822	23	diastole	1	A	4999.999999999997	streaming
445.9916	0.111257200827822	23	diastole	2	B	500.0	streaming
446.2101	0.111257200827822	23	diastole	3	A	4999.999999999997	streaming
446.6012	0.111257200827822	23	diastole	4	A	4999.999999999997	streaming
446.8165	0.111257200827822	23	diastole	5	B	500.0	streaming
447.0312	0.111257200827822	23	diastole	6	A	4999.999999999997	streaming
447.4812	0.111257200827822	23	diastole	7	A	4999.999999999997	streaming
447.6965	0.111257200827822	23	diastole	8	B	500.0	streaming
447.9113	0.111257200827822	23	diastole	9	A	4999.999999999997	streaming
448.3613	0.111257200827822	23	diastole	10	A	4999.999999999997	streaming
448.5765	0.111257200827822	23	diastole	11	B	500.0	streaming
448.7913	0.111257200827822	23	diastole	12	A	4999.999999999997	streaming
449.1412	0.111257200827822	23	diastole	13	A	4999.999999999997	streaming
449.3565	0.111257200827822	23	diastole	14	B	500.0	streaming
449.5713	0.111257200827822	23	diastole	15	A	4999.999999999997	streaming
449.9212	0.111257200827822	23	diastole	16	A	4999.999999999997	streaming
450.1364	0.111257200827822	23	diastole	17	B	500.0	streaming
450.3512	0.111257200827822	23	diastole	18	A	4999.999999999997	streaming
450.7271	0.111257200827822	23	diastole	19	A	4999.999999999997	streaming
450.9399	0.111257200827822	23	diastole	20	B	500.0	streaming
451.1521	0.111257200827822	23	diastole	21	A	4999.999999999997	streaming
451.5473	0.111257200827822	23	diastole	22	A	4999.999999999997	streaming
451.76	0.111257200827822	23	diastole	23	B	500.0	streaming
451.9723	0.111257200827822	23	diastole	24	A	4999.999999999997	streaming
452.4556	0.111257200827822	23	diastole	25	A	4999.999999999997	streaming
452.6684	0.111257200827822	23	diastole	26	B	500.0	streaming
452.8806	0.111257200827822	23	diastole	27	A	4999.999999999997	streaming
453.3357	0.111257200827822	23	diastole	28	A	4999.999999999997	streaming
453.5484	0.111257200827822	23	diastole	29	B	500.0	streaming
453.7607	0.111257200827822	23	diastole	30	A	4999.999999999997	streaming
454.1657	0.111257200827822	23	diastole	31	A	4999.999999999997	streaming
454.3785	0.111257200827822	23	diastole	32	B	500.0	streaming
454.5907	0.111257200827822	23	diastole	33	A	4999.999999999997	streaming
457.4489	0.1037506561842747	24	diastole	1	A	4999.999999999997	streaming
457.6566	0.1037506561842747	24	diastole	2	B	500.0	streaming
457.8638	0.1037506561842747	24	diastole	3	A	4999.999999999997	streaming
458.2593	0.1037506561842747	24	diastole	4	A	4999.999999999997	streaming
458.467	0.1037506561842747	24	diastole	5	B	500.0	streaming
458.6743	0.1037506561842747	24	diastole	6	A	4999.999999999997	streaming
459.035	0.1037506561842747	24	diastole	7	A	4999.999999999997	streaming
459.2403	0.1037506561842747	24	diastole	8	B	500.0	streaming
459.4451	0.1037506561842747	24	diastole	9	A	4999.999999999997	streaming
459.8246	0.1037506561842747	24	diastole	10	A	4999.999999999997	streaming
460.0299	0.1037506561842747	24	diastole	11	B	500.0	streaming
460.2347	0.1037506561842747	24	diastole	12	A	4999.999999999997	streaming
460.6646	0.1037506561842747	24	diastole	13	A	4999.999999999997	streaming
460.8699	0.1037506561842747	24	diastole	14	B	500.0	streaming
461.0747	0.1037506561842747	24	diastole	15	A	4999.999999999997	streaming
461.4949	0.1037506561842747	24	diastole	16	A	4999.999999999997	streaming
461.7002	0.1037506561842747	24	diastole	17	B	500.0	streaming
461.905	0.1037506561842747	24	diastole	18	A	4999.999999999997	streaming
462.2646	0.1037506561842747	24	diastole	19	A	4999.999999999997	streaming
462.4699	0.1037506561842747	24	diastole	20	B	500.0	streaming
462.6746	0.1037506561842747	24	diastole	21	A	4999.999999999997	streaming
463.0342	0.1037506561842747	24	diastole	22	A	4999.999999999997	streaming
463.2395	0.1037506561842747	24	diastole	23	B	500.0	streaming
463.4443	0.1037506561842747	24	diastole	24	A	4999.999999999997	streaming
463.8477	0.1037506561842747	24	diastole	25	A	4999.999999999997	streaming
464.0518	0.1037506561842747	24	diastole	26	B	500.0	streaming
464.2554	0.1037506561842747	24	diastole	27	A	4999.999999999997	streaming
464.6681	0.1037506561842747	24	diastole	28	A	4999.999999999997	streaming
464.8722	0.1037506561842747	24	diastole	29	B	500.0	streaming
465.0758	0.1037506561842747	24	diastole	30	A	4999.999999999997	streaming
465.4707	0.1037506561842747	24	diastole	31	A	4999.999999999997	streaming
465.6735	0.1037506561842747	24	diastole	32	B	500.0	streaming
465.8758	0.1037506561842747	24	diastole	33	A	4999.999999999997	streaming
466.2303	0.1037506561842747	24	diastole	34	A	4999.999999999997	streaming
466.4331	0.1037506561842747	24	diastole	35	B	500.0	streaming
466.6353	0.1037506561842747	24	diastole	36	A	4999.999999999997	streaming
470.7155	0.1012409624527208	25	systole	1	A	510.0000000000003	streaming
470.918	0.1012409624527208	25	systole	2	B	500.0	streaming
471.1204	0.1012409624527208	25	systole	3	A	510.0000000000003	streaming
471.5056	0.1012409624527208	25	systole	4	A	510.0000000000003	streaming
471.7081	0.1012409624527208	25	systole	5	B	500.0	streaming
471.9105	0.1012409624527208	25	systole	6	A	510.0000000000003	streaming
472.2164	0.1012409624527208	25	systole	7	A	510.0000000000003	streaming
472.4164	0.1012409624527208	25	systole	8	B	500.0	streaming
472.6164	0.1012409624527208	25	systole	9	A	510.0000000000003	streaming
473.0982	0.1012409624527208	25	systole	10	A	510.0000000000003	streaming
473.2932	0.1012409624527208	25	systole	11	B	500.0	streaming
473.4882	0.1012409624527208	25	systole	12	A	510.0000000000003	streaming
473.9982	0.1012409624527208	25	systole	13	A	510.0000000000003	streaming
474.1933	0.1012409624527208	25	systole	14	B	500.0	streaming
474.3882	0.1012409624527208	25	systole	15	A	510.0000000000003	streaming
474.9232	0.1012409624527208	25	systole	16	A	510.0000000000003	streaming
475.1332	0.1012409624527208	25	systole	17	B	500.0	streaming
475.3432	0.1012409624527208	25	systole	18	A	510.0000000000003	streaming
475.7531	0.1012409624527208	25	systole	19	A	510.0000000000003	streaming
475.9631	0.1012409624527208	25	systole	20	B	500.0	streaming
476.1731	0.1012409624527208	25	systole	21	A	510.0000000000003	streaming
476.5641	0.1012409624527208	25	systole	22	A	510.0000000000003	streaming
476.7716	0.1012409624527208	25	systole	23	B	500.0	streaming
476.9791	0.1012409624527208	25	systole	24	A	510.0000000000003	streaming
477.3841	0.1012409624527208	25	systole	25	A	510.0000000000003	streaming
477.5916	0.1012409624527208	25	systole	26	B	500.0	streaming
477.7991	0.1012409624527208	25	systole	27	A	510.0000000000003	streaming
478.2434	0.1012409624527208	25	systole	28	A	510.0000000000003	streaming
478.4534	0.1012409624527208	25	systole	29	B	500.0	streaming
478.6634	0.1012409624527208	25	systole	30	A	510.0000000000003	streaming
479.1029	0.1012409624527208	25	systole	31	A	510.0000000000003	streaming
479.3154	0.1012409624527208	25	systole	32	B	500.0	streaming
479.5279	0.1012409624527208	25	systole	33	A	510.0000000000003	streaming
483.6634	0.1049999390379525	26	diastole	1	A	1169.7126981694591	coherent
483.8732	0.1049999390379525	26	diastole	2	B	500.0	coherent
484.0834	0.1049999390379525	26	diastole	3	A	1169.7126981694591	coherent
484.5337	0.1049999390379525	26	diastole	4	A	1169.7126981694591	coherent
484.7435	0.1049999390379525	26	diastole	5	B	500.0	coherent
484.9537	0.1049999390379525	26	diastole	6	A	1169.7126981694591	coherent
485.3267	0.1049999390379525	26	diastole	7	A	1169.7126981694591	coherent
485.5353	0.1049999390379525	26	diastole	8	B	500.0	coherent
485.7442	0.1049999390379525	26	diastole	9	A	1169.7126981694591	coherent
486.1266	0.1049999390379525	26	diastole	10	A	1169.7126981694591	coherent
486.3352	0.1049999390379525	26	diastole	11	B	500.0	coherent
486.5441	0.1049999390379525	26	diastole	12	A	1169.7126981694591	coherent
486.9579	0.1049999390379525	26	diastole	13	A	1169.7126981694591	coherent
487.165	0.1049999390379525	26	diastole	14	B	500.0	coherent
487.3724	0.1049999390379525	26	diastole	15	A	1169.7126981694591	coherent
487.8196	0.1049999390379525	26	diastole	16	A	1169.7126981694591	coherent
488.0266	0.1049999390379525	26	diastole	17	B	500.0	coherent
488.234	0.1049999390379525	26	diastole	18	A	1169.7126981694591	coherent
488.6895	0.1049999390379525	26	diastole	19	A	1169.7126981694591	coherent
488.8966	0.1049999390379525	26	diastole	20	B	500.0	coherent
489.104	0.1049999390379525	26	diastole	21	A	1169.7126981694591	coherent
489.5595	0.1049999390379525	26	diastole	22	A	1169.7126981694591	coherent
489.7666	0.1049999390379525	26	diastole	23	B	500.0	coherent
489.974	0.1049999390379525	26	diastole	24	A	1169.7126981694591	coherent
490.4295	0.1049999390379525	26	diastole	25	A	1169.7126981694591	coherent
490.6366	0.1049999390379525	26	diastole	26	B	500.0	coherent
490.844	0.1049999390379525	26	diastole	27	A	1169.7126981694591	coherent
491.2652	0.1049999390379525	26	diastole	28	A	1169.7126981694591	coherent
491.4736	0.1049999390379525	26	diastole	29	B	500.0	coherent
491.6822	0.1049999390379525	26	diastole	30	A	1169.7126981694591	coherent
492.0991	0.1049999390379525	26	diastole	31	A	1169.7126981694591	coherent
492.3079	0.1049999390379525	26	diastole	32	B	500.0	coherent
492.517	0.1049999390379525	26	diastole	33	A	1169.7126981694591	coherent
496.1769	0.1044768238789402	27	diastole	1	A	4999.999999999997	coherent
496.3861	0.1044768238789402	27	diastole	2	B	500.0	coherent
496.5948	0.1044768238789402	27	diastole	3	A	4999.999999999997	coherent
496.9869	0.1044768238789402	27	diastole	4	A	4999.999999999997	coherent
497.1961	0.1044768238789402	27	diastole	5	B	500.0	coherent
497.4048	0.1044768238789402	27	diastole	6	A	4999.999999999997	coherent
497.7968	0.1044768238789402	27	diastole	7	A	4999.999999999997	coherent
498.0061	0.1044768238789402	27	diastole	8	B	500.0	coherent
498.2147	0.1044768238789402	27	diastole	9	A	4999.999999999997	coherent
498.6068	0.1044768238789402	27	diastole	10	A	4999.999999999997	coherent
498.816	0.1044768238789402	27	diastole	11	B	500.0	coherent
499.0247	0.1044768238789402	27	diastole	12	A	4999.999999999997	coherent
499.3856	0.1044768238789402	27	diastole	13	A	4999.999999999997	coherent
499.5946	0.1044768238789402	27	diastole	14	B	500.0	coherent
499.8031	0.1044768238789402	27	diastole	15	A	4999.999999999997	coherent
500.2456	0.1044768238789402	27	diastole	16	A	4999.999999999997	coherent
500.4546	0.1044768238789402	27	diastole	17	B	500.0	coherent
500.6631	0.1044768238789402	27	diastole	18	A	4999.999999999997	coherent
501.1057	0.1044768238789402	27	diastole	19	A	4999.999999999997	coherent
501.3147	0.1044768238789402	27	diastole	20	B	500.0	coherent
501.5232	0.1044768238789402	27	diastole	21	A	4999.999999999997	coherent
501.8727	0.1044768238789402	27	diastole	22	A	4999.999999999997	coherent
502.0829	0.1044768238789402	27	diastole	23	B	500.0	coherent
502.2927	0.1044768238789402	27	diastole	24	A	4999.999999999997	coherent
502.6328	0.1044768238789402	27	diastole	25	A	4999.999999999997	coherent
502.843	0.1044768238789402	27	diastole	26	B	500.0	coherent
503.0527	0.1044768238789402	27	diastole	27	A	4999.999999999997	coherent
503.4128	0.1044768238789402	27	diastole	28	A	4999.999999999997	coherent
503.623	0.1044768238789402	27	diastole	29	B	500.0	coherent
503.8327	0.1044768238789402	27	diastole	30	A	4999.999999999997	coherent
504.2288	0.1044768238789402	27	diastole	31	A	4999.999999999997	coherent
504.4365	0.1044768238789402	27	diastole	32	B	500.0	coherent
504.6438	0.1044768238789402	27	diastole	33	A	4999.999999999997	coherent
505.0587	0.1044768238789402	27	diastole	34	A	4999.999999999997	coherent
505.2665	0.1044768238789402	27	diastole	35	B	500.0	coherent
505.4737	0.1044768238789402	27	diastole	36	A	4999.999999999997	coherent
509.831	0.1012547063292004	28	diastole	1	A	1066.651739219328	coherent
510.0332	0.1012547063292004	28	diastole	2	B	500.0	coherent
510.236	0.1012547063292004	28	diastole	3	A	1066.651739219328	coherent
510.6166	0.1012547063292004	28	diastole	4	A	1066.651739219328	coherent
510.8163	0.1012547063292004	28	diastole	5	B	500.0	coherent
511.0166	0.1012547063292004	28	diastole	6	A	1066.651739219328	coherent
511.3824	0.1012547063292004	28	diastole	7	A	1066.651739219328	coherent
511.5796	0.1012547063292004	28	diastole	8	B	500.0	coherent
511.7774	0.1012547063292004	28	diastole	9	A	1066.651739219328	coherent
512.1624	0.1012547063292004	28	diastole	10	A	1066.651739219328	coherent
512.3596	0.1012547063292004	28	diastole	11	B	500.0	coherent
512.5574	0.1012547063292004	28	diastole	12	A	1066.651739219328	coherent
512.8983	0.1012547063292004	28	diastole	13	A	1066.651739219328	coherent
513.093	0.1012547063292004	28	diastole	14	B	500.0	coherent
513.2883	0.1012547063292004	28	diastole	15	A	1066.651739219328	coherent
513.6083	0.1012547063292004	28	diastole	16	A	1066.651739219328	coherent
513.803	0.1012547063292004	28	diastole	17	B	500.0	coherent
513.9983	0.1012547063292004	28	diastole	18	A	1066.651739219328	coherent
514.3041	0.1012547063292004	28	diastole	19	A	1066.651739219328	coherent
514.4963	0.1012547063292004	28	diastole	20	B	500.0	coherent
514.6891	0.1012547063292004	28	diastole	21	A	1066.651739219328	coherent
515.0329	0.1012547063292004	28	diastole	22	A	1066.651739219328	coherent
515.2214	0.1012547063292004	28	diastole	23	B	500.0	coherent
515.4104	0.1012547063292004	28	diastole	24	A	1066.651739219328	coherent
515.783	0.1012547063292004	28	diastole	25	A	1066.651739219328	coherent
515.9714	0.1012547063292004	28	diastole	26	B	500.0	coherent
516.1605	0.1012547063292004	28	diastole	27	A	1066.651739219328	coherent
516.533	0.1012547063292004	28	diastole	28	A	1066.651739219328	coherent
516.7215	0.1012547063292004	28	diastole	29	B	500.0	coherent
516.9105	0.1012547063292004	28	diastole	30	A	1066.651739219328	coherent
517.2659	0.1012547063292004	28	diastole	31	A	1066.651739219328	coherent
517.4531	0.1012547063292004	28	diastole	32	B	500.0	coherent
517.6409	0.1012547063292004	28	diastole	33	A	1066.651739219328	coherent
518.0059	0.1012547063292004	28	diastole	34	A	1066.651739219328	coherent
518.1931	0.1012547063292004	28	diastole	35	B	500.0	coherent
518.3809	0.1012547063292004	28	diastole	36	A	1066.651739219328	coherent
518.773	0.1012547063292004	28	diastole	37	A	1066.651739219328	coherent
518.9615	0.1012547063292004	28	diastole	38	B	500.0	coherent
519.1505	0.1012547063292004	28	diastole	39	A	1066.651739219328	coherent
520.7998	0.0943785357521846	29	systole	1	A	3301.531841080714	streaming
520.9899	0.0943785357521846	29	systole	2	B	500.0	streaming
521.1798	0.0943785357521846	29	systole	3	A	3301.531841080714	streaming
521.6644	0.0943785357521846	29	systole	4	A	3301.531841080714	streaming
521.8558	0.0943785357521846	29	systole	5	B	500.0	streaming
522.0469	0.0943785357521846	29	systole	6	A	3301.531841080714	streaming
522.5244	0.0943785357521846	29	systole	7	A	3301.531841080714	streaming
522.7158	0.0943785357521846	29	systole	8	B	500.0	streaming
522.907	0.0943785357521846	29	systole	9	A	3301.531841080714	streaming
523.3845	0.0943785357521846	29	systole	10	A	3301.531841080714	streaming
523.5758	0.0943785357521846	29	systole	11	B	500.0	streaming
523.767	0.0943785357521846	29	systole	12	A	3301.531841080714	streaming
524.2445	0.0943785357521846	29	systole	13	A	3301.531841080714	streaming
524.4359	0.0943785357521846	29	systole	14	B	500.0	streaming
524.6271	0.0943785357521846	29	systole	15	A	3301.531841080714	streaming
525.0736	0.0943785357521846	29	systole	16	A	3301.531841080714	streaming
525.2675	0.0943785357521846	29	systole	17	B	500.0	streaming
525.4612	0.0943785357521846	29	systole	18	A	3301.531841080714	streaming
525.8582	0.0943785357521846	29	systole	19	A	3301.531841080714	streaming
526.0533	0.0943785357521846	29	systole	20	B	500.0	streaming
526.2482	0.0943785357521846	29	systole	21	A	3301.531841080714	streaming
526.6382	0.0943785357521846	29	systole	22	A	3301.531841080714	streaming
526.8333	0.0943785357521846	29	systole	23	B	500.0	streaming
527.0282	0.0943785357521846	29	systole	24	A	3301.531841080714	streaming
527.5348	0.0943785357521846	29	systole	25	A	3301.531841080714	streaming
527.7399	0.0943785357521846	29	systole	26	B	500.0	streaming
527.9448	0.0943785357521846	29	systole	27	A	3301.531841080714	streaming
528.3949	0.0943785357521846	29	systole	28	A	3301.531841080714	streaming
528.6	0.0943785357521846	29	systole	29	B	500.0	streaming
528.8049	0.0943785357521846	29	systole	30	A	3301.531841080714	streaming
529.1748	0.0943785357521846	29	systole	31	A	3301.531841080714	streaming
529.3799	0.0943785357521846	29	systole	32	B	500.0	streaming
529.5848	0.0943785357521846	29	systole	33	A	3301.531841080714	streaming
529.9357	0.0943785357521846	29	systole	34	A	3301.531841080714	streaming
530.1383	0.0943785357521846	29	systole	35	B	500.0	streaming
530.3407	0.0943785357521846	29	systole	36	A	3301.531841080714	streaming
530.7058	0.0943785357521846	29	systole	37	A	3301.531841080714	streaming
530.9083	0.0943785357521846	29	systole	38	B	500.0	streaming
531.1108	0.0943785357521846	29	systole	39	A	3301.531841080714	streaming
533.3047	0.1012485999963246	30	systole	1	A	3226.274759109801	coherent
533.5098	0.1012485999963246	30	systole	2	B	500.0	coherent
533.7147	0.1012485999963246	30	systole	3	A	3226.274759109801	coherent
534.1539	0.1012485999963246	30	systole	4	A	3226.274759109801	coherent
534.3615	0.1012485999963246	30	systole	5	B	500.0	coherent
534.569	0.1012485999963246	30	systole	6	A	3226.274759109801	coherent
535.0422	0.1012485999963246	30	systole	7	A	3226.274759109801	coherent
535.2548	0.1012485999963246	30	systole	8	B	500.0	coherent
535.4672	0.1012485999963246	30	systole	9	A	3226.274759109801	coherent
535.9368	0.1012485999963246	30	systole	10	A	3226.274759109801	coherent
536.1506	0.1012485999963246	30	systole	11	B	500.0	coherent
536.3643	0.1012485999963246	30	systole	12	A	3226.274759109801	coherent
536.8268	0.1012485999963246	30	systole	13	A	3226.274759109801	coherent
537.0406	0.1012485999963246	30	systole	14	B	500.0	coherent
537.2543	0.1012485999963246	30	systole	15	A	3226.274759109801	coherent
537.7168	0.1012485999963246	30	systole	16	A	3226.274759109801	coherent
537.9306	0.1012485999963246	30	systole	17	B	500.0	coherent
538.1443	0.1012485999963246	30	systole	18	A	3226.274759109801	coherent
538.5205	0.1012485999963246	30	systole	19	A	3226.274759109801	coherent
538.7381	0.1012485999963246	30	systole	20	B	500.0	coherent
538.9555	0.1012485999963246	30	systole	21	A	3226.274759109801	coherent
539.2705	0.1012485999963246	30	systole	22	A	3226.274759109801	coherent
539.488	0.1012485999963246	30	systole	23	B	500.0	coherent
539.7055	0.1012485999963246	30	systole	24	A	3226.274759109801	coherent
540.0568	0.1012485999963246	30	systole	25	A	3226.274759109801	coherent
540.2706	0.1012485999963246	30	systole	26	B	500.0	coherent
540.4843	0.1012485999963246	30	systole	27	A	3226.274759109801	coherent
540.8439	0.1012485999963246	30	systole	28	A	3226.274759109801	coherent
541.0515	0.1012485999963246	30	systole	29	B	500.0	coherent
541.2589	0.1012485999963246	30	systole	30	A	3226.274759109801	coherent
541.654	0.1012485999963246	30	systole	31	A	3226.274759109801	coherent
541.8615	0.1012485999963246	30	systole	32	B	500.0	coherent
542.069	0.1012485999963246	30	systole	33	A	3226.274759109801	coherent
542.4502	0.1012485999963246	30	systole	34	A	3226.274759109801	coherent
542.654	0.1012485999963246	30	systole	35	B	500.0	coherent
542.8577	0.1012485999963246	30	systole	36	A	3226.274759109801	coherent
548.5719	0.099355673417449	31	systole	1	A	3538.000656405778	streaming
548.7707	0.099355673417449	31	systole	2	B	500.0	streaming
548.9693	0.099355673417449	31	systole	3	A	3538.000656405778	streaming
549.3214	0.099355673417449	31	systole	4	A	3538.000656405778	streaming
549.5203	0.099355673417449	31	systole	5	B	500.0	streaming
549.7188	0.099355673417449	31	systole	6	A	3538.000656405778	streaming
550.0714	0.099355673417449	31	systole	7	A	3538.000656405778	streaming
550.2703	0.099355673417449	31	systole	8	B	500.0	streaming
550.4688	0.099355673417449	31	systole	9	A	3538.000656405778	streaming
550.7718	0.099355673417449	31	systole	10	A	3538.000656405778	streaming
550.9706	0.099355673417449	31	systole	11	B	500.0	streaming
551.1692	0.099355673417449	31	systole	12	A	3538.000656405778	streaming
551.4431	0.099355673417449	31	systole	13	A	3538.000656405778	streaming
551.6369	0.099355673417449	31	systole	14	B	500.0	streaming
551.8305	0.099355673417449	31	systole	15	A	3538.000656405778	streaming
552.1327	0.099355673417449	31	systole	16	A	3538.000656405778	streaming
552.3265	0.099355673417449	31	systole	17	B	500.0	streaming
552.5201	0.099355673417449	31	systole	18	A	3538.000656405778	streaming
552.8296	0.099355673417449	31	systole	19	A	3538.000656405778	streaming
553.0173	0.099355673417449	31	systole	20	B	500.0	streaming
553.2045	0.099355673417449	31	systole	21	A	3538.000656405778	streaming
553.5111	0.099355673417449	31	systole	22	A	3538.000656405778	streaming
553.6962	0.099355673417449	31	systole	23	B	500.0	streaming
553.881	0.099355673417449	31	systole	24	A	3538.000656405778	streaming
554.2015	0.099355673417449	31	systole	25	A	3538.000656405778	streaming
554.3867	0.099355673417449	31	systole	26	B	500.0	streaming
554.5715	0.099355673417449	31	systole	27	A	3538.000656405778	streaming
554.8876	0.099355673417449	31	systole	28	A	3538.000656405778	streaming
555.069	0.099355673417449	31	systole	29	B	500.0	streaming
555.2502	0.099355673417449	31	systole	30	A	3538.000656405778	streaming
555.6664	0.099355673417449	31	systole	31	A	3538.000656405778	streaming
555.8502	0.099355673417449	31	systole	32	B	500.0	streaming
556.0337	0.099355673417449	31	systole	33	A	3538.000656405778	streaming
556.3728	0.099355673417449	31	systole	34	A	3538.000656405778	streaming
556.5529	0.099355673417449	31	systole	35	B	500.0	streaming
556.7328	0.099355673417449	31	systole	36	A	3538.000656405778	streaming
557.0927	0.099355673417449	31	systole	37	A	3538.000656405778	streaming
557.2729	0.099355673417449	31	systole	38	B	500.0	streaming
557.4527	0.099355673417449	31	systole	39	A	3538.000656405778	streaming
557.8128	0.099355673417449	31	systole	40	A	3538.000656405778	streaming
557.9929	0.099355673417449	31	systole	41	B	500.0	streaming
558.1727	0.099355673417449	31	systole	42	A	3538.000656405778	streaming
559.5775	0.0906273875152692	32	systole	1	A	510.0000000000003	streaming
559.7588	0.0906273875152692	32	systole	2	B	500.0	streaming
559.94	0.0906273875152692	32	systole	3	A	510.0000000000003	streaming
560.2775	0.0906273875152692	32	systole	4	A	510.0000000000003	streaming
560.4588	0.0906273875152692	32	systole	5	B	500.0	streaming
560.64	0.0906273875152692	32	systole	6	A	510.0000000000003	streaming
560.9775	0.0906273875152692	32	systole	7	A	510.0000000000003	streaming
561.1588	0.0906273875152692	32	systole	8	B	500.0	streaming
561.34	0.0906273875152692	32	systole	9	A	510.0000000000003	streaming
561.7976	0.0906273875152692	32	systole	10	A	510.0000000000003	streaming
561.9789	0.0906273875152692	32	systole	11	B	500.0	streaming
562.1602	0.0906273875152692	32	systole	12	A	510.0000000000003	streaming
562.6175	0.0906273875152692	32	systole	13	A	510.0000000000003	streaming
562.7988	0.0906273875152692	32	systole	14	B	500.0	streaming
562.9801	0.0906273875152692	32	systole	15	A	510.0000000000003	streaming
563.4649	0.0906273875152692	32	systole	16	A	510.0000000000003	streaming
563.6537	0.0906273875152692	32	systole	17	B	500.0	streaming
563.8424	0.0906273875152692	32	systole	18	A	510.0000000000003	streaming
564.2387	0.0906273875152692	32	systole	19	A	510.0000000000003	streaming
564.4312	0.0906273875152692	32	systole	20	B	500.0	streaming
564.6237	0.0906273875152692	32	systole	21	A	510.0000000000003	streaming
564.9686	0.0906273875152692	32	systole	22	A	510.0000000000003	streaming
565.1612	0.0906273875152692	32	systole	23	B	500.0	streaming
565.3537	0.0906273875152692	32	systole	24	A	510.0000000000003	streaming
565.6987	0.0906273875152692	32	systole	25	A	510.0000000000003	streaming
565.8912	0.0906273875152692	32	systole	26	B	500.0	streaming
566.0837	0.0906273875152692	32	systole	27	A	510.0000000000003	streaming
566.4789	0.0906273875152692	32	systole	28	A	510.0000000000003	streaming
566.6715	0.0906273875152692	32	systole	29	B	500.0	streaming
566.864	0.0906273875152692	32	systole	30	A	510.0000000000003	streaming
567.2592	0.0906273875152692	32	systole	31	A	510.0000000000003	streaming
567.4517	0.0906273875152692	32	systole	32	B	500.0	streaming
567.6442	0.0906273875152692	32	systole	33	A	510.0000000000003	streaming
568.1193	0.0906273875152692	32	systole	34	A	510.0000000000003	streaming
568.3118	0.0906273875152692	32	systole	35	B	500.0	streaming
568.5043	0.0906273875152692	32	systole	36	A	510.0000000000003	streaming
569.0164	0.0906273875152692	32	systole	37	A	510.0000000000003	streaming
569.2165	0.0906273875152692	32	systole	38	B	500.0	streaming
569.4165	0.0906273875152692	32	systole	39	A	510.0000000000003	streaming
571.6853	0.1006501061492599	33	systole	1	A	3538.000656405778	coherent
571.888	0.1006501061492599	33	systole	2	B	500.0	coherent
572.0904	0.1006501061492599	33	systole	3	A	3538.000656405778	coherent
572.6138	0.1006501061492599	33	systole	4	A	3538.000656405778	coherent
572.8242	0.1006501061492599	33	systole	5	B	500.0	coherent
573.0343	0.1006501061492599	33	systole	6	A	3538.000656405778	coherent
573.4977	0.1006501061492599	33	systole	7	A	3538.000656405778	coherent
573.7118	0.1006501061492599	33	systole	8	B	500.0	coherent
573.9257	0.1006501061492599	33	systole	9	A	3538.000656405778	coherent
574.2777	0.1006501061492599	33	systole	10	A	3538.000656405778	coherent
574.4919	0.1006501061492599	33	systole	11	B	500.0	coherent
574.7057	0.1006501061492599	33	systole	12	A	3538.000656405778	coherent
575.094	0.1006501061492599	33	systole	13	A	3538.000656405778	coherent
575.3044	0.1006501061492599	33	systole	14	B	500.0	coherent
575.5145	0.1006501061492599	33	systole	15	A	3538.000656405778	coherent
575.964	0.1006501061492599	33	systole	16	A	3538.000656405778	coherent
576.1744	0.1006501061492599	33	systole	17	B	500.0	coherent
576.3845	0.1006501061492599	33	systole	18	A	3538.000656405778	coherent
576.8522	0.1006501061492599	33	systole	19	A	3538.000656405778	coherent
577.0649	0.1006501061492599	33	systole	20	B	500.0	coherent
577.2772	0.1006501061492599	33	systole	21	A	3538.000656405778	coherent
577.7259	0.1006501061492599	33	systole	22	A	3538.000656405778	coherent
577.9423	0.1006501061492599	33	systole	23	B	500.0	coherent
578.1584	0.1006501061492599	33	systole	24	A	3538.000656405778	coherent
578.5059	0.1006501061492599	33	systole	25	A	3538.000656405778	coherent
578.7223	0.1006501061492599	33	systole	26	B	500.0	coherent
578.9384	0.1006501061492599	33	systole	27	A	3538.000656405778	coherent
579.2859	0.1006501061492599	33	systole	28	A	3538.000656405778	coherent
579.5023	0.1006501061492599	33	systole	29	B	500.0	coherent
579.7184	0.1006501061492599	33	systole	30	A	3538.000656405778	coherent
580.1267	0.1006501061492599	33	systole	31	A	3538.000656405778	coherent
580.3407	0.1006501061492599	33	systole	32	B	500.0	coherent
580.5542	0.1006501061492599	33	systole	33	A	3538.000656405778	coherent
580.9867	0.1006501061492599	33	systole	34	A	3538.000656405778	coherent
581.2007	0.1006501061492599	33	systole	35	B	500.0	coherent
581.4143	0.1006501061492599	33	systole	36	A	3538.000656405778	coherent
583.3077	0.105626874777954	34	systole	1	A	3226.274759109801	streaming
583.519	0.105626874777954	34	systole	2	B	500.0	streaming
583.7302	0.105626874777954	34	systole	3	A	3226.274759109801	streaming
584.0092	0.105626874777954	34	systole	4	A	3226.274759109801	streaming
584.2155	0.105626874777954	34	systole	5	B	500.0	streaming
584.4217	0.105626874777954	34	systole	6	A	3226.274759109801	streaming
584.729	0.105626874777954	34	systole	7	A	3226.274759109801	streaming
584.9353	0.105626874777954	34	systole	8	B	500.0	streaming
585.1415	0.105626874777954	34	systole	9	A	3226.274759109801	streaming
585.6315	0.105626874777954	34	systole	10	A	3226.274759109801	streaming
585.8304	0.105626874777954	34	systole	11	B	500.0	streaming
586.029	0.105626874777954	34	systole	12	A	3226.274759109801	streaming
586.4116	0.105626874777954	34	systole	13	A	3226.274759109801	streaming
586.6104	0.105626874777954	34	systole	14	B	500.0	streaming
586.8091	0.105626874777954	34	systole	15	A	3226.274759109801	streaming
587.1916	0.105626874777954	34	systole	16	A	3226.274759109801	streaming
587.3904	0.105626874777954	34	systole	17	B	500.0	streaming
587.5891	0.105626874777954	34	systole	18	A	3226.274759109801	streaming
588.0679	0.105626874777954	34	systole	19	A	3226.274759109801	streaming
588.2629	0.105626874777954	34	systole	20	B	500.0	streaming
588.4579	0.105626874777954	34	systole	21	A	3226.274759109801	streaming
588.9579	0.105626874777954	34	systole	22	A	3226.274759109801	streaming
589.153	0.105626874777954	34	systole	23	B	500.0	streaming
589.3479	0.105626874777954	34	systole	24	A	3226.274759109801	streaming
589.8979	0.105626874777954	34	systole	25	A	3226.274759109801	streaming
590.0929	0.105626874777954	34	systole	26	B	500.0	streaming
590.2879	0.105626874777954	34	systole	27	A	3226.274759109801	streaming
590.7654	0.105626874777954	34	systole	28	A	3226.274759109801	streaming
590.9679	0.105626874777954	34	systole	29	B	500.0	streaming
591.1704	0.105626874777954	34	systole	30	A	3226.274759109801	streaming
591.7157	0.105626874777954	34	systole	31	A	3226.274759109801	streaming
591.932	0.105626874777954	34	systole	32	B	500.0	streaming
592.1482	0.105626874777954	34	systole	33	A	3226.274759109801	streaming
592.6156	0.105626874777954	34	systole	34	A	3226.274759109801	streaming
592.8319	0.105626874777954	34	systole	35	B	500.0	streaming
593.0481	0.105626874777954	34	systole	36	A	3226.274759109801	streaming
606.99	0.109998368716333	35	diastole	1	A	1091.5327872906942	coherent
607.2098	0.109998368716333	35	diastole	2	B	500.0	coherent
607.43	0.109998368716333	35	diastole	3	A	1091.5327872906942	coherent
607.9101	0.109998368716333	35	diastole	4	A	1091.5327872906942	coherent
608.1298	0.109998368716333	35	diastole	5	B	500.0	coherent
608.3501	0.109998368716333	35	diastole	6	A	1091.5327872906942	coherent
608.7017	0.109998368716333	35	diastole	7	A	1091.5327872906942	coherent
608.9164	0.109998368716333	35	diastole	8	B	500.0	coherent
609.1317	0.109998368716333	35	diastole	9	A	1091.5327872906942	coherent
609.5217	0.109998368716333	35	diastole	10	A	1091.5327872906942	coherent
609.7364	0.109998368716333	35	diastole	11	B	500.0	coherent
609.9516	0.109998368716333	35	diastole	12	A	1091.5327872906942	coherent
610.3192	0.109998368716333	35	diastole	13	A	1091.5327872906942	coherent
610.5265	0.109998368716333	35	diastole	14	B	500.0	coherent
610.7342	0.109998368716333	35	diastole	15	A	1091.5327872906942	coherent
611.1792	0.109998368716333	35	diastole	16	A	1091.5327872906942	coherent
611.3865	0.109998368716333	35	diastole	17	B	500.0	coherent
611.5942	0.109998368716333	35	diastole	18	A	1091.5327872906942	coherent
612.0504	0.109998368716333	35	diastole	19	A	1091.5327872906942	coherent
612.2614	0.109998368716333	35	diastole	20	B	500.0	coherent
612.4729	0.109998368716333	35	diastole	21	A	1091.5327872906942	coherent
612.8304	0.109998368716333	35	diastole	22	A	1091.5327872906942	coherent
613.0414	0.109998368716333	35	diastole	23	B	500.0	coherent
613.2528	0.109998368716333	35	diastole	24	A	1091.5327872906942	coherent
613.6103	0.109998368716333	35	diastole	25	A	1091.5327872906942	coherent
613.8213	0.109998368716333	35	diastole	26	B	500.0	coherent
614.0328	0.109998368716333	35	diastole	27	A	1091.5327872906942	coherent
614.4303	0.109998368716333	35	diastole	28	A	1091.5327872906942	coherent
614.6413	0.109998368716333	35	diastole	29	B	500.0	coherent
614.8528	0.109998368716333	35	diastole	30	A	1091.5327872906942	coherent
615.2803	0.109998368716333	35	diastole	31	A	1091.5327872906942	coherent
615.4913	0.109998368716333	35	diastole	32	B	500.0	coherent
615.7028	0.109998368716333	35	diastole	33	A	1091.5327872906942	coherent
618.1822	0.1056223242776468	36	systole	1	A	510.0000000000003	streaming
618.3947	0.1056223242776468	36	systole	2	B	500.0	streaming
618.6072	0.1056223242776468	36	systole	3	A	510.0000000000003	streaming
619.102	0.1056223242776468	36	systole	4	A	510.0000000000003	streaming
619.3145	0.1056223242776468	36	systole	5	B	500.0	streaming
619.527	0.1056223242776468	36	systole	6	A	510.0000000000003	streaming
619.9522	0.1056223242776468	36	systole	7	A	510.0000000000003	streaming
620.1647	0.1056223242776468	36	systole	8	B	500.0	streaming
620.3772	0.1056223242776468	36	systole	9	A	510.0000000000003	streaming
620.8023	0.1056223242776468	36	systole	10	A	510.0000000000003	streaming
621.0148	0.1056223242776468	36	systole	11	B	500.0	streaming
621.2273	0.1056223242776468	36	systole	12	A	510.0000000000003	streaming
621.5986	0.1056223242776468	36	systole	13	A	510.0000000000003	streaming
621.8073	0.1056223242776468	36	systole	14	B	500.0	streaming
622.016	0.1056223242776468	36	systole	15	A	510.0000000000003	streaming
622.4331	0.1056223242776468	36	systole	16	A	510.0000000000003	streaming
622.6431	0.1056223242776468	36	systole	17	B	500.0	streaming
622.8531	0.1056223242776468	36	systole	18	A	510.0000000000003	streaming
623.263	0.1056223242776468	36	systole	19	A	510.0000000000003	streaming
623.473	0.1056223242776468	36	systole	20	B	500.0	streaming
623.683	0.1056223242776468	36	systole	21	A	510.0000000000003	streaming
624.0048	0.1056223242776468	36	systole	22	A	510.0000000000003	streaming
624.2098	0.1056223242776468	36	systole	23	B	500.0	streaming
624.4148	0.1056223242776468	36	systole	24	A	510.0000000000003	streaming
624.7346	0.1056223242776468	36	systole	25	A	510.0000000000003	streaming
624.9397	0.1056223242776468	36	systole	26	B	500.0	streaming
625.1446	0.1056223242776468	36	systole	27	A	510.0000000000003	streaming
625.4708	0.1056223242776468	36	systole	28	A	510.0000000000003	streaming
625.6721	0.1056223242776468	36	systole	29	B	500.0	streaming
625.8733	0.1056223242776468	36	systole	30	A	510.0000000000003	streaming
626.2909	0.1056223242776468	36	systole	31	A	510.0000000000003	streaming
626.4921	0.1056223242776468	36	systole	32	B	500.0	streaming
626.6934	0.1056223242776468	36	systole	33	A	510.0000000000003	streaming
627.1109	0.1056223242776468	36	systole	34	A	510.0000000000003	streaming
627.3122	0.1056223242776468	36	systole	35	B	500.0	streaming
627.5134	0.1056223242776468	36	systole	36	A	510.0000000000003	streaming
630.5642	0.0944769557099789	37	diastole	1	A	1116.994218377779	coherent
630.7529	0.0944769557099789	37	diastole	2	B	500.0	coherent
630.9421	0.0944769557099789	37	diastole	3	A	1116.994218377779	coherent
631.4095	0.0944769557099789	37	diastole	4	A	1116.994218377779	coherent
631.6045	0.0944769557099789	37	diastole	5	B	500.0	coherent
631.7999	0.0944769557099789	37	diastole	6	A	1116.994218377779	coherent
632.2196	0.0944769557099789	37	diastole	7	A	1116.994218377779	coherent
632.4145	0.0944769557099789	37	diastole	8	B	500.0	coherent
632.6099	0.0944769557099789	37	diastole	9	A	1116.994218377779	coherent
632.9496	0.0944769557099789	37	diastole	10	A	1116.994218377779	coherent
633.1445	0.0944769557099789	37	diastole	11	B	500.0	coherent
633.34	0.0944769557099789	37	diastole	12	A	1116.994218377779	coherent
633.6893	0.0944769557099789	37	diastole	13	A	1116.994218377779	coherent
633.8842	0.0944769557099789	37	diastole	14	B	500.0	coherent
634.0796	0.0944769557099789	37	diastole	15	A	1116.994218377779	coherent
634.4393	0.0944769557099789	37	diastole	16	A	1116.994218377779	coherent
634.6343	0.0944769557099789	37	diastole	17	B	500.0	coherent
634.8297	0.0944769557099789	37	diastole	18	A	1116.994218377779	coherent
635.2322	0.0944769557099789	37	diastole	19	A	1116.994218377779	coherent
635.4259	0.0944769557099789	37	diastole	20	B	500.0	coherent
635.62	0.0944769557099789	37	diastole	21	A	1116.994218377779	coherent
636.0667	0.0944769557099789	37	diastole	22	A	1116.994218377779	coherent
636.2665	0.0944769557099789	37	diastole	23	B	500.0	coherent
636.4668	0.0944769557099789	37	diastole	24	A	1116.994218377779	coherent
636.7968	0.0944769557099789	37	diastole	25	A	1116.994218377779	coherent
636.9966	0.0944769557099789	37	diastole	26	B	500.0	coherent
637.1968	0.0944769557099789	37	diastole	27	A	1116.994218377779	coherent
637.5269	0.0944769557099789	37	diastole	28	A	1116.994218377779	coherent
637.7267	0.0944769557099789	37	diastole	29	B	500.0	coherent
637.9269	0.0944769557099789	37	diastole	30	A	1116.994218377779	coherent
638.2925	0.0944769557099789	37	diastole	31	A	1116.994218377779	coherent
638.4898	0.0944769557099789	37	diastole	32	B	500.0	coherent
638.6875	0.0944769557099789	37	diastole	33	A	1116.994218377779	coherent
639.1025	0.0944769557099789	37	diastole	34	A	1116.994218377779	coherent
639.2998	0.0944769557099789	37	diastole	35	B	500.0	coherent
639.4975	0.0944769557099789	37	diastole	36	A	1116.994218377779	coherent
642.111	0.1000074400799349	38	systole	1	A	3538.000656405778	streaming
642.3124	0.1000074400799349	38	systole	2	B	500.0	streaming
642.5135	0.1000074400799349	38	systole	3	A	3538.000656405778	streaming
642.9809	0.1000074400799349	38	systole	4	A	3538.000656405778	streaming
643.1824	0.1000074400799349	38	systole	5	B	500.0	streaming
643.3835	0.1000074400799349	38	systole	6	A	3538.000656405778	streaming
643.7555	0.1000074400799349	38	systole	7	A	3538.000656405778	streaming
643.9582	0.1000074400799349	38	systole	8	B	500.0	streaming
644.1605	0.1000074400799349	38	systole	9	A	3538.000656405778	streaming
644.5155	0.1000074400799349	38	systole	10	A	3538.000656405778	streaming
644.7182	0.1000074400799349	38	systole	11	B	500.0	streaming
644.9205	0.1000074400799349	38	systole	12	A	3538.000656405778	streaming
645.3501	0.1000074400799349	38	systole	13	A	3538.000656405778	streaming
645.554	0.1000074400799349	38	systole	14	B	500.0	streaming
645.7575	0.1000074400799349	38	systole	15	A	3538.000656405778	streaming
646.1801	0.1000074400799349	38	systole	16	A	3538.000656405778	streaming
646.384	0.1000074400799349	38	systole	17	B	500.0	streaming
646.5875	0.1000074400799349	38	systole	18	A	3538.000656405778	streaming
647.1292	0.1000074400799349	38	systole	19	A	3538.000656405778	streaming
647.3356	0.1000074400799349	38	systole	20	B	500.0	streaming
647.5417	0.1000074400799349	38	systole	21	A	3538.000656405778	streaming
648.082	0.1000074400799349	38	systole	22	A	3538.000656405778	streaming
648.2947	0.1000074400799349	38	systole	23	B	500.0	streaming
648.507	0.1000074400799349	38	systole	24	A	3538.000656405778	streaming
649.0304	0.1000074400799349	38	systole	25	A	3538.000656405778	streaming
649.2481	0.1000074400799349	38	systole	26	B	500.0	streaming
649.4654	0.1000074400799349	38	systole	27	A	3538.000656405778	streaming
649.9604	0.1000074400799349	38	systole	28	A	3538.000656405778	streaming
650.178	0.1000074400799349	38	systole	29	B	500.0	streaming
650.3954	0.1000074400799349	38	systole	30	A	3538.000656405778	streaming
650.775	0.1000074400799349	38	systole	31	A	3538.000656405778	streaming
650.9939	0.1000074400799349	38	systole	32	B	500.0	streaming
651.2125	0.1000074400799349	38	systole	33	A	3538.000656405778	streaming
651.5466	0.1000074400799349	38	systole	34	A	3538.000656405778	streaming
651.7605	0.1000074400799349	38	systole	35	B	500.0	streaming
651.9741	0.1000074400799349	38	systole	36	A	3538.000656405778	streaming
654.5554	0.1087544309557415	39	diastole	1	A	4999.999999999997	streaming
654.7732	0.1087544309557415	39	diastole	2	B	500.0	streaming
654.9904	0.1087544309557415	39	diastole	3	A	4999.999999999997	streaming
655.2871	0.1087544309557415	39	diastole	4	A	4999.999999999997	streaming
655.4998	0.1087544309557415	39	diastole	5	B	500.0	streaming
655.7121	0.1087544309557415	39	diastole	6	A	4999.999999999997	streaming
655.9816	0.1087544309557415	39	diastole	7	A	4999.999999999997	streaming
656.1881	0.1087544309557415	39	diastole	8	B	500.0	streaming
656.3941	0.1087544309557415	39	diastole	9	A	4999.999999999997	streaming
656.7163	0.1087544309557415	39	diastole	10	A	4999.999999999997	streaming
656.9166	0.1087544309557415	39	diastole	11	B	500.0	streaming
657.1163	0.1087544309557415	39	diastole	12	A	4999.999999999997	streaming
657.4864	0.1087544309557415	39	diastole	13	A	4999.999999999997	streaming
657.6867	0.1087544309557415	39	diastole	14	B	500.0	streaming
657.8864	0.1087544309557415	39	diastole	15	A	4999.999999999997	streaming
658.3864	0.1087544309557415	39	diastole	16	A	4999.999999999997	streaming
658.5867	0.1087544309557415	39	diastole	17	B	500.0	streaming
658.7864	0.1087544309557415	39	diastole	18	A	4999.999999999997	streaming
659.2876	0.1087544309557415	39	diastole	19	A	4999.999999999997	streaming
659.4916	0.1087544309557415	39	diastole	20	B	500.0	streaming
659.6951	0.1087544309557415	39	diastole	21	A	4999.999999999997	streaming
660.2288	0.1087544309557415	39	diastole	22	A	4999.999999999997	streaming
660.4416	0.1087544309557415	39	diastole	23	B	500.0	streaming
660.6538	0.1087544309557415	39	diastole	24	A	4999.999999999997	streaming
661.1204	0.1087544309557415	39	diastole	25	A	4999.999999999997	streaming
661.3332	0.1087544309557415	39	diastole	26	B	500.0	streaming
661.5454	0.1087544309557415	39	diastole	27	A	4999.999999999997	streaming
662.0088	0.1087544309557415	39	diastole	28	A	4999.999999999997	streaming
662.2251	0.1087544309557415	39	diastole	29	B	500.0	streaming
662.4409	0.1087544309557415	39	diastole	30	A	4999.999999999997	streaming
662.8861	0.1087544309557415	39	diastole	31	A	4999.999999999997	streaming
663.1036	0.1087544309557415	39	diastole	32	B	500.0	streaming
663.3207	0.1087544309557415	39	diastole	33	A	4999.999999999997	streaming
666.4674	0.1061423625214956	40	systole	1	A	3620.5291529823535	streaming
666.6788	0.1061423625214956	40	systole	2	B	500.0	streaming
666.8899	0.1061423625214956	40	systole	3	A	3620.5291529823535	streaming
667.3274	0.1061423625214956	40	systole	4	A	3620.5291529823535	streaming
667.5388	0.1061423625214956	40	systole	5	B	500.0	streaming
667.7499	0.1061423625214956	40	systole	6	A	3620.5291529823535	streaming
668.0306	0.1061423625214956	40	systole	7	A	3620.5291529823535	streaming
668.2321	0.1061423625214956	40	systole	8	B	500.0	streaming
668.4331	0.1061423625214956	40	systole	9	A	3620.5291529823535	streaming
668.7417	0.1061423625214956	40	systole	10	A	3620.5291529823535	streaming
668.9407	0.1061423625214956	40	systole	11	B	500.0	streaming
669.1392	0.1061423625214956	40	systole	12	A	3620.5291529823535	streaming
669.4619	0.1061423625214956	40	systole	13	A	3620.5291529823535	streaming
669.6609	0.1061423625214956	40	systole	14	B	500.0	streaming
669.8594	0.1061423625214956	40	systole	15	A	3620.5291529823535	streaming
670.2835	0.1061423625214956	40	systole	16	A	3620.5291529823535	streaming
670.4825	0.1061423625214956	40	systole	17	B	500.0	streaming
670.681	0.1061423625214956	40	systole	18	A	3620.5291529823535	streaming
671.1719	0.1061423625214956	40	systole	19	A	3620.5291529823535	streaming
671.3708	0.1061423625214956	40	systole	20	B	500.0	streaming
671.5694	0.1061423625214956	40	systole	21	A	3620.5291529823535	streaming
672.0603	0.1061423625214956	40	systole	22	A	3620.5291529823535	streaming
672.2592	0.1061423625214956	40	systole	23	B	500.0	streaming
672.4578	0.1061423625214956	40	systole	24	A	3620.5291529823535	streaming
672.9191	0.1061423625214956	40	systole	25	A	3620.5291529823535	streaming
673.1205	0.1061423625214956	40	systole	26	B	500.0	streaming
673.3216	0.1061423625214956	40	systole	27	A	3620.5291529823535	streaming
673.7192	0.1061423625214956	40	systole	28	A	3620.5291529823535	streaming
673.9206	0.1061423625214956	40	systole	29	B	500.0	streaming
674.1216	0.1061423625214956	40	systole	30	A	3620.5291529823535	streaming
674.5095	0.1061423625214956	40	systole	31	A	3620.5291529823535	streaming
674.7109	0.1061423625214956	40	systole	32	B	500.0	streaming
674.912	0.1061423625214956	40	systole	33	A	3620.5291529823535	streaming
675.3649	0.1061423625214956	40	systole	34	A	3620.5291529823535	streaming
675.5651	0.1061423625214956	40	systole	35	B	500.0	streaming
675.7649	0.1061423625214956	40	systole	36	A	3620.5291529823535	streaming
678.1518	0.1000019606435671	41	systole	1	A	3791.406306907005	streaming
678.3509	0.1000019606435671	41	systole	2	B	500.0	streaming
678.5494	0.1000019606435671	41	systole	3	A	3791.406306907005	streaming
678.8181	0.1000019606435671	41	systole	4	A	3791.406306907005	streaming
679.0133	0.1000019606435671	41	systole	5	B	500.0	streaming
679.2081	0.1000019606435671	41	systole	6	A	3791.406306907005	streaming
679.5934	0.1000019606435671	41	systole	7	A	3791.406306907005	streaming
679.7874	0.1000019606435671	41	systole	8	B	500.0	streaming
679.9809	0.1000019606435671	41	systole	9	A	3791.406306907005	streaming
680.3735	0.1000019606435671	41	systole	10	A	3791.406306907005	streaming
680.5674	0.1000019606435671	41	systole	11	B	500.0	streaming
680.761	0.1000019606435671	41	systole	12	A	3791.406306907005	streaming
681.1534	0.1000019606435671	41	systole	13	A	3791.406306907005	streaming
681.3473	0.1000019606435671	41	systole	14	B	500.0	streaming
681.5409	0.1000019606435671	41	systole	15	A	3791.406306907005	streaming
681.9333	0.1000019606435671	41	systole	16	A	3791.406306907005	streaming
682.1273	0.1000019606435671	41	systole	17	B	500.0	streaming
682.3208	0.1000019606435671	41	systole	18	A	3791.406306907005	streaming
682.6696	0.1000019606435671	41	systole	19	A	3791.406306907005	streaming
682.8599	0.1000019606435671	41	systole	20	B	500.0	streaming
683.0496	0.1000019606435671	41	systole	21	A	3791.406306907005	streaming
683.4659	0.1000019606435671	41	systole	22	A	3791.406306907005	streaming
683.6524	0.1000019606435671	41	systole	23	B	500.0	streaming
683.8384	0.1000019606435671	41	systole	24	A	3791.406306907005	streaming
684.3343	0.1000019606435671	41	systole	25	A	3791.406306907005	streaming
684.5257	0.1000019606435671	41	systole	26	B	500.0	streaming
684.7168	0.1000019606435671	41	systole	27	A	3791.406306907005	streaming
685.1843	0.1000019606435671	41	systole	28	A	3791.406306907005	streaming
685.3757	0.1000019606435671	41	systole	29	B	500.0	streaming
685.5668	0.1000019606435671	41	systole	30	A	3791.406306907005	streaming
686.0218	0.1000019606435671	41	systole	31	A	3791.406306907005	streaming
686.2208	0.1000019606435671	41	systole	32	B	500.0	streaming
686.4193	0.1000019606435671	41	systole	33	A	3791.406306907005	streaming
686.8318	0.1000019606435671	41	systole	34	A	3791.406306907005	streaming
687.0308	0.1000019606435671	41	systole	35	B	500.0	streaming
687.2293	0.1000019606435671	41	systole	36	A	3791.406306907005	streaming
690.7354	0.1012551673920825	42	systole	1	A	3879.8458219911695	streaming
690.9381	0.1012551673920825	42	systole	2	B	500.0	streaming
691.1404	0.1012551673920825	42	systole	3	A	3879.8458219911695	streaming
691.4854	0.1012551673920825	42	systole	4	A	3879.8458219911695	streaming
691.6881	0.1012551673920825	42	systole	5	B	500.0	streaming
691.8904	0.1012551673920825	42	systole	6	A	3879.8458219911695	streaming
692.1762	0.1012551673920825	42	systole	7	A	3879.8458219911695	streaming
692.3764	0.1012551673920825	42	systole	8	B	500.0	streaming
692.5762	0.1012551673920825	42	systole	9	A	3879.8458219911695	streaming
692.8633	0.1012551673920825	42	systole	10	A	3879.8458219911695	streaming
693.0573	0.1012551673920825	42	systole	11	B	500.0	streaming
693.2508	0.1012551673920825	42	systole	12	A	3879.8458219911695	streaming
693.5595	0.1012551673920825	42	systole	13	A	3879.8458219911695	streaming
693.7497	0.1012551673920825	42	systole	14	B	500.0	streaming
693.9395	0.1012551673920825	42	systole	15	A	3879.8458219911695	streaming
694.3195	0.1012551673920825	42	systole	16	A	3879.8458219911695	streaming
694.5097	0.1012551673920825	42	systole	17	B	500.0	streaming
694.6995	0.1012551673920825	42	systole	18	A	3879.8458219911695	streaming
695.0895	0.1012551673920825	42	systole	19	A	3879.8458219911695	streaming
695.2797	0.1012551673920825	42	systole	20	B	500.0	streaming
695.4695	0.1012551673920825	42	systole	21	A	3879.8458219911695	streaming
695.8595	0.1012551673920825	42	systole	22	A	3879.8458219911695	streaming
696.0498	0.1012551673920825	42	systole	23	B	500.0	streaming
696.2395	0.1012551673920825	42	systole	24	A	3879.8458219911695	streaming
696.7649	0.1012551673920825	42	systole	25	A	3879.8458219911695	streaming
696.9538	0.1012551673920825	42	systole	26	B	500.0	streaming
697.1424	0.1012551673920825	42	systole	27	A	3879.8458219911695	streaming
697.6748	0.1012551673920825	42	systole	28	A	3879.8458219911695	streaming
697.8638	0.1012551673920825	42	systole	29	B	500.0	streaming
698.0523	0.1012551673920825	42	systole	30	A	3879.8458219911695	streaming
